Timestamp, Orientation x, Orientation y, Orientation z, Orientation w, Acceleration x, Acceleration y, Acceleration z, Rotation x, Rotation y, Rotation z, EMG 0, EMG 1, EMG 2, EMG 3, EMG 4, EMG 5, EMG 6, EMG 7
559950015, 3165, 7642, -14143, -82, 1403, 782, -3862, 3, -1, -1, 0, 0, 0, 0, 0, 0, 0, 0
559957531, 3165, 7642, -14143, -82, 1404, 779, -3872, 3, 1, -2, 0, 0, 0, 0, 0, 0, 0, 0
559980022, 3165, 7641, -14143, -81, 1403, 778, -3874, 0, 2, -6, 0, 0, 0, 0, 0, 0, 0, 0
559995009, 3166, 7641, -14143, -81, 1404, 783, -3861, 13, 2, -9, 0, 0, 0, 0, 0, 0, 0, 0
560018232, 3166, 7641, -14143, -81, 1379, 789, -3877, 10, -5, -16, 0, 0, 0, 0, 0, 0, 0, 0
560019024, 3166, 7641, -14143, -81, 1379, 789, -3877, 10, -5, -16, 334, 97, 38, 37, 61, 94, 47, 90
560025007, 3166, 7641, -14143, -81, 1379, 789, -3877, 10, -5, -16, 334, 97, 38, 37, 61, 94, 47, 90
560041363, 3166, 7641, -14143, -80, 1398, 781, -3871, 12, 1, -10, 334, 97, 38, 37, 61, 94, 47, 90
560042136, 3166, 7641, -14143, -80, 1398, 781, -3871, 12, 1, -10, 328, 95, 35, 38, 79, 94, 53, 91
560043008, 3166, 7641, -14143, -80, 1398, 781, -3871, 12, 1, -10, 328, 95, 35, 38, 79, 94, 53, 91
560055029, 3166, 7644, -14141, -77, 1388, 761, -3877, 4, 5, -21, 328, 95, 35, 38, 79, 94, 53, 91
560063756, 3166, 7644, -14141, -77, 1388, 761, -3877, 4, 5, -21, 322, 100, 34, 37, 78, 96, 58, 80
560064583, 3166, 7644, -14141, -77, 1388, 761, -3877, 4, 5, -21, 322, 100, 34, 37, 78, 96, 58, 80
560077486, 3166, 7648, -14139, -73, 1389, 768, -3875, 16, 4, -23, 322, 100, 34, 37, 78, 96, 58, 80
560085584, 3166, 7648, -14139, -73, 1389, 768, -3875, 16, 4, -23, 355, 105, 36, 38, 76, 92, 61, 85
560086409, 3166, 7648, -14139, -73, 1389, 768, -3875, 16, 4, -23, 355, 105, 36, 38, 76, 92, 61, 85
560101300, 3166, 7653, -14137, -69, 1389, 780, -3879, 21, 8, -30, 355, 105, 36, 38, 76, 92, 61, 85
560102107, 3166, 7653, -14137, -69, 1389, 780, -3879, 21, 8, -30, 366, 106, 33, 40, 80, 90, 59, 87
560103014, 3166, 7653, -14137, -69, 1389, 780, -3879, 21, 8, -30, 366, 106, 33, 40, 80, 90, 59, 87
560115014, 3166, 7657, -14134, -66, 1389, 794, -3875, 17, 7, -23, 366, 106, 33, 40, 80, 90, 59, 87
560123132, 3166, 7657, -14134, -66, 1389, 794, -3875, 17, 7, -23, 347, 102, 33, 42, 77, 88, 63, 75
560124047, 3166, 7657, -14134, -66, 1389, 794, -3875, 17, 7, -23, 347, 102, 33, 42, 77, 88, 63, 75
560137502, 3167, 7661, -14132, -66, 1388, 792, -3876, 10, 1, -23, 347, 102, 33, 42, 77, 88, 63, 75
560145618, 3167, 7661, -14132, -66, 1388, 792, -3876, 10, 1, -23, 349, 94, 47, 50, 61, 94, 58, 75
560146431, 3167, 7661, -14132, -66, 1388, 792, -3876, 10, 1, -23, 349, 94, 47, 50, 61, 94, 58, 75
560161347, 3167, 7664, -14130, -66, 1387, 788, -3877, 4, 1, -21, 349, 94, 47, 50, 61, 94, 58, 75
560162132, 3167, 7664, -14130, -66, 1387, 788, -3877, 4, 1, -21, 358, 86, 52, 52, 57, 92, 64, 70
560163031, 3167, 7664, -14130, -66, 1387, 788, -3877, 4, 1, -21, 358, 86, 52, 52, 57, 92, 64, 70
560175009, 3167, 7667, -14129, -66, 1384, 802, -3904, 10, 3, -19, 358, 86, 52, 52, 57, 92, 64, 70
560183147, 3167, 7667, -14129, -66, 1384, 802, -3904, 10, 3, -19, 304, 102, 54, 52, 58, 105, 60, 67
560183910, 3167, 7667, -14129, -66, 1384, 802, -3904, 10, 3, -19, 304, 102, 54, 52, 58, 105, 60, 67
560197497, 3169, 7672, -14126, -69, 1386, 827, -3900, -2, 6, -26, 304, 102, 54, 52, 58, 105, 60, 67
560205582, 3169, 7672, -14126, -69, 1386, 827, -3900, -2, 6, -26, 282, 107, 58, 54, 52, 97, 54, 90
560206435, 3169, 7672, -14126, -69, 1386, 827, -3900, -2, 6, -26, 282, 107, 58, 54, 52, 97, 54, 90
560221309, 3172, 7674, -14124, -76, 1388, 835, -3899, -20, -3, -20, 282, 107, 58, 54, 52, 97, 54, 90
560222133, 3172, 7674, -14124, -76, 1388, 835, -3899, -20, -3, -20, 263, 113, 61, 54, 57, 103, 59, 91
560223007, 3172, 7674, -14124, -76, 1388, 835, -3899, -20, -3, -20, 263, 113, 61, 54, 57, 103, 59, 91
560235016, 3177, 7676, -14122, -87, 1404, 850, -3941, -44, -5, -18, 263, 113, 61, 54, 57, 103, 59, 91
560243150, 3177, 7676, -14122, -87, 1404, 850, -3941, -44, -5, -18, 282, 130, 52, 46, 74, 110, 61, 97
560244008, 3177, 7676, -14122, -87, 1404, 850, -3941, -44, -5, -18, 282, 130, 52, 46, 74, 110, 61, 97
560257483, 3182, 7676, -14120, -101, 1414, 857, -3948, -62, -12, -13, 282, 130, 52, 46, 74, 110, 61, 97
560265609, 3182, 7676, -14120, -101, 1414, 857, -3948, -62, -12, -13, 273, 129, 56, 55, 77, 113, 52, 100
560266430, 3182, 7676, -14120, -101, 1414, 857, -3948, -62, -12, -13, 273, 129, 56, 55, 77, 113, 52, 100
560281350, 3191, 7674, -14119, -117, 1427, 879, -3972, -79, -7, -6, 273, 129, 56, 55, 77, 113, 52, 100
560282132, 3191, 7674, -14119, -117, 1427, 879, -3972, -79, -7, -6, 239, 127, 61, 62, 74, 96, 50, 96
560283034, 3191, 7674, -14119, -117, 1427, 879, -3972, -79, -7, -6, 239, 127, 61, 62, 74, 96, 50, 96
560295010, 3201, 7671, -14119, -137, 1425, 897, -3998, -108, -4, 2, 239, 127, 61, 62, 74, 96, 50, 96
560303133, 3201, 7671, -14119, -137, 1425, 897, -3998, -108, -4, 2, 242, 135, 180, 70, 74, 95, 56, 75
560303925, 3201, 7671, -14119, -137, 1425, 897, -3998, -108, -4, 2, 242, 135, 180, 70, 74, 95, 56, 75
560317485, 3220, 7667, -14116, -172, 1453, 953, -4032, -186, -3, -19, 242, 135, 180, 70, 74, 95, 56, 75
560325605, 3220, 7667, -14116, -172, 1453, 953, -4032, -186, -3, -19, 306, 140, 227, 73, 69, 86, 50, 97
560326428, 3220, 7667, -14116, -172, 1453, 953, -4032, -186, -3, -19, 306, 140, 227, 73, 69, 86, 50, 97
560342696, 3253, 7665, -14109, -218, 1467, 1003, -4045, -266, 30, -43, 306, 140, 227, 73, 69, 86, 50, 97
560343532, 3166, 7641, -14143, -80, 1398, 781, -3871, 12, 1, -10, 306, 140, 227, 73, 69, 86, 50, 97
560344334, 3166, 7641, -14143, -80, 1398, 781, -3871, 12, 1, -10, 328, 95, 35, 38, 79, 94, 53, 91
560345132, 3166, 7641, -14143, -80, 1398, 781, -3871, 12, 1, -10, 328, 95, 35, 38, 79, 94, 53, 91
560350251, 3166, 7644, -14141, -77, 1388, 761, -3877, 4, 5, -21, 328, 95, 35, 38, 79, 94, 53, 91
560351007, 3166, 7644, -14141, -77, 1388, 761, -3877, 4, 5, -21, 322, 100, 34, 37, 78, 96, 58, 80
560351875, 3166, 7644, -14141, -77, 1388, 761, -3877, 4, 5, -21, 322, 100, 34, 37, 78, 96, 58, 80
560352654, 3166, 7644, -14141, -77, 1388, 761, -3877, 4, 5, -21, 322, 100, 34, 37, 78, 96, 58, 80
560357592, 3166, 7644, -14141, -77, 1388, 761, -3877, 4, 5, -21, 322, 100, 34, 37, 78, 96, 58, 80
560358407, 3166, 7644, -14141, -77, 1388, 761, -3877, 4, 5, -21, 322, 100, 34, 37, 78, 96, 58, 80
560359247, 3166, 7644, -14141, -77, 1388, 761, -3877, 4, 5, -21, 322, 100, 34, 37, 78, 96, 58, 80
560360463, 3166, 7644, -14141, -77, 1388, 761, -3877, 4, 5, -21, 322, 100, 34, 37, 78, 96, 58, 80
560365144, 3166, 7644, -14141, -77, 1388, 761, -3877, 4, 5, -21, 322, 100, 34, 37, 78, 96, 58, 80
560366036, 3166, 7648, -14139, -73, 1389, 768, -3875, 16, 4, -23, 322, 100, 34, 37, 78, 96, 58, 80
560366888, 3166, 7648, -14139, -73, 1389, 768, -3875, 16, 4, -23, 355, 105, 36, 38, 76, 92, 61, 85
560367665, 3166, 7648, -14139, -73, 1389, 768, -3875, 16, 4, -23, 355, 105, 36, 38, 76, 92, 61, 85
560372683, 3166, 7648, -14139, -73, 1389, 768, -3875, 16, 4, -23, 355, 105, 36, 38, 76, 92, 61, 85
560373522, 3166, 7648, -14139, -73, 1389, 768, -3875, 16, 4, -23, 355, 105, 36, 38, 76, 92, 61, 85
560374307, 3166, 7648, -14139, -73, 1389, 768, -3875, 16, 4, -23, 355, 105, 36, 38, 76, 92, 61, 85
560375136, 3166, 7648, -14139, -73, 1389, 768, -3875, 16, 4, -23, 355, 105, 36, 38, 76, 92, 61, 85
560380070, 3166, 7648, -14139, -73, 1389, 768, -3875, 16, 4, -23, 355, 105, 36, 38, 76, 92, 61, 85
560380893, 3166, 7648, -14139, -73, 1389, 768, -3875, 16, 4, -23, 355, 105, 36, 38, 76, 92, 61, 85
560381688, 3166, 7648, -14139, -73, 1389, 768, -3875, 16, 4, -23, 355, 105, 36, 38, 76, 92, 61, 85
560382508, 3166, 7648, -14139, -73, 1389, 768, -3875, 16, 4, -23, 355, 105, 36, 38, 76, 92, 61, 85
560387641, 3166, 7648, -14139, -73, 1389, 768, -3875, 16, 4, -23, 355, 105, 36, 38, 76, 92, 61, 85
560388582, 3166, 7653, -14137, -69, 1389, 780, -3879, 21, 8, -30, 355, 105, 36, 38, 76, 92, 61, 85
560389407, 3166, 7653, -14137, -69, 1389, 780, -3879, 21, 8, -30, 366, 106, 33, 40, 80, 90, 59, 87
560390207, 3166, 7653, -14137, -69, 1389, 780, -3879, 21, 8, -30, 366, 106, 33, 40, 80, 90, 59, 87
560395247, 3166, 7653, -14137, -69, 1389, 780, -3879, 21, 8, -30, 366, 106, 33, 40, 80, 90, 59, 87
560396012, 3166, 7653, -14137, -69, 1389, 780, -3879, 21, 8, -30, 366, 106, 33, 40, 80, 90, 59, 87
560396881, 3166, 7653, -14137, -69, 1389, 780, -3879, 21, 8, -30, 366, 106, 33, 40, 80, 90, 59, 87
560397656, 3166, 7653, -14137, -69, 1389, 780, -3879, 21, 8, -30, 366, 106, 33, 40, 80, 90, 59, 87
560402634, 3166, 7653, -14137, -69, 1389, 780, -3879, 21, 8, -30, 366, 106, 33, 40, 80, 90, 59, 87
560403406, 3166, 7653, -14137, -69, 1389, 780, -3879, 21, 8, -30, 366, 106, 33, 40, 80, 90, 59, 87
560404273, 3166, 7653, -14137, -69, 1389, 780, -3879, 21, 8, -30, 366, 106, 33, 40, 80, 90, 59, 87
560405057, 3166, 7653, -14137, -69, 1389, 780, -3879, 21, 8, -30, 366, 106, 33, 40, 80, 90, 59, 87
560410147, 3166, 7653, -14137, -69, 1389, 780, -3879, 21, 8, -30, 366, 106, 33, 40, 80, 90, 59, 87
560411081, 3166, 7657, -14134, -66, 1389, 794, -3875, 17, 7, -23, 366, 106, 33, 40, 80, 90, 59, 87
560411873, 3166, 7657, -14134, -66, 1389, 794, -3875, 17, 7, -23, 347, 102, 33, 42, 77, 88, 63, 75
560412687, 3166, 7657, -14134, -66, 1389, 794, -3875, 17, 7, -23, 347, 102, 33, 42, 77, 88, 63, 75
560417710, 3166, 7657, -14134, -66, 1389, 794, -3875, 17, 7, -23, 347, 102, 33, 42, 77, 88, 63, 75
560418528, 3166, 7657, -14134, -66, 1389, 794, -3875, 17, 7, -23, 347, 102, 33, 42, 77, 88, 63, 75
560419307, 3166, 7657, -14134, -66, 1389, 794, -3875, 17, 7, -23, 347, 102, 33, 42, 77, 88, 63, 75
560420171, 3166, 7657, -14134, -66, 1389, 794, -3875, 17, 7, -23, 347, 102, 33, 42, 77, 88, 63, 75
560425083, 3166, 7657, -14134, -66, 1389, 794, -3875, 17, 7, -23, 347, 102, 33, 42, 77, 88, 63, 75
560425914, 3166, 7657, -14134, -66, 1389, 794, -3875, 17, 7, -23, 347, 102, 33, 42, 77, 88, 63, 75
560426735, 3166, 7657, -14134, -66, 1389, 794, -3875, 17, 7, -23, 347, 102, 33, 42, 77, 88, 63, 75
560427572, 3166, 7657, -14134, -66, 1389, 794, -3875, 17, 7, -23, 347, 102, 33, 42, 77, 88, 63, 75
560432711, 3167, 7661, -14132, -66, 1388, 792, -3876, 10, 1, -23, 347, 102, 33, 42, 77, 88, 63, 75
560433529, 3167, 7661, -14132, -66, 1388, 792, -3876, 10, 1, -23, 349, 94, 47, 50, 61, 94, 58, 75
560434331, 3167, 7661, -14132, -66, 1388, 792, -3876, 10, 1, -23, 349, 94, 47, 50, 61, 94, 58, 75
560435147, 3167, 7661, -14132, -66, 1388, 792, -3876, 10, 1, -23, 349, 94, 47, 50, 61, 94, 58, 75
560440141, 3167, 7661, -14132, -66, 1388, 792, -3876, 10, 1, -23, 349, 94, 47, 50, 61, 94, 58, 75
560440932, 3167, 7661, -14132, -66, 1388, 792, -3876, 10, 1, -23, 349, 94, 47, 50, 61, 94, 58, 75
560441761, 3167, 7661, -14132, -66, 1388, 792, -3876, 10, 1, -23, 349, 94, 47, 50, 61, 94, 58, 75
560442557, 3167, 7661, -14132, -66, 1388, 792, -3876, 10, 1, -23, 349, 94, 47, 50, 61, 94, 58, 75
560447647, 3167, 7661, -14132, -66, 1388, 792, -3876, 10, 1, -23, 349, 94, 47, 50, 61, 94, 58, 75
560448581, 3167, 7664, -14130, -66, 1387, 788, -3877, 4, 1, -21, 349, 94, 47, 50, 61, 94, 58, 75
560449411, 3167, 7664, -14130, -66, 1387, 788, -3877, 4, 1, -21, 358, 86, 52, 52, 57, 92, 64, 70
560450182, 3167, 7664, -14130, -66, 1387, 788, -3877, 4, 1, -21, 358, 86, 52, 52, 57, 92, 64, 70
560455178, 3167, 7664, -14130, -66, 1387, 788, -3877, 4, 1, -21, 358, 86, 52, 52, 57, 92, 64, 70
560455987, 3167, 7664, -14130, -66, 1387, 788, -3877, 4, 1, -21, 358, 86, 52, 52, 57, 92, 64, 70
560456786, 3167, 7664, -14130, -66, 1387, 788, -3877, 4, 1, -21, 358, 86, 52, 52, 57, 92, 64, 70
560457607, 3167, 7664, -14130, -66, 1387, 788, -3877, 4, 1, -21, 358, 86, 52, 52, 57, 92, 64, 70
560462583, 3167, 7664, -14130, -66, 1387, 788, -3877, 4, 1, -21, 358, 86, 52, 52, 57, 92, 64, 70
560463447, 3167, 7664, -14130, -66, 1387, 788, -3877, 4, 1, -21, 358, 86, 52, 52, 57, 92, 64, 70
560464228, 3167, 7664, -14130, -66, 1387, 788, -3877, 4, 1, -21, 358, 86, 52, 52, 57, 92, 64, 70
560465033, 3167, 7664, -14130, -66, 1387, 788, -3877, 4, 1, -21, 358, 86, 52, 52, 57, 92, 64, 70
560470110, 3167, 7664, -14130, -66, 1387, 788, -3877, 4, 1, -21, 358, 86, 52, 52, 57, 92, 64, 70
560471034, 3167, 7667, -14129, -66, 1384, 802, -3904, 10, 3, -19, 358, 86, 52, 52, 57, 92, 64, 70
560471866, 3167, 7667, -14129, -66, 1384, 802, -3904, 10, 3, -19, 304, 102, 54, 52, 58, 105, 60, 67
560472679, 3167, 7667, -14129, -66, 1384, 802, -3904, 10, 3, -19, 304, 102, 54, 52, 58, 105, 60, 67
560477698, 3167, 7667, -14129, -66, 1384, 802, -3904, 10, 3, -19, 304, 102, 54, 52, 58, 105, 60, 67
560478482, 3167, 7667, -14129, -66, 1384, 802, -3904, 10, 3, -19, 304, 102, 54, 52, 58, 105, 60, 67
560479321, 3167, 7667, -14129, -66, 1384, 802, -3904, 10, 3, -19, 304, 102, 54, 52, 58, 105, 60, 67
560480106, 3167, 7667, -14129, -66, 1384, 802, -3904, 10, 3, -19, 304, 102, 54, 52, 58, 105, 60, 67
560483784, 3167, 7667, -14129, -66, 1384, 802, -3904, 10, 3, -19, 304, 102, 54, 52, 58, 105, 60, 67
560484557, 3167, 7667, -14129, -66, 1384, 802, -3904, 10, 3, -19, 304, 102, 54, 52, 58, 105, 60, 67
560485411, 3167, 7667, -14129, -66, 1384, 802, -3904, 10, 3, -19, 304, 102, 54, 52, 58, 105, 60, 67
560497484, 3532, 7573, -14073, -738, 1414, 969, -3843, -665, -218, -140, 304, 102, 54, 52, 58, 105, 60, 67
560505603, 3532, 7573, -14073, -738, 1414, 969, -3843, -665, -218, -140, 303, 165, 772, 179, 91, 110, 94, 142
560506407, 3532, 7573, -14073, -738, 1414, 969, -3843, -665, -218, -140, 303, 165, 772, 179, 91, 110, 94, 142
560521355, 3528, 7571, -14067, -894, 1338, 1060, -3718, -816, -429, -227, 303, 165, 772, 179, 91, 110, 94, 142
560522116, 3528, 7571, -14067, -894, 1338, 1060, -3718, -816, -429, -227, 336, 203, 917, 235, 97, 115, 112, 161
560523021, 3528, 7571, -14067, -894, 1338, 1060, -3718, -816, -429, -227, 336, 203, 917, 235, 97, 115, 112, 161
560535034, 3522, 7553, -14066, -1069, 1328, 1041, -3798, -987, -498, -184, 336, 203, 917, 235, 97, 115, 112, 161
560543088, 3522, 7553, -14066, -1069, 1328, 1041, -3798, -987, -498, -184, 352, 275, 1062, 347, 143, 134, 132, 229
560543878, 3522, 7553, -14066, -1069, 1328, 1041, -3798, -987, -498, -184, 352, 275, 1062, 347, 143, 134, 132, 229
560557457, 3536, 7537, -14056, -1253, 1403, 1071, -3794, -1105, -469, -245, 352, 275, 1062, 347, 143, 134, 132, 229
560565560, 3536, 7537, -14056, -1253, 1403, 1071, -3794, -1105, -469, -245, 388, 398, 1209, 531, 215, 207, 202, 269
560566381, 3536, 7537, -14056, -1253, 1403, 1071, -3794, -1105, -469, -245, 388, 398, 1209, 531, 215, 207, 202, 269
560581310, 3593, 7505, -14045, -1395, 1429, 967, -3774, -1129, -178, -140, 388, 398, 1209, 531, 215, 207, 202, 269
560582091, 3593, 7505, -14045, -1395, 1429, 967, -3774, -1129, -178, -140, 452, 474, 1247, 591, 267, 226, 258, 373
560582900, 3593, 7505, -14045, -1395, 1429, 967, -3774, -1129, -178, -140, 452, 474, 1247, 591, 267, 226, 258, 373
560595024, 3641, 7468, -14053, -1394, 1191, 697, -3707, -540, 244, 111, 452, 474, 1247, 591, 267, 226, 258, 373
560603132, 3641, 7468, -14053, -1394, 1191, 697, -3707, -540, 244, 111, 457, 505, 1195, 632, 291, 225, 258, 417
560604032, 3641, 7468, -14053, -1394, 1191, 697, -3707, -540, 244, 111, 457, 505, 1195, 632, 291, 225, 258, 417
560617468, 3705, 7432, -14057, -1371, 1257, 1059, -3819, -318, 386, 179, 457, 505, 1195, 632, 291, 225, 258, 417
560625630, 3705, 7432, -14057, -1371, 1257, 1059, -3819, -318, 386, 179, 450, 578, 1265, 766, 330, 241, 265, 439
560626415, 3705, 7432, -14057, -1371, 1257, 1059, -3819, -318, 386, 179, 450, 578, 1265, 766, 330, 241, 265, 439
560641336, 3714, 7426, -14066, -1290, 1084, 926, -3558, 139, 330, 119, 450, 578, 1265, 766, 330, 241, 265, 439
560642107, 3714, 7426, -14066, -1290, 1084, 926, -3558, 139, 330, 119, 456, 675, 1327, 866, 411, 279, 283, 440
560642998, 3714, 7426, -14066, -1290, 1084, 926, -3558, 139, 330, 119, 456, 675, 1327, 866, 411, 279, 283, 440
560655011, 3732, 7396, -14077, -1287, 1256, 1375, -3776, -103, 127, 190, 456, 675, 1327, 866, 411, 279, 283, 440
560663124, 3732, 7396, -14077, -1287, 1256, 1375, -3776, -103, 127, 190, 434, 678, 1301, 856, 406, 255, 249, 479
560663885, 3732, 7396, -14077, -1287, 1256, 1375, -3776, -103, 127, 190, 434, 678, 1301, 856, 406, 255, 249, 479
560677478, 3755, 7372, -14081, -1312, 1080, 1021, -3568, -394, 141, 78, 434, 678, 1301, 856, 406, 255, 249, 479
560685564, 3755, 7372, -14081, -1312, 1080, 1021, -3568, -394, 141, 78, 369, 684, 1343, 836, 422, 268, 208, 452
560686382, 3755, 7372, -14081, -1312, 1080, 1021, -3568, -394, 141, 78, 369, 684, 1343, 836, 422, 268, 208, 452
560701292, 3770, 7343, -14093, -1303, 1350, 908, -3657, -279, 61, 94, 369, 684, 1343, 836, 422, 268, 208, 452
560702110, 3770, 7343, -14093, -1303, 1350, 908, -3657, -279, 61, 94, 378, 793, 1453, 842, 419, 289, 236, 454
560702917, 3770, 7343, -14093, -1303, 1350, 908, -3657, -279, 61, 94, 378, 793, 1453, 842, 419, 289, 236, 454
560715008, 3782, 7321, -14104, -1271, 1292, 971, -3571, -103, 128, 111, 378, 793, 1453, 842, 419, 289, 236, 454
560723136, 3782, 7321, -14104, -1271, 1292, 971, -3571, -103, 128, 111, 413, 760, 1363, 752, 403, 281, 225, 462
560724009, 3782, 7321, -14104, -1271, 1292, 971, -3571, -103, 128, 111, 413, 760, 1363, 752, 403, 281, 225, 462
560737469, 3798, 7309, -14108, -1247, 1368, 1224, -3590, -14, 121, 77, 413, 760, 1363, 752, 403, 281, 225, 462
560745621, 3798, 7309, -14108, -1247, 1368, 1224, -3590, -14, 121, 77, 435, 726, 1297, 613, 332, 258, 243, 552
560746448, 3798, 7309, -14108, -1247, 1368, 1224, -3590, -14, 121, 77, 435, 726, 1297, 613, 332, 258, 243, 552
560761331, 3800, 7290, -14122, -1201, 1397, 988, -3526, 25, 65, 108, 435, 726, 1297, 613, 332, 258, 243, 552
560762173, 3800, 7290, -14122, -1201, 1397, 988, -3526, 25, 65, 108, 410, 698, 1355, 668, 362, 258, 233, 534
560763028, 3800, 7290, -14122, -1201, 1397, 988, -3526, 25, 65, 108, 410, 698, 1355, 668, 362, 258, 233, 534
560775020, 3807, 7272, -14133, -1150, 1448, 1064, -3635, 67, 111, 117, 410, 698, 1355, 668, 362, 258, 233, 534
560783084, 3807, 7272, -14133, -1150, 1448, 1064, -3635, 67, 111, 117, 398, 672, 1340, 676, 331, 236, 224, 566
560783883, 3807, 7272, -14133, -1150, 1448, 1064, -3635, 67, 111, 117, 398, 672, 1340, 676, 331, 236, 224, 566
560797458, 3803, 7262, -14143, -1101, 1393, 1094, -3644, 122, 93, 93, 398, 672, 1340, 676, 331, 236, 224, 566
560805585, 3803, 7262, -14143, -1101, 1393, 1094, -3644, 122, 93, 93, 408, 565, 1284, 659, 326, 208, 188, 534
560806382, 3803, 7262, -14143, -1101, 1393, 1094, -3644, 122, 93, 93, 408, 565, 1284, 659, 326, 208, 188, 534
560822645, 3793, 7252, -14155, -1045, 1464, 1088, -3725, 167, 61, 99, 408, 565, 1284, 659, 326, 208, 188, 534
560823522, 3528, 7571, -14067, -894, 1338, 1060, -3718, -816, -429, -227, 408, 565, 1284, 659, 326, 208, 188, 534
560824282, 3528, 7571, -14067, -894, 1338, 1060, -3718, -816, -429, -227, 336, 203, 917, 235, 97, 115, 112, 161
560825148, 3528, 7571, -14067, -894, 1338, 1060, -3718, -816, -429, -227, 336, 203, 917, 235, 97, 115, 112, 161
560830237, 3522, 7553, -14066, -1069, 1328, 1041, -3798, -987, -498, -184, 336, 203, 917, 235, 97, 115, 112, 161
560831057, 3522, 7553, -14066, -1069, 1328, 1041, -3798, -987, -498, -184, 352, 275, 1062, 347, 143, 134, 132, 229
560831859, 3522, 7553, -14066, -1069, 1328, 1041, -3798, -987, -498, -184, 352, 275, 1062, 347, 143, 134, 132, 229
560832683, 3522, 7553, -14066, -1069, 1328, 1041, -3798, -987, -498, -184, 352, 275, 1062, 347, 143, 134, 132, 229
560837575, 3522, 7553, -14066, -1069, 1328, 1041, -3798, -987, -498, -184, 352, 275, 1062, 347, 143, 134, 132, 229
560838371, 3522, 7553, -14066, -1069, 1328, 1041, -3798, -987, -498, -184, 352, 275, 1062, 347, 143, 134, 132, 229
560839185, 3522, 7553, -14066, -1069, 1328, 1041, -3798, -987, -498, -184, 352, 275, 1062, 347, 143, 134, 132, 229
560839982, 3522, 7553, -14066, -1069, 1328, 1041, -3798, -987, -498, -184, 352, 275, 1062, 347, 143, 134, 132, 229
560845081, 3522, 7553, -14066, -1069, 1328, 1041, -3798, -987, -498, -184, 352, 275, 1062, 347, 143, 134, 132, 229
560845998, 3536, 7537, -14056, -1253, 1403, 1071, -3794, -1105, -469, -245, 352, 275, 1062, 347, 143, 134, 132, 229
560846827, 3536, 7537, -14056, -1253, 1403, 1071, -3794, -1105, -469, -245, 388, 398, 1209, 531, 215, 207, 202, 269
560847607, 3536, 7537, -14056, -1253, 1403, 1071, -3794, -1105, -469, -245, 388, 398, 1209, 531, 215, 207, 202, 269
560852692, 3536, 7537, -14056, -1253, 1403, 1071, -3794, -1105, -469, -245, 388, 398, 1209, 531, 215, 207, 202, 269
560853462, 3536, 7537, -14056, -1253, 1403, 1071, -3794, -1105, -469, -245, 388, 398, 1209, 531, 215, 207, 202, 269
560854288, 3536, 7537, -14056, -1253, 1403, 1071, -3794, -1105, -469, -245, 388, 398, 1209, 531, 215, 207, 202, 269
560855121, 3536, 7537, -14056, -1253, 1403, 1071, -3794, -1105, -469, -245, 388, 398, 1209, 531, 215, 207, 202, 269
560860069, 3536, 7537, -14056, -1253, 1403, 1071, -3794, -1105, -469, -245, 388, 398, 1209, 531, 215, 207, 202, 269
560860914, 3536, 7537, -14056, -1253, 1403, 1071, -3794, -1105, -469, -245, 388, 398, 1209, 531, 215, 207, 202, 269
560861724, 3536, 7537, -14056, -1253, 1403, 1071, -3794, -1105, -469, -245, 388, 398, 1209, 531, 215, 207, 202, 269
560862482, 3536, 7537, -14056, -1253, 1403, 1071, -3794, -1105, -469, -245, 388, 398, 1209, 531, 215, 207, 202, 269
560867630, 3536, 7537, -14056, -1253, 1403, 1071, -3794, -1105, -469, -245, 388, 398, 1209, 531, 215, 207, 202, 269
560868584, 3593, 7505, -14045, -1395, 1429, 967, -3774, -1129, -178, -140, 388, 398, 1209, 531, 215, 207, 202, 269
560869365, 3593, 7505, -14045, -1395, 1429, 967, -3774, -1129, -178, -140, 452, 474, 1247, 591, 267, 226, 258, 373
560870196, 3593, 7505, -14045, -1395, 1429, 967, -3774, -1129, -178, -140, 452, 474, 1247, 591, 267, 226, 258, 373
560875187, 3593, 7505, -14045, -1395, 1429, 967, -3774, -1129, -178, -140, 452, 474, 1247, 591, 267, 226, 258, 373
560876008, 3593, 7505, -14045, -1395, 1429, 967, -3774, -1129, -178, -140, 452, 474, 1247, 591, 267, 226, 258, 373
560876833, 3593, 7505, -14045, -1395, 1429, 967, -3774, -1129, -178, -140, 452, 474, 1247, 591, 267, 226, 258, 373
560877645, 3593, 7505, -14045, -1395, 1429, 967, -3774, -1129, -178, -140, 452, 474, 1247, 591, 267, 226, 258, 373
560882592, 3593, 7505, -14045, -1395, 1429, 967, -3774, -1129, -178, -140, 452, 474, 1247, 591, 267, 226, 258, 373
560883408, 3593, 7505, -14045, -1395, 1429, 967, -3774, -1129, -178, -140, 452, 474, 1247, 591, 267, 226, 258, 373
560884209, 3593, 7505, -14045, -1395, 1429, 967, -3774, -1129, -178, -140, 452, 474, 1247, 591, 267, 226, 258, 373
560885023, 3593, 7505, -14045, -1395, 1429, 967, -3774, -1129, -178, -140, 452, 474, 1247, 591, 267, 226, 258, 373
560890098, 3593, 7505, -14045, -1395, 1429, 967, -3774, -1129, -178, -140, 452, 474, 1247, 591, 267, 226, 258, 373
560891035, 3641, 7468, -14053, -1394, 1191, 697, -3707, -540, 244, 111, 452, 474, 1247, 591, 267, 226, 258, 373
560891877, 3641, 7468, -14053, -1394, 1191, 697, -3707, -540, 244, 111, 457, 505, 1195, 632, 291, 225, 258, 417
560892657, 3641, 7468, -14053, -1394, 1191, 697, -3707, -540, 244, 111, 457, 505, 1195, 632, 291, 225, 258, 417
560897685, 3641, 7468, -14053, -1394, 1191, 697, -3707, -540, 244, 111, 457, 505, 1195, 632, 291, 225, 258, 417
560898482, 3641, 7468, -14053, -1394, 1191, 697, -3707, -540, 244, 111, 457, 505, 1195, 632, 291, 225, 258, 417
560899347, 3641, 7468, -14053, -1394, 1191, 697, -3707, -540, 244, 111, 457, 505, 1195, 632, 291, 225, 258, 417
560900107, 3641, 7468, -14053, -1394, 1191, 697, -3707, -540, 244, 111, 457, 505, 1195, 632, 291, 225, 258, 417
560903786, 3641, 7468, -14053, -1394, 1191, 697, -3707, -540, 244, 111, 457, 505, 1195, 632, 291, 225, 258, 417
560904581, 3641, 7468, -14053, -1394, 1191, 697, -3707, -540, 244, 111, 457, 505, 1195, 632, 291, 225, 258, 417
560905422, 3641, 7468, -14053, -1394, 1191, 697, -3707, -540, 244, 111, 457, 505, 1195, 632, 291, 225, 258, 417
560917434, 3755, 7260, -14170, -916, 1444, 1169, -3847, 17, 28, -68, 457, 505, 1195, 632, 291, 225, 258, 417
560925623, 3755, 7260, -14170, -916, 1444, 1169, -3847, 17, 28, -68, 247, 492, 1029, 307, 206, 114, 99, 316
560926428, 3755, 7260, -14170, -916, 1444, 1169, -3847, 17, 28, -68, 247, 492, 1029, 307, 206, 114, 99, 316
560940017, 3757, 7278, -14161, -902, 1485, 1259, -3900, 58, 82, -96, 247, 492, 1029, 307, 206, 114, 99, 316
560948092, 3757, 7278, -14161, -902, 1485, 1259, -3900, 58, 82, -96, 264, 370, 1000, 289, 197, 99, 95, 276
560948912, 3757, 7278, -14161, -902, 1485, 1259, -3900, 58, 82, -96, 264, 370, 1000, 289, 197, 99, 95, 276
560955060, 3766, 7300, -14149, -884, 1508, 1293, -3963, 67, 130, -109, 264, 370, 1000, 289, 197, 99, 95, 276
560970611, 3766, 7300, -14149, -884, 1508, 1293, -3963, 67, 130, -109, 259, 376, 1004, 290, 152, 83, 90, 249
560971392, 3766, 7300, -14149, -884, 1508, 1293, -3963, 67, 130, -109, 259, 376, 1004, 290, 152, 83, 90, 249
560977578, 3784, 7328, -14130, -869, 1522, 1376, -4043, 67, 195, -144, 259, 376, 1004, 290, 152, 83, 90, 249
560985588, 3784, 7328, -14130, -869, 1522, 1376, -4043, 67, 195, -144, 220, 345, 975, 279, 149, 86, 81, 225
560986430, 3784, 7328, -14130, -869, 1522, 1376, -4043, 67, 195, -144, 220, 345, 975, 279, 149, 86, 81, 225
561000033, 3810, 7359, -14107, -881, 1525, 1549, -4189, -25, 208, -165, 220, 345, 975, 279, 149, 86, 81, 225
561008108, 3810, 7359, -14107, -881, 1525, 1549, -4189, -25, 208, -165, 199, 308, 1037, 259, 150, 87, 82, 196
561008899, 3810, 7359, -14107, -881, 1525, 1549, -4189, -25, 208, -165, 199, 308, 1037, 259, 150, 87, 82, 196
561015063, 3850, 7386, -14077, -944, 1541, 1717, -4319, -281, 169, -205, 199, 308, 1037, 259, 150, 87, 82, 196
561030562, 3850, 7386, -14077, -944, 1541, 1717, -4319, -281, 169, -205, 169, 322, 1050, 237, 139, 92, 73, 181
561031412, 3850, 7386, -14077, -944, 1541, 1717, -4319, -281, 169, -205, 169, 322, 1050, 237, 139, 92, 73, 181
561037544, 3928, 7399, -14041, -1062, 1632, 1877, -4563, -755, 127, -285, 169, 322, 1050, 237, 139, 92, 73, 181
561045602, 3928, 7399, -14041, -1062, 1632, 1877, -4563, -755, 127, -285, 118, 334, 1072, 229, 141, 98, 70, 173
561046373, 3928, 7399, -14041, -1062, 1632, 1877, -4563, -755, 127, -285, 118, 334, 1072, 229, 141, 98, 70, 173
561060012, 4010, 7416, -13989, -1290, 1615, 2110, -4759, -1301, -108, -489, 118, 334, 1072, 229, 141, 98, 70, 173
561068069, 4010, 7416, -13989, -1290, 1615, 2110, -4759, -1301, -108, -489, 133, 485, 1133, 260, 166, 168, 77, 151
561068892, 4010, 7416, -13989, -1290, 1615, 2110, -4759, -1301, -108, -489, 133, 485, 1133, 260, 166, 168, 77, 151
561075075, 4044, 7443, -13922, -1695, 1418, 2424, -5019, -2016, -758, -841, 133, 485, 1133, 260, 166, 168, 77, 151
561090570, 4044, 7443, -13922, -1695, 1418, 2424, -5019, -2016, -758, -841, 192, 638, 1248, 436, 279, 359, 128, 184
561091383, 4044, 7443, -13922, -1695, 1418, 2424, -5019, -2016, -758, -841, 192, 638, 1248, 436, 279, 359, 128, 184
561097586, 4020, 7466, -13804, -2446, 1135, 2856, -5299, -3548, -1851, -1459, 192, 638, 1248, 436, 279, 359, 128, 184
561105583, 4020, 7466, -13804, -2446, 1135, 2856, -5299, -3548, -1851, -1459, 220, 832, 1230, 500, 351, 456, 154, 197
561106417, 4020, 7466, -13804, -2446, 1135, 2856, -5299, -3548, -1851, -1459, 220, 832, 1230, 500, 351, 456, 154, 197
561120011, 4016, 7469, -13542, -3626, 1024, 2859, -5853, -5781, -2673, -2313, 220, 832, 1230, 500, 351, 456, 154, 197
561128088, 4016, 7469, -13542, -3626, 1024, 2859, -5853, -5781, -2673, -2313, 253, 974, 1300, 547, 530, 642, 196, 212
561128867, 4016, 7469, -13542, -3626, 1024, 2859, -5853, -5781, -2673, -2313, 253, 974, 1300, 547, 530, 642, 196, 212
561135035, 3981, 7472, -13106, -4998, 718, 2288, -5016, -6821, -3073, -3065, 253, 974, 1300, 547, 530, 642, 196, 212
561150617, 3981, 7472, -13106, -4998, 718, 2288, -5016, -6821, -3073, -3065, 318, 1182, 1243, 633, 642, 837, 205, 215
561151445, 3981, 7472, -13106, -4998, 718, 2288, -5016, -6821, -3073, -3065, 318, 1182, 1243, 633, 642, 837, 205, 215
561157561, 3862, 7408, -12555, -6405, 949, 2199, -4414, -7053, -3498, -3249, 318, 1182, 1243, 633, 642, 837, 205, 215
561165585, 3862, 7408, -12555, -6405, 949, 2199, -4414, -7053, -3498, -3249, 320, 1209, 1278, 736, 718, 947, 227, 230
561166382, 3862, 7408, -12555, -6405, 949, 2199, -4414, -7053, -3498, -3249, 320, 1209, 1278, 736, 718, 947, 227, 230
561188837, 3700, 7271, -11904, -7757, 633, 1425, -3646, -7372, -3653, -3318, 320, 1209, 1278, 736, 718, 947, 227, 230
561189607, 3700, 7271, -11904, -7757, 633, 1425, -3646, -7372, -3653, -3318, 310, 1216, 1209, 706, 740, 1048, 250, 250
561190472, 3700, 7271, -11904, -7757, 633, 1425, -3646, -7372, -3653, -3318, 310, 1216, 1209, 706, 740, 1048, 250, 250
561195081, 3478, 7079, -11254, -8921, 1127, -448, -2593, -6512, -3600, -3037, 310, 1216, 1209, 706, 740, 1048, 250, 250
561210593, 3478, 7079, -11254, -8921, 1127, -448, -2593, -6512, -3600, -3037, 315, 1197, 1177, 767, 731, 1170, 248, 243
561211382, 3478, 7079, -11254, -8921, 1127, -448, -2593, -6512, -3600, -3037, 315, 1197, 1177, 767, 731, 1170, 248, 243
561217562, 3264, 6899, -10814, -9657, 1859, -1913, -1399, -4105, -2735, -2083, 315, 1197, 1177, 767, 731, 1170, 248, 243
561225582, 3264, 6899, -10814, -9657, 1859, -1913, -1399, -4105, -2735, -2083, 353, 1167, 1047, 799, 701, 1194, 279, 262
561226397, 3264, 6899, -10814, -9657, 1859, -1913, -1399, -4105, -2735, -2083, 353, 1167, 1047, 799, 701, 1194, 279, 262
561240045, 3138, 6760, -10811, -9799, 1456, -595, -1026, -971, -1553, -731, 353, 1167, 1047, 799, 701, 1194, 279, 262
561248086, 3138, 6760, -10811, -9799, 1456, -595, -1026, -971, -1553, -731, 316, 1072, 1179, 868, 753, 1138, 290, 278
561248886, 3138, 6760, -10811, -9799, 1456, -595, -1026, -971, -1553, -731, 316, 1072, 1179, 868, 753, 1138, 290, 278
561255033, 3052, 6607, -10981, -9742, 517, 1273, -1459, 220, -1131, 294, 316, 1072, 1179, 868, 753, 1138, 290, 278
561270584, 3052, 6607, -10981, -9742, 517, 1273, -1459, 220, -1131, 294, 321, 1152, 1181, 822, 709, 1210, 303, 283
561271382, 3052, 6607, -10981, -9742, 517, 1273, -1459, 220, -1131, 294, 321, 1152, 1181, 822, 709, 1210, 303, 283
561277551, 3003, 6422, -11131, -9711, 405, 1733, -1769, -161, -1147, 476, 321, 1152, 1181, 822, 709, 1210, 303, 283
561293080, 3003, 6422, -11131, -9711, 405, 1733, -1769, -161, -1147, 476, 321, 1149, 1222, 921, 779, 1197, 287, 247
561293886, 3003, 6422, -11131, -9711, 405, 1733, -1769, -161, -1147, 476, 321, 1149, 1222, 921, 779, 1197, 287, 247
561300058, 2951, 6254, -11217, -9737, 563, 1554, -1797, -610, -1184, 149, 321, 1149, 1222, 921, 779, 1197, 287, 247
561308060, 2951, 6254, -11217, -9737, 563, 1554, -1797, -610, -1184, 149, 306, 1134, 1282, 900, 800, 1131, 302, 259
561308876, 2951, 6254, -11217, -9737, 563, 1554, -1797, -610, -1184, 149, 306, 1134, 1282, 900, 800, 1131, 302, 259
561315025, 2905, 6075, -11273, -9799, 731, 1260, -1679, -847, -1238, 62, 306, 1134, 1282, 900, 800, 1131, 302, 259
561330566, 2905, 6075, -11273, -9799, 731, 1260, -1679, -847, -1238, 62, 309, 1127, 1335, 964, 795, 1110, 322, 269
561331396, 2905, 6075, -11273, -9799, 731, 1260, -1679, -847, -1238, 62, 309, 1127, 1335, 964, 795, 1110, 322, 269
561337582, 2880, 5916, -11342, -9824, 985, 892, -1625, -708, -1036, 36, 309, 1127, 1335, 964, 795, 1110, 322, 269
561345584, 2880, 5916, -11342, -9824, 985, 892, -1625, -708, -1036, 36, 313, 1088, 1266, 874, 683, 1109, 336, 276
561346394, 2880, 5916, -11342, -9824, 985, 892, -1625, -708, -1036, 36, 313, 1088, 1266, 874, 683, 1109, 336, 276
561360016, 2878, 5795, -11449, -9772, 1111, 860, -1715, -333, -723, 66, 313, 1088, 1266, 874, 683, 1109, 336, 276
561368070, 2878, 5795, -11449, -9772, 1111, 860, -1715, -333, -723, 66, 318, 1072, 1210, 880, 681, 1033, 376, 286
561368873, 2878, 5795, -11449, -9772, 1111, 860, -1715, -333, -723, 66, 318, 1072, 1210, 880, 681, 1033, 376, 286
561375046, 2907, 5695, -11579, -9669, 1067, 1376, -1841, -103, -445, 159, 318, 1072, 1210, 880, 681, 1033, 376, 286
561390558, 2907, 5695, -11579, -9669, 1067, 1376, -1841, -103, -445, 159, 337, 1050, 1106, 751, 540, 970, 380, 291
561391398, 2907, 5695, -11579, -9669, 1067, 1376, -1841, -103, -445, 159, 337, 1050, 1106, 751, 540, 970, 380, 291
561397512, 2942, 5618, -11679, -9583, 881, 1456, -1807, -212, -317, 117, 337, 1050, 1106, 751, 540, 970, 380, 291
561405588, 2942, 5618, -11679, -9583, 881, 1456, -1807, -212, -317, 117, 334, 1040, 1121, 715, 560, 907, 382, 289
561406389, 2942, 5618, -11679, -9583, 881, 1456, -1807, -212, -317, 117, 334, 1040, 1121, 715, 560, 907, 382, 289
561420016, 2981, 5561, -11761, -9504, 950, 1495, -1682, -220, -223, -17, 334, 1040, 1121, 715, 560, 907, 382, 289
561428082, 2981, 5561, -11761, -9504, 950, 1495, -1682, -220, -223, -17, 274, 1031, 1074, 598, 512, 838, 341, 265
561428860, 2981, 5561, -11761, -9504, 950, 1495, -1682, -220, -223, -17, 274, 1031, 1074, 598, 512, 838, 341, 265
561435026, 3027, 5520, -11832, -9425, 933, 1511, -1563, -175, -112, -60, 274, 1031, 1074, 598, 512, 838, 341, 265
561450556, 3027, 5520, -11832, -9425, 933, 1511, -1563, -175, -112, -60, 282, 1030, 1037, 621, 525, 848, 349, 276
561451380, 3027, 5520, -11832, -9425, 933, 1511, -1563, -175, -112, -60, 282, 1030, 1037, 621, 525, 848, 349, 276
561457516, 3073, 5504, -11886, -9351, 794, 1644, -1629, -233, -7, -124, 282, 1030, 1037, 621, 525, 848, 349, 276
561464906, 3073, 5504, -11886, -9351, 794, 1644, -1629, -233, -7, -124, 266, 907, 1064, 579, 518, 854, 281, 242
561472385, 3073, 5504, -11886, -9351, 794, 1644, -1629, -233, -7, -124, 266, 907, 1064, 579, 518, 854, 281, 242
561480006, 3110, 5503, -11923, -9292, 682, 1473, -1530, -284, 26, -187, 266, 907, 1064, 579, 518, 854, 281, 242
561488067, 3110, 5503, -11923, -9292, 682, 1473, -1530, -284, 26, -187, 223, 902, 1131, 635, 562, 822, 287, 236
561488928, 3110, 5503, -11923, -9292, 682, 1473, -1530, -284, 26, -187, 223, 902, 1131, 635, 562, 822, 287, 236
561495075, 3142, 5500, -11970, -9223, 680, 1501, -1492, -170, 11, -166, 223, 902, 1131, 635, 562, 822, 287, 236
561510557, 3142, 5500, -11970, -9223, 680, 1501, -1492, -170, 11, -166, 238, 885, 1023, 633, 511, 881, 309, 251
561511386, 3142, 5500, -11970, -9223, 680, 1501, -1492, -170, 11, -166, 238, 885, 1023, 633, 511, 881, 309, 251
561517510, 3162, 5497, -12012, -9163, 543, 1617, -1404, -131, -18, -144, 238, 885, 1023, 633, 511, 881, 309, 251
561533060, 3162, 5497, -12012, -9163, 543, 1617, -1404, -131, -18, -144, 236, 842, 1051, 621, 508, 909, 292, 252
561533860, 3162, 5497, -12012, -9163, 543, 1617, -1404, -131, -18, -144, 236, 842, 1051, 621, 508, 909, 292, 252
561540039, 3188, 5497, -12051, -9101, 593, 1620, -1436, -147, 9, -166, 236, 842, 1051, 621, 508, 909, 292, 252
561548062, 3188, 5497, -12051, -9101, 593, 1620, -1436, -147, 9, -166, 213, 818, 1124, 585, 519, 867, 264, 216
561548889, 3188, 5497, -12051, -9101, 593, 1620, -1436, -147, 9, -166, 213, 818, 1124, 585, 519, 867, 264, 216
561555008, 3226, 5502, -12095, -9026, 625, 1500, -1443, -113, 92, -128, 213, 818, 1124, 585, 519, 867, 264, 216
