Timestamp, Orientation x, Orientation y, Orientation z, Orientation w, Acceleration x, Acceleration y, Acceleration z, Rotation x, Rotation y, Rotation z, EMG 0, EMG 1, EMG 2, EMG 3, EMG 4, EMG 5, EMG 6, EMG 7
329846152, 2200, 4861, -15038, -3719, 325, 1323, -2572, -28, -7, -31, 0, 0, 0, 0, 0, 0, 0, 0
329846949, 2195, 4865, -15039, -3712, 321, 1324, -2567, -23, -8, -27, 0, 0, 0, 0, 0, 0, 0, 0
329867982, 2189, 4870, -15041, -3703, 321, 1302, -2580, -22, -7, -28, 0, 0, 0, 0, 0, 0, 0, 0
329882986, 2183, 4876, -15042, -3695, 318, 1307, -2574, -24, -2, -39, 0, 0, 0, 0, 0, 0, 0, 0
329905442, 2177, 4881, -15043, -3688, 320, 1329, -2590, -17, -11, -33, 0, 0, 0, 0, 0, 0, 0, 0
329913623, 2177, 4881, -15043, -3688, 320, 1329, -2590, -17, -11, -33, 71, 38, 31, 27, 53, 73, 108, 162
329914414, 2177, 4881, -15043, -3688, 320, 1329, -2590, -17, -11, -33, 71, 38, 31, 27, 53, 73, 108, 162
329930733, 2167, 4884, -15046, -3676, 308, 1313, -2599, 4, -23, -23, 71, 38, 31, 27, 53, 73, 108, 162
329931615, 2200, 4861, -15038, -3719, 325, 1323, -2572, -28, -7, -31, 71, 38, 31, 27, 53, 73, 108, 162
329932381, 2195, 4865, -15039, -3712, 321, 1324, -2567, -23, -8, -27, 71, 38, 31, 27, 53, 73, 108, 162
329933243, 2189, 4870, -15041, -3703, 321, 1302, -2580, -22, -7, -28, 71, 38, 31, 27, 53, 73, 108, 162
329938141, 2183, 4876, -15042, -3695, 318, 1307, -2574, -24, -2, -39, 71, 38, 31, 27, 53, 73, 108, 162
329938976, 2177, 4881, -15043, -3688, 320, 1329, -2590, -17, -11, -33, 71, 38, 31, 27, 53, 73, 108, 162
329939749, 2177, 4881, -15043, -3688, 320, 1329, -2590, -17, -11, -33, 71, 38, 31, 27, 53, 73, 108, 162
329940639, 2177, 4881, -15043, -3688, 320, 1329, -2590, -17, -11, -33, 71, 38, 31, 27, 53, 73, 108, 162
329945676, 2177, 4881, -15043, -3688, 320, 1329, -2590, -17, -11, -33, 84, 41, 33, 30, 68, 77, 137, 224
329946505, 2177, 4881, -15043, -3688, 320, 1329, -2590, -17, -11, -33, 84, 41, 33, 30, 68, 77, 137, 224
329947326, 2177, 4881, -15043, -3688, 320, 1329, -2590, -17, -11, -33, 84, 41, 33, 30, 68, 77, 137, 224
329948114, 2177, 4881, -15043, -3688, 320, 1329, -2590, -17, -11, -33, 84, 41, 33, 30, 68, 77, 137, 224
329953073, 2177, 4881, -15043, -3688, 320, 1329, -2590, -17, -11, -33, 84, 41, 33, 30, 68, 77, 137, 224
329953938, 2177, 4881, -15043, -3688, 320, 1329, -2590, -17, -11, -33, 84, 41, 33, 30, 68, 77, 137, 224
329954700, 2177, 4881, -15043, -3688, 320, 1329, -2590, -17, -11, -33, 84, 41, 33, 30, 68, 77, 137, 224
329955640, 2177, 4881, -15043, -3688, 320, 1329, -2590, -17, -11, -33, 84, 41, 33, 30, 68, 77, 137, 224
329960608, 2177, 4881, -15043, -3688, 320, 1329, -2590, -17, -11, -33, 84, 41, 33, 30, 68, 77, 137, 224
329961630, 2156, 4887, -15051, -3660, 326, 1300, -2595, 30, -26, -19, 84, 41, 33, 30, 68, 77, 137, 224
329962279, 2156, 4887, -15051, -3660, 326, 1300, -2595, 30, -26, -19, 83, 42, 35, 29, 68, 82, 131, 229
329963175, 2156, 4887, -15051, -3660, 326, 1300, -2595, 30, -26, -19, 83, 42, 35, 29, 68, 82, 131, 229
329968153, 2156, 4887, -15051, -3660, 326, 1300, -2595, 30, -26, -19, 83, 42, 35, 29, 68, 82, 131, 229
329969015, 2156, 4887, -15051, -3660, 326, 1300, -2595, 30, -26, -19, 83, 42, 35, 29, 68, 82, 131, 229
329969799, 2156, 4887, -15051, -3660, 326, 1300, -2595, 30, -26, -19, 83, 42, 35, 29, 68, 82, 131, 229
329970634, 2156, 4887, -15051, -3660, 326, 1300, -2595, 30, -26, -19, 83, 42, 35, 29, 68, 82, 131, 229
329975646, 2156, 4887, -15051, -3660, 326, 1300, -2595, 30, -26, -19, 83, 42, 35, 29, 68, 82, 131, 229
329976405, 2156, 4887, -15051, -3660, 326, 1300, -2595, 30, -26, -19, 83, 42, 35, 29, 68, 82, 131, 229
329977175, 2156, 4887, -15051, -3660, 326, 1300, -2595, 30, -26, -19, 83, 42, 35, 29, 68, 82, 131, 229
329978026, 2156, 4887, -15051, -3660, 326, 1300, -2595, 30, -26, -19, 83, 42, 35, 29, 68, 82, 131, 229
329983075, 2156, 4887, -15051, -3660, 326, 1300, -2595, 30, -26, -19, 83, 42, 35, 29, 68, 82, 131, 229
329983998, 2143, 4888, -15057, -3640, 318, 1309, -2578, 66, -36, -5, 83, 42, 35, 29, 68, 82, 131, 229
329984824, 2143, 4888, -15057, -3640, 318, 1309, -2578, 66, -36, -5, 85, 42, 32, 29, 68, 83, 127, 237
329985669, 2143, 4888, -15057, -3640, 318, 1309, -2578, 66, -36, -5, 85, 42, 32, 29, 68, 83, 127, 237
329990649, 2143, 4888, -15057, -3640, 318, 1309, -2578, 66, -36, -5, 85, 42, 32, 29, 68, 83, 127, 237
329991479, 2143, 4888, -15057, -3640, 318, 1309, -2578, 66, -36, -5, 85, 42, 32, 29, 68, 83, 127, 237
329992280, 2143, 4888, -15057, -3640, 318, 1309, -2578, 66, -36, -5, 85, 42, 32, 29, 68, 83, 127, 237
329993072, 2143, 4888, -15057, -3640, 318, 1309, -2578, 66, -36, -5, 85, 42, 32, 29, 68, 83, 127, 237
329998024, 2143, 4888, -15057, -3640, 318, 1309, -2578, 66, -36, -5, 85, 42, 32, 29, 68, 83, 127, 237
329998871, 2143, 4888, -15057, -3640, 318, 1309, -2578, 66, -36, -5, 85, 42, 32, 29, 68, 83, 127, 237
329999675, 2143, 4888, -15057, -3640, 318, 1309, -2578, 66, -36, -5, 85, 42, 32, 29, 68, 83, 127, 237
330000518, 2143, 4888, -15057, -3640, 318, 1309, -2578, 66, -36, -5, 85, 42, 32, 29, 68, 83, 127, 237
330005600, 2143, 4888, -15057, -3640, 318, 1309, -2578, 66, -36, -5, 85, 42, 32, 29, 68, 83, 127, 237
330006611, 2129, 4886, -15064, -3620, 330, 1332, -2576, 80, -55, 12, 85, 42, 32, 29, 68, 83, 127, 237
330007356, 2129, 4886, -15064, -3620, 330, 1332, -2576, 80, -55, 12, 91, 48, 35, 31, 66, 72, 124, 244
330008172, 2129, 4886, -15064, -3620, 330, 1332, -2576, 80, -55, 12, 91, 48, 35, 31, 66, 72, 124, 244
330013173, 2129, 4886, -15064, -3620, 330, 1332, -2576, 80, -55, 12, 91, 48, 35, 31, 66, 72, 124, 244
330014021, 2129, 4886, -15064, -3620, 330, 1332, -2576, 80, -55, 12, 91, 48, 35, 31, 66, 72, 124, 244
330014799, 2129, 4886, -15064, -3620, 330, 1332, -2576, 80, -55, 12, 91, 48, 35, 31, 66, 72, 124, 244
330015663, 2129, 4886, -15064, -3620, 330, 1332, -2576, 80, -55, 12, 91, 48, 35, 31, 66, 72, 124, 244
330020598, 2129, 4886, -15064, -3620, 330, 1332, -2576, 80, -55, 12, 91, 48, 35, 31, 66, 72, 124, 244
330021417, 2129, 4886, -15064, -3620, 330, 1332, -2576, 80, -55, 12, 91, 48, 35, 31, 66, 72, 124, 244
330022199, 2129, 4886, -15064, -3620, 330, 1332, -2576, 80, -55, 12, 91, 48, 35, 31, 66, 72, 124, 244
330023064, 2129, 4886, -15064, -3620, 330, 1332, -2576, 80, -55, 12, 91, 48, 35, 31, 66, 72, 124, 244
330028077, 2129, 4886, -15064, -3620, 330, 1332, -2576, 80, -55, 12, 91, 48, 35, 31, 66, 72, 124, 244
330029065, 2117, 4882, -15071, -3606, 333, 1357, -2593, 64, -55, 17, 91, 48, 35, 31, 66, 72, 124, 244
330029824, 2117, 4882, -15071, -3606, 333, 1357, -2593, 64, -55, 17, 88, 48, 34, 34, 68, 124, 123, 237
330030689, 2117, 4882, -15071, -3606, 333, 1357, -2593, 64, -55, 17, 88, 48, 34, 34, 68, 124, 123, 237
330035631, 2117, 4882, -15071, -3606, 333, 1357, -2593, 64, -55, 17, 88, 48, 34, 34, 68, 124, 123, 237
330036478, 2117, 4882, -15071, -3606, 333, 1357, -2593, 64, -55, 17, 88, 48, 34, 34, 68, 124, 123, 237
330037280, 2117, 4882, -15071, -3606, 333, 1357, -2593, 64, -55, 17, 88, 48, 34, 34, 68, 124, 123, 237
330038113, 2117, 4882, -15071, -3606, 333, 1357, -2593, 64, -55, 17, 88, 48, 34, 34, 68, 124, 123, 237
330043051, 2117, 4882, -15071, -3606, 333, 1357, -2593, 64, -55, 17, 88, 48, 34, 34, 68, 124, 123, 237
330043864, 2117, 4882, -15071, -3606, 333, 1357, -2593, 64, -55, 17, 88, 48, 34, 34, 68, 124, 123, 237
330044650, 2117, 4882, -15071, -3606, 333, 1357, -2593, 64, -55, 17, 88, 48, 34, 34, 68, 124, 123, 237
330045476, 2117, 4882, -15071, -3606, 333, 1357, -2593, 64, -55, 17, 88, 48, 34, 34, 68, 124, 123, 237
330050617, 2117, 4882, -15071, -3606, 333, 1357, -2593, 64, -55, 17, 88, 48, 34, 34, 68, 124, 123, 237
330051541, 2107, 4877, -15076, -3595, 322, 1339, -2569, 38, -48, 20, 88, 48, 34, 34, 68, 124, 123, 237
330052292, 2107, 4877, -15076, -3595, 322, 1339, -2569, 38, -48, 20, 88, 53, 44, 39, 77, 207, 136, 208
330053127, 2107, 4877, -15076, -3595, 322, 1339, -2569, 38, -48, 20, 88, 48, 34, 34, 68, 124, 123, 237
330058126, 2107, 4877, -15076, -3595, 322, 1339, -2569, 38, -48, 20, 88, 53, 44, 39, 77, 207, 136, 208
330058939, 2107, 4877, -15076, -3595, 322, 1339, -2569, 38, -48, 20, 88, 53, 44, 39, 77, 207, 136, 208
330059750, 2107, 4877, -15076, -3595, 322, 1339, -2569, 38, -48, 20, 88, 53, 44, 39, 77, 207, 136, 208
330060573, 2107, 4877, -15076, -3595, 322, 1339, -2569, 38, -48, 20, 88, 53, 44, 39, 77, 207, 136, 208
330065518, 2107, 4877, -15076, -3595, 322, 1339, -2569, 38, -48, 20, 88, 53, 44, 39, 77, 207, 136, 208
330066339, 2107, 4877, -15076, -3595, 322, 1339, -2569, 38, -48, 20, 88, 53, 44, 39, 77, 207, 136, 208
330067122, 2107, 4877, -15076, -3595, 322, 1339, -2569, 38, -48, 20, 88, 53, 44, 39, 77, 207, 136, 208
330067948, 2107, 4877, -15076, -3595, 322, 1339, -2569, 38, -48, 20, 88, 53, 44, 39, 77, 207, 136, 208
330073098, 2107, 4877, -15076, -3595, 322, 1339, -2569, 38, -48, 20, 88, 53, 44, 39, 77, 207, 136, 208
330074039, 2094, 4876, -15079, -3593, 300, 1272, -2493, -15, -70, -7, 88, 53, 44, 39, 77, 207, 136, 208
330074843, 2094, 4876, -15079, -3593, 300, 1272, -2493, -15, -70, -7, 118, 66, 58, 61, 108, 327, 178, 234
330075671, 2094, 4876, -15079, -3593, 300, 1272, -2493, -15, -70, -7, 118, 66, 58, 61, 108, 327, 178, 234
330080701, 2094, 4876, -15079, -3593, 300, 1272, -2493, -15, -70, -7, 118, 66, 58, 61, 108, 327, 178, 234
330081486, 2094, 4876, -15079, -3593, 300, 1272, -2493, -15, -70, -7, 118, 66, 58, 61, 108, 327, 178, 234
330082300, 2094, 4876, -15079, -3593, 300, 1272, -2493, -15, -70, -7, 118, 66, 58, 61, 108, 327, 178, 234
330083153, 2094, 4876, -15079, -3593, 300, 1272, -2493, -15, -70, -7, 118, 66, 58, 61, 108, 327, 178, 234
330088080, 2094, 4876, -15079, -3593, 300, 1272, -2493, -15, -70, -7, 118, 66, 58, 61, 108, 327, 178, 234
330088911, 2094, 4876, -15079, -3593, 300, 1272, -2493, -15, -70, -7, 118, 66, 58, 61, 108, 327, 178, 234
330089742, 2094, 4876, -15079, -3593, 300, 1272, -2493, -15, -70, -7, 118, 66, 58, 61, 108, 327, 178, 234
330090536, 2094, 4876, -15079, -3593, 300, 1272, -2493, -15, -70, -7, 118, 66, 58, 61, 108, 327, 178, 234
330095625, 2094, 4876, -15079, -3593, 300, 1272, -2493, -15, -70, -7, 118, 66, 58, 61, 108, 327, 178, 234
330096551, 2053, 4868, -15092, -3575, 284, 1257, -2531, 109, -195, 16, 118, 66, 58, 61, 108, 327, 178, 234
330097346, 2053, 4868, -15092, -3575, 284, 1257, -2531, 109, -195, 16, 135, 83, 89, 112, 236, 597, 303, 292
330098153, 2053, 4868, -15092, -3575, 284, 1257, -2531, 109, -195, 16, 135, 83, 89, 112, 236, 597, 303, 292
330103151, 2053, 4868, -15092, -3575, 284, 1257, -2531, 109, -195, 16, 135, 83, 89, 112, 236, 597, 303, 292
330103941, 2053, 4868, -15092, -3575, 284, 1257, -2531, 109, -195, 16, 135, 83, 89, 112, 236, 597, 303, 292
330104752, 2053, 4868, -15092, -3575, 284, 1257, -2531, 109, -195, 16, 135, 83, 89, 112, 236, 597, 303, 292
330105573, 2053, 4868, -15092, -3575, 284, 1257, -2531, 109, -195, 16, 135, 83, 89, 112, 236, 597, 303, 292
330110592, 2053, 4868, -15092, -3575, 284, 1257, -2531, 109, -195, 16, 135, 83, 89, 112, 236, 597, 303, 292
330111361, 2053, 4868, -15092, -3575, 284, 1257, -2531, 109, -195, 16, 135, 83, 89, 112, 236, 597, 303, 292
330112172, 2053, 4868, -15092, -3575, 284, 1257, -2531, 109, -195, 16, 135, 83, 89, 112, 236, 597, 303, 292
330112979, 2053, 4868, -15092, -3575, 284, 1257, -2531, 109, -195, 16, 135, 83, 89, 112, 236, 597, 303, 292
330118083, 2053, 4868, -15092, -3575, 284, 1257, -2531, 109, -195, 16, 135, 83, 89, 112, 236, 597, 303, 292
330119044, 1985, 4865, -15115, -3518, 260, 1163, -2533, 344, -272, 4, 135, 83, 89, 112, 236, 597, 303, 292
330119828, 1985, 4865, -15115, -3518, 260, 1163, -2533, 344, -272, 4, 172, 105, 116, 156, 355, 719, 450, 356
330120624, 1985, 4865, -15115, -3518, 260, 1163, -2533, 344, -272, 4, 172, 105, 116, 156, 355, 719, 450, 356
330125665, 1985, 4865, -15115, -3518, 260, 1163, -2533, 344, -272, 4, 172, 105, 116, 156, 355, 719, 450, 356
330126449, 1985, 4865, -15115, -3518, 260, 1163, -2533, 344, -272, 4, 172, 105, 116, 156, 355, 719, 450, 356
330127289, 1985, 4865, -15115, -3518, 260, 1163, -2533, 344, -272, 4, 172, 105, 116, 156, 355, 719, 450, 356
330128079, 1985, 4865, -15115, -3518, 260, 1163, -2533, 344, -272, 4, 172, 105, 116, 156, 355, 719, 450, 356
330133077, 1985, 4865, -15115, -3518, 260, 1163, -2533, 344, -272, 4, 172, 105, 116, 156, 355, 719, 450, 356
330133923, 1985, 4865, -15115, -3518, 260, 1163, -2533, 344, -272, 4, 172, 105, 116, 156, 355, 719, 450, 356
330134724, 1985, 4865, -15115, -3518, 260, 1163, -2533, 344, -272, 4, 172, 105, 116, 156, 355, 719, 450, 356
330135600, 1985, 4865, -15115, -3518, 260, 1163, -2533, 344, -272, 4, 172, 105, 116, 156, 355, 719, 450, 356
330140601, 1985, 4865, -15115, -3518, 260, 1163, -2533, 344, -272, 4, 172, 105, 116, 156, 355, 719, 450, 356
330141601, 1896, 4871, -15136, -3468, 254, 1100, -2424, 355, -386, -81, 172, 105, 116, 156, 355, 719, 450, 356
330142319, 1896, 4871, -15136, -3468, 254, 1100, -2424, 355, -386, -81, 208, 133, 150, 227, 547, 898, 633, 375
330143171, 1896, 4871, -15136, -3468, 254, 1100, -2424, 355, -386, -81, 208, 133, 150, 227, 547, 898, 633, 375
330148188, 1896, 4871, -15136, -3468, 254, 1100, -2424, 355, -386, -81, 208, 133, 150, 227, 547, 898, 633, 375
330148974, 1896, 4871, -15136, -3468, 254, 1100, -2424, 355, -386, -81, 208, 133, 150, 227, 547, 898, 633, 375
330149840, 1896, 4871, -15136, -3468, 254, 1100, -2424, 355, -386, -81, 208, 133, 150, 227, 547, 898, 633, 375
330150600, 1896, 4871, -15136, -3468, 254, 1100, -2424, 355, -386, -81, 208, 133, 150, 227, 547, 898, 633, 375
330155601, 1896, 4871, -15136, -3468, 254, 1100, -2424, 355, -386, -81, 208, 133, 150, 227, 547, 898, 633, 375
330156381, 1896, 4871, -15136, -3468, 254, 1100, -2424, 355, -386, -81, 208, 133, 150, 227, 547, 898, 633, 375
330157173, 1896, 4871, -15136, -3468, 254, 1100, -2424, 355, -386, -81, 208, 133, 150, 227, 547, 898, 633, 375
330157998, 1896, 4871, -15136, -3468, 254, 1100, -2424, 355, -386, -81, 208, 133, 150, 227, 547, 898, 633, 375
330163115, 1896, 4871, -15136, -3468, 254, 1100, -2424, 355, -386, -81, 208, 133, 150, 227, 547, 898, 633, 375
330164001, 1753, 4877, -15169, -3392, 189, 1109, -2404, 624, -624, -98, 208, 133, 150, 227, 547, 898, 633, 375
330164852, 1753, 4877, -15169, -3392, 189, 1109, -2404, 624, -624, -98, 315, 193, 215, 306, 707, 1114, 725, 422
330165646, 1753, 4877, -15169, -3392, 189, 1109, -2404, 624, -624, -98, 315, 193, 215, 306, 707, 1114, 725, 422
330170676, 1753, 4877, -15169, -3392, 189, 1109, -2404, 624, -624, -98, 315, 193, 215, 306, 707, 1114, 725, 422
330171460, 1753, 4877, -15169, -3392, 189, 1109, -2404, 624, -624, -98, 315, 193, 215, 306, 707, 1114, 725, 422
330172308, 1753, 4877, -15169, -3392, 189, 1109, -2404, 624, -624, -98, 315, 193, 215, 306, 707, 1114, 725, 422
330173073, 1753, 4877, -15169, -3392, 189, 1109, -2404, 624, -624, -98, 315, 193, 215, 306, 707, 1114, 725, 422
330178050, 1753, 4877, -15169, -3392, 189, 1109, -2404, 624, -624, -98, 315, 193, 215, 306, 707, 1114, 725, 422
330178849, 1753, 4877, -15169, -3392, 189, 1109, -2404, 624, -624, -98, 315, 193, 215, 306, 707, 1114, 725, 422
330179675, 1753, 4877, -15169, -3392, 189, 1109, -2404, 624, -624, -98, 315, 193, 215, 306, 707, 1114, 725, 422
330180477, 1753, 4877, -15169, -3392, 189, 1109, -2404, 624, -624, -98, 315, 193, 215, 306, 707, 1114, 725, 422
330185600, 1753, 4877, -15169, -3392, 189, 1109, -2404, 624, -624, -98, 315, 193, 215, 306, 707, 1114, 725, 422
330186623, 1598, 4881, -15192, -3356, 256, 1372, -2319, 596, -805, -155, 315, 193, 215, 306, 707, 1114, 725, 422
330187303, 1598, 4881, -15192, -3356, 256, 1372, -2319, 596, -805, -155, 365, 241, 261, 362, 817, 1232, 917, 474
330188216, 1598, 4881, -15192, -3356, 256, 1372, -2319, 596, -805, -155, 365, 241, 261, 362, 817, 1232, 917, 474
330193176, 1598, 4881, -15192, -3356, 256, 1372, -2319, 596, -805, -155, 365, 241, 261, 362, 817, 1232, 917, 474
330194038, 1598, 4881, -15192, -3356, 256, 1372, -2319, 596, -805, -155, 365, 241, 261, 362, 817, 1232, 917, 474
330194799, 1598, 4881, -15192, -3356, 256, 1372, -2319, 596, -805, -155, 365, 241, 261, 362, 817, 1232, 917, 474
330195664, 1598, 4881, -15192, -3356, 256, 1372, -2319, 596, -805, -155, 365, 241, 261, 362, 817, 1232, 917, 474
330200621, 1598, 4881, -15192, -3356, 256, 1372, -2319, 596, -805, -155, 365, 241, 261, 362, 817, 1232, 917, 474
330201405, 1598, 4881, -15192, -3356, 256, 1372, -2319, 596, -805, -155, 365, 241, 261, 362, 817, 1232, 917, 474
330202198, 1598, 4881, -15192, -3356, 256, 1372, -2319, 596, -805, -155, 365, 241, 261, 362, 817, 1232, 917, 474
330203027, 1598, 4881, -15192, -3356, 256, 1372, -2319, 596, -805, -155, 365, 241, 261, 362, 817, 1232, 917, 474
330208090, 1598, 4881, -15192, -3356, 256, 1372, -2319, 596, -805, -155, 365, 241, 261, 362, 817, 1232, 917, 474
330209026, 1506, 4870, -15226, -3259, 556, 1480, -2772, 778, -544, -29, 365, 241, 261, 362, 817, 1232, 917, 474
330209851, 1506, 4870, -15226, -3259, 556, 1480, -2772, 778, -544, -29, 378, 267, 305, 427, 897, 1245, 957, 449
330210649, 1506, 4870, -15226, -3259, 556, 1480, -2772, 778, -544, -29, 378, 267, 305, 427, 897, 1245, 957, 449
330215667, 1506, 4870, -15226, -3259, 556, 1480, -2772, 778, -544, -29, 378, 267, 305, 427, 897, 1245, 957, 449
330216503, 1506, 4870, -15226, -3259, 556, 1480, -2772, 778, -544, -29, 378, 267, 305, 427, 897, 1245, 957, 449
330217280, 1506, 4870, -15226, -3259, 556, 1480, -2772, 778, -544, -29, 378, 267, 305, 427, 897, 1245, 957, 449
330218140, 1506, 4870, -15226, -3259, 556, 1480, -2772, 778, -544, -29, 378, 267, 305, 427, 897, 1245, 957, 449
330223050, 1506, 4870, -15226, -3259, 556, 1480, -2772, 778, -544, -29, 378, 267, 305, 427, 897, 1245, 957, 449
330223893, 1506, 4870, -15226, -3259, 556, 1480, -2772, 778, -544, -29, 378, 267, 305, 427, 897, 1245, 957, 449
330224674, 1506, 4870, -15226, -3259, 556, 1480, -2772, 778, -544, -29, 378, 267, 305, 427, 897, 1245, 957, 449
330225542, 1506, 4870, -15226, -3259, 556, 1480, -2772, 778, -544, -29, 378, 267, 305, 427, 897, 1245, 957, 449
330230599, 1506, 4870, -15226, -3259, 556, 1480, -2772, 778, -544, -29, 378, 267, 305, 427, 897, 1245, 957, 449
330231530, 1543, 4874, -15239, -3177, 355, 1352, -3268, 305, 255, 46, 378, 267, 305, 427, 897, 1245, 957, 449
330232298, 1543, 4874, -15239, -3177, 355, 1352, -3268, 305, 255, 46, 370, 264, 308, 433, 879, 1265, 949, 410
330233152, 1543, 4874, -15239, -3177, 355, 1352, -3268, 305, 255, 46, 370, 264, 308, 433, 879, 1265, 949, 410
330238149, 1543, 4874, -15239, -3177, 355, 1352, -3268, 305, 255, 46, 370, 264, 308, 433, 879, 1265, 949, 410
330238971, 1543, 4874, -15239, -3177, 355, 1352, -3268, 305, 255, 46, 370, 264, 308, 433, 879, 1265, 949, 410
330239748, 1543, 4874, -15239, -3177, 355, 1352, -3268, 305, 255, 46, 370, 264, 308, 433, 879, 1265, 949, 410
330240640, 1543, 4874, -15239, -3177, 355, 1352, -3268, 305, 255, 46, 370, 264, 308, 433, 879, 1265, 949, 410
330245526, 1543, 4874, -15239, -3177, 355, 1352, -3268, 305, 255, 46, 370, 264, 308, 433, 879, 1265, 949, 410
330246351, 1543, 4874, -15239, -3177, 355, 1352, -3268, 305, 255, 46, 370, 264, 308, 433, 879, 1265, 949, 410
330247150, 1543, 4874, -15239, -3177, 355, 1352, -3268, 305, 255, 46, 370, 264, 308, 433, 879, 1265, 949, 410
330247965, 1543, 4874, -15239, -3177, 355, 1352, -3268, 305, 255, 46, 370, 264, 308, 433, 879, 1265, 949, 410
330253097, 1543, 4874, -15239, -3177, 355, 1352, -3268, 305, 255, 46, 370, 264, 308, 433, 879, 1265, 949, 410
330254053, 1667, 4880, -15203, -3277, 422, 2189, -3252, -445, 413, -28, 370, 264, 308, 433, 879, 1265, 949, 410
330254848, 1667, 4880, -15203, -3277, 422, 2189, -3252, -445, 413, -28, 355, 253, 298, 412, 790, 1254, 872, 388
330255688, 1667, 4880, -15203, -3277, 422, 2189, -3252, -445, 413, -28, 355, 253, 298, 412, 790, 1254, 872, 388
330260673, 1667, 4880, -15203, -3277, 422, 2189, -3252, -445, 413, -28, 355, 253, 298, 412, 790, 1254, 872, 388
330261518, 1667, 4880, -15203, -3277, 422, 2189, -3252, -445, 413, -28, 355, 253, 298, 412, 790, 1254, 872, 388
330262305, 1667, 4880, -15203, -3277, 422, 2189, -3252, -445, 413, -28, 355, 253, 298, 412, 790, 1254, 872, 388
330263152, 1667, 4880, -15203, -3277, 422, 2189, -3252, -445, 413, -28, 355, 253, 298, 412, 790, 1254, 872, 388
330268049, 1667, 4880, -15203, -3277, 422, 2189, -3252, -445, 413, -28, 355, 253, 298, 412, 790, 1254, 872, 388
330268913, 1667, 4880, -15203, -3277, 422, 2189, -3252, -445, 413, -28, 355, 253, 298, 412, 790, 1254, 872, 388
330269721, 1667, 4880, -15203, -3277, 422, 2189, -3252, -445, 413, -28, 355, 253, 298, 412, 790, 1254, 872, 388
330270529, 1667, 4880, -15203, -3277, 422, 2189, -3252, -445, 413, -28, 355, 253, 298, 412, 790, 1254, 872, 388
330275599, 1667, 4880, -15203, -3277, 422, 2189, -3252, -445, 413, -28, 355, 253, 298, 412, 790, 1254, 872, 388
330276544, 1794, 4847, -15133, -3568, 311, 1350, -2364, -1809, 167, 24, 355, 253, 298, 412, 790, 1254, 872, 388
330277346, 1794, 4847, -15133, -3568, 311, 1350, -2364, -1809, 167, 24, 278, 221, 270, 392, 707, 1115, 862, 328
330278171, 1794, 4847, -15133, -3568, 311, 1350, -2364, -1809, 167, 24, 278, 221, 270, 392, 707, 1115, 862, 328
330283151, 1794, 4847, -15133, -3568, 311, 1350, -2364, -1809, 167, 24, 278, 221, 270, 392, 707, 1115, 862, 328
330283989, 1794, 4847, -15133, -3568, 311, 1350, -2364, -1809, 167, 24, 278, 221, 270, 392, 707, 1115, 862, 328
330284796, 1794, 4847, -15133, -3568, 311, 1350, -2364, -1809, 167, 24, 278, 221, 270, 392, 707, 1115, 862, 328
330285639, 1794, 4847, -15133, -3568, 311, 1350, -2364, -1809, 167, 24, 278, 221, 270, 392, 707, 1115, 862, 328
330290621, 1794, 4847, -15133, -3568, 311, 1350, -2364, -1809, 167, 24, 278, 221, 270, 392, 707, 1115, 862, 328
330291375, 1794, 4847, -15133, -3568, 311, 1350, -2364, -1809, 167, 24, 278, 221, 270, 392, 707, 1115, 862, 328
330292172, 1794, 4847, -15133, -3568, 311, 1350, -2364, -1809, 167, 24, 278, 221, 270, 392, 707, 1115, 862, 328
330293014, 1794, 4847, -15133, -3568, 311, 1350, -2364, -1809, 167, 24, 278, 221, 270, 392, 707, 1115, 862, 328
330298039, 1794, 4847, -15133, -3568, 311, 1350, -2364, -1809, 167, 24, 278, 221, 270, 392, 707, 1115, 862, 328
330298959, 1854, 4795, -15094, -3767, -51, 667, -2240, -1494, 51, 192, 278, 221, 270, 392, 707, 1115, 862, 328
330299774, 1854, 4795, -15094, -3767, -51, 667, -2240, -1494, 51, 192, 198, 173, 243, 360, 626, 1073, 690, 224
330300599, 1854, 4795, -15094, -3767, -51, 667, -2240, -1494, 51, 192, 198, 173, 243, 360, 626, 1073, 690, 224
330305598, 1854, 4795, -15094, -3767, -51, 667, -2240, -1494, 51, 192, 198, 173, 243, 360, 626, 1073, 690, 224
330306420, 1854, 4795, -15094, -3767, -51, 667, -2240, -1494, 51, 192, 198, 173, 243, 360, 626, 1073, 690, 224
330307265, 1854, 4795, -15094, -3767, -51, 667, -2240, -1494, 51, 192, 198, 173, 243, 360, 626, 1073, 690, 224
330308075, 1854, 4795, -15094, -3767, -51, 667, -2240, -1494, 51, 192, 198, 173, 243, 360, 626, 1073, 690, 224
330313077, 1854, 4795, -15094, -3767, -51, 667, -2240, -1494, 51, 192, 198, 173, 243, 360, 626, 1073, 690, 224
330313901, 1854, 4795, -15094, -3767, -51, 667, -2240, -1494, 51, 192, 198, 173, 243, 360, 626, 1073, 690, 224
330314690, 1854, 4795, -15094, -3767, -51, 667, -2240, -1494, 51, 192, 198, 173, 243, 360, 626, 1073, 690, 224
330315575, 1854, 4795, -15094, -3767, -51, 667, -2240, -1494, 51, 192, 198, 173, 243, 360, 626, 1073, 690, 224
330320597, 1854, 4795, -15094, -3767, -51, 667, -2240, -1494, 51, 192, 198, 173, 243, 360, 626, 1073, 690, 224
330321627, 1881, 4791, -15081, -3809, 200, 747, -2209, -527, 71, -12, 198, 173, 243, 360, 626, 1073, 690, 224
330322279, 1881, 4791, -15081, -3809, 200, 747, -2209, -527, 71, -12, 222, 132, 179, 271, 479, 1017, 721, 234
330323141, 1881, 4791, -15081, -3809, 200, 747, -2209, -527, 71, -12, 222, 132, 179, 271, 479, 1017, 721, 234
330328141, 1881, 4791, -15081, -3809, 200, 747, -2209, -527, 71, -12, 222, 132, 179, 271, 479, 1017, 721, 234
330328968, 1881, 4791, -15081, -3809, 200, 747, -2209, -527, 71, -12, 222, 132, 179, 271, 479, 1017, 721, 234
330329793, 1881, 4791, -15081, -3809, 200, 747, -2209, -527, 71, -12, 222, 132, 179, 271, 479, 1017, 721, 234
330330644, 1881, 4791, -15081, -3809, 200, 747, -2209, -527, 71, -12, 222, 132, 179, 271, 479, 1017, 721, 234
330335655, 1881, 4791, -15081, -3809, 200, 747, -2209, -527, 71, -12, 222, 132, 179, 271, 479, 1017, 721, 234
330336385, 1881, 4791, -15081, -3809, 200, 747, -2209, -527, 71, -12, 222, 132, 179, 271, 479, 1017, 721, 234
330337175, 1881, 4791, -15081, -3809, 200, 747, -2209, -527, 71, -12, 222, 132, 179, 271, 479, 1017, 721, 234
330338017, 1881, 4791, -15081, -3809, 200, 747, -2209, -527, 71, -12, 222, 132, 179, 271, 479, 1017, 721, 234
330343077, 1881, 4791, -15081, -3809, 200, 747, -2209, -527, 71, -12, 222, 132, 179, 271, 479, 1017, 721, 234
330344011, 1900, 4760, -15122, -3676, 404, 1208, -2422, 627, 168, 283, 222, 132, 179, 271, 479, 1017, 721, 234
330344827, 1900, 4760, -15122, -3676, 404, 1208, -2422, 627, 168, 283, 390, 156, 166, 252, 468, 1023, 731, 319
330345623, 1900, 4760, -15122, -3676, 404, 1208, -2422, 627, 168, 283, 390, 156, 166, 252, 468, 1023, 731, 319
330350662, 1900, 4760, -15122, -3676, 404, 1208, -2422, 627, 168, 283, 390, 156, 166, 252, 468, 1023, 731, 319
330351453, 1900, 4760, -15122, -3676, 404, 1208, -2422, 627, 168, 283, 390, 156, 166, 252, 468, 1023, 731, 319
330352272, 1900, 4760, -15122, -3676, 404, 1208, -2422, 627, 168, 283, 390, 156, 166, 252, 468, 1023, 731, 319
330353075, 1900, 4760, -15122, -3676, 404, 1208, -2422, 627, 168, 283, 390, 156, 166, 252, 468, 1023, 731, 319
330358065, 1900, 4760, -15122, -3676, 404, 1208, -2422, 627, 168, 283, 390, 156, 166, 252, 468, 1023, 731, 319
330358850, 1900, 4760, -15122, -3676, 404, 1208, -2422, 627, 168, 283, 390, 156, 166, 252, 468, 1023, 731, 319
330359690, 1900, 4760, -15122, -3676, 404, 1208, -2422, 627, 168, 283, 390, 156, 166, 252, 468, 1023, 731, 319
330360499, 1900, 4760, -15122, -3676, 404, 1208, -2422, 627, 168, 283, 390, 156, 166, 252, 468, 1023, 731, 319
330365628, 1900, 4760, -15122, -3676, 404, 1208, -2422, 627, 168, 283, 390, 156, 166, 252, 468, 1023, 731, 319
330366480, 1893, 4761, -15142, -3593, 284, 1351, -2312, 518, 55, 59, 390, 156, 166, 252, 468, 1023, 731, 319
330367314, 1893, 4761, -15142, -3593, 284, 1351, -2312, 518, 55, 59, 411, 157, 164, 245, 461, 992, 781, 327
330368099, 1893, 4761, -15142, -3593, 284, 1351, -2312, 518, 55, 59, 411, 157, 164, 245, 461, 992, 781, 327
330373150, 1893, 4761, -15142, -3593, 284, 1351, -2312, 518, 55, 59, 411, 157, 164, 245, 461, 992, 781, 327
330373924, 1893, 4761, -15142, -3593, 284, 1351, -2312, 518, 55, 59, 411, 157, 164, 245, 461, 992, 781, 327
330374790, 1893, 4761, -15142, -3593, 284, 1351, -2312, 518, 55, 59, 411, 157, 164, 245, 461, 992, 781, 327
330375599, 1893, 4761, -15142, -3593, 284, 1351, -2312, 518, 55, 59, 411, 157, 164, 245, 461, 992, 781, 327
330380624, 1893, 4761, -15142, -3593, 284, 1351, -2312, 518, 55, 59, 411, 157, 164, 245, 461, 992, 781, 327
330381376, 1893, 4761, -15142, -3593, 284, 1351, -2312, 518, 55, 59, 411, 157, 164, 245, 461, 992, 781, 327
330382239, 1893, 4761, -15142, -3593, 284, 1351, -2312, 518, 55, 59, 411, 157, 164, 245, 461, 992, 781, 327
330383000, 1893, 4761, -15142, -3593, 284, 1351, -2312, 518, 55, 59, 411, 157, 164, 245, 461, 992, 781, 327
330388085, 1893, 4761, -15142, -3593, 284, 1351, -2312, 518, 55, 59, 411, 157, 164, 245, 461, 992, 781, 327
330389026, 1888, 4771, -15137, -3607, 234, 1554, -2468, 43, -31, -63, 411, 157, 164, 245, 461, 992, 781, 327
330389853, 1888, 4771, -15137, -3607, 234, 1554, -2468, 43, -31, -63, 418, 151, 143, 197, 391, 1000, 739, 334
330390649, 1888, 4771, -15137, -3607, 234, 1554, -2468, 43, -31, -63, 418, 151, 143, 197, 391, 1000, 739, 334
330395660, 1888, 4771, -15137, -3607, 234, 1554, -2468, 43, -31, -63, 418, 151, 143, 197, 391, 1000, 739, 334
330396476, 1888, 4771, -15137, -3607, 234, 1554, -2468, 43, -31, -63, 418, 151, 143, 197, 391, 1000, 739, 334
330397309, 1888, 4771, -15137, -3607, 234, 1554, -2468, 43, -31, -63, 418, 151, 143, 197, 391, 1000, 739, 334
330398098, 1888, 4771, -15137, -3607, 234, 1554, -2468, 43, -31, -63, 418, 151, 143, 197, 391, 1000, 739, 334
330403057, 1888, 4771, -15137, -3607, 234, 1554, -2468, 43, -31, -63, 418, 151, 143, 197, 391, 1000, 739, 334
330403849, 1888, 4771, -15137, -3607, 234, 1554, -2468, 43, -31, -63, 418, 151, 143, 197, 391, 1000, 739, 334
330404690, 1888, 4771, -15137, -3607, 234, 1554, -2468, 43, -31, -63, 418, 151, 143, 197, 391, 1000, 739, 334
330405503, 1888, 4771, -15137, -3607, 234, 1554, -2468, 43, -31, -63, 418, 151, 143, 197, 391, 1000, 739, 334
330410688, 1939, 4770, -15115, -3670, 486, 1462, -2598, -426, 66, -66, 418, 151, 143, 197, 391, 1000, 739, 334
330411504, 1939, 4770, -15115, -3670, 486, 1462, -2598, -426, 66, -66, 432, 144, 113, 161, 342, 980, 782, 341
330412339, 1939, 4770, -15115, -3670, 486, 1462, -2598, -426, 66, -66, 432, 144, 113, 161, 342, 980, 782, 341
330413117, 1939, 4770, -15115, -3670, 486, 1462, -2598, -426, 66, -66, 432, 144, 113, 161, 342, 980, 782, 341
330418029, 1939, 4770, -15115, -3670, 486, 1462, -2598, -426, 66, -66, 432, 144, 113, 161, 342, 980, 782, 341
330418824, 1939, 4770, -15115, -3670, 486, 1462, -2598, -426, 66, -66, 432, 144, 113, 161, 342, 980, 782, 341
330419669, 1939, 4770, -15115, -3670, 486, 1462, -2598, -426, 66, -66, 432, 144, 113, 161, 342, 980, 782, 341
330420438, 1939, 4770, -15115, -3670, 486, 1462, -2598, -426, 66, -66, 432, 144, 113, 161, 342, 980, 782, 341
330425600, 1939, 4770, -15115, -3670, 486, 1462, -2598, -426, 66, -66, 432, 144, 113, 161, 342, 980, 782, 341
330426623, 1980, 4770, -15100, -3712, 272, 1145, -2562, -443, 150, -19, 432, 144, 113, 161, 342, 980, 782, 341
330427280, 1980, 4770, -15100, -3712, 272, 1145, -2562, -443, 150, -19, 416, 142, 110, 160, 324, 959, 693, 325
330428151, 1980, 4770, -15100, -3712, 272, 1145, -2562, -443, 150, -19, 416, 142, 110, 160, 324, 959, 693, 325
330433151, 1980, 4770, -15100, -3712, 272, 1145, -2562, -443, 150, -19, 416, 142, 110, 160, 324, 959, 693, 325
330433971, 1980, 4770, -15100, -3712, 272, 1145, -2562, -443, 150, -19, 416, 142, 110, 160, 324, 959, 693, 325
330434794, 1980, 4770, -15100, -3712, 272, 1145, -2562, -443, 150, -19, 416, 142, 110, 160, 324, 959, 693, 325
330435599, 1980, 4770, -15100, -3712, 272, 1145, -2562, -443, 150, -19, 416, 142, 110, 160, 324, 959, 693, 325
330440607, 1980, 4770, -15100, -3712, 272, 1145, -2562, -443, 150, -19, 416, 142, 110, 160, 324, 959, 693, 325
330441390, 1980, 4770, -15100, -3712, 272, 1145, -2562, -443, 150, -19, 416, 142, 110, 160, 324, 959, 693, 325
330442174, 1980, 4770, -15100, -3712, 272, 1145, -2562, -443, 150, -19, 416, 142, 110, 160, 324, 959, 693, 325
330443014, 1980, 4770, -15100, -3712, 272, 1145, -2562, -443, 150, -19, 416, 142, 110, 160, 324, 959, 693, 325
330448062, 1980, 4770, -15100, -3712, 272, 1145, -2562, -443, 150, -19, 416, 142, 110, 160, 324, 959, 693, 325
330449020, 1985, 4779, -15097, -3708, 205, 1110, -2520, -138, 75, -41, 416, 142, 110, 160, 324, 959, 693, 325
330449816, 1985, 4779, -15097, -3708, 205, 1110, -2520, -138, 75, -41, 266, 110, 115, 174, 352, 985, 713, 231
330450662, 1985, 4779, -15097, -3708, 205, 1110, -2520, -138, 75, -41, 266, 110, 115, 174, 352, 985, 713, 231
330455666, 1985, 4779, -15097, -3708, 205, 1110, -2520, -138, 75, -41, 266, 110, 115, 174, 352, 985, 713, 231
330456497, 1985, 4779, -15097, -3708, 205, 1110, -2520, -138, 75, -41, 266, 110, 115, 174, 352, 985, 713, 231
330457297, 1985, 4779, -15097, -3708, 205, 1110, -2520, -138, 75, -41, 266, 110, 115, 174, 352, 985, 713, 231
330458084, 1985, 4779, -15097, -3708, 205, 1110, -2520, -138, 75, -41, 266, 110, 115, 174, 352, 985, 713, 231
330463045, 1985, 4779, -15097, -3708, 205, 1110, -2520, -138, 75, -41, 266, 110, 115, 174, 352, 985, 713, 231
330463878, 1985, 4779, -15097, -3708, 205, 1110, -2520, -138, 75, -41, 266, 110, 115, 174, 352, 985, 713, 231
330464650, 1985, 4779, -15097, -3708, 205, 1110, -2520, -138, 75, -41, 266, 110, 115, 174, 352, 985, 713, 231
330465499, 1985, 4779, -15097, -3708, 205, 1110, -2520, -138, 75, -41, 266, 110, 115, 174, 352, 985, 713, 231
330470627, 1985, 4779, -15097, -3708, 205, 1110, -2520, -138, 75, -41, 266, 110, 115, 174, 352, 985, 713, 231
330471600, 1976, 4795, -15099, -3683, 222, 1227, -2482, 86, 31, -74, 266, 110, 115, 174, 352, 985, 713, 231
330472304, 1976, 4795, -15099, -3683, 222, 1227, -2482, 86, 31, -74, 232, 108, 111, 162, 341, 1025, 721, 217
330473183, 1976, 4795, -15099, -3683, 222, 1227, -2482, 86, 31, -74, 232, 108, 111, 162, 341, 1025, 721, 217
330478202, 1976, 4795, -15099, -3683, 222, 1227, -2482, 86, 31, -74, 232, 108, 111, 162, 341, 1025, 721, 217
330478974, 1976, 4795, -15099, -3683, 222, 1227, -2482, 86, 31, -74, 232, 108, 111, 162, 341, 1025, 721, 217
330479845, 1976, 4795, -15099, -3683, 222, 1227, -2482, 86, 31, -74, 232, 108, 111, 162, 341, 1025, 721, 217
330480628, 1976, 4795, -15099, -3683, 222, 1227, -2482, 86, 31, -74, 232, 108, 111, 162, 341, 1025, 721, 217
330485612, 1976, 4795, -15099, -3683, 222, 1227, -2482, 86, 31, -74, 232, 108, 111, 162, 341, 1025, 721, 217
330486401, 1976, 4795, -15099, -3683, 222, 1227, -2482, 86, 31, -74, 232, 108, 111, 162, 341, 1025, 721, 217
330487210, 1976, 4795, -15099, -3683, 222, 1227, -2482, 86, 31, -74, 232, 108, 111, 162, 341, 1025, 721, 217
330488020, 1976, 4795, -15099, -3683, 222, 1227, -2482, 86, 31, -74, 232, 108, 111, 162, 341, 1025, 721, 217
330493096, 1976, 4795, -15099, -3683, 222, 1227, -2482, 86, 31, -74, 232, 108, 111, 162, 341, 1025, 721, 217
330494001, 1974, 4803, -15106, -3645, 284, 1314, -2538, 172, 45, -17, 232, 108, 111, 162, 341, 1025, 721, 217
330494863, 1974, 4803, -15106, -3645, 284, 1314, -2538, 172, 45, -17, 206, 105, 110, 161, 345, 1018, 806, 218
330495650, 1974, 4803, -15106, -3645, 284, 1314, -2538, 172, 45, -17, 206, 105, 110, 161, 345, 1018, 806, 218
330500661, 1974, 4803, -15106, -3645, 284, 1314, -2538, 172, 45, -17, 206, 105, 110, 161, 345, 1018, 806, 218
330501457, 1974, 4803, -15106, -3645, 284, 1314, -2538, 172, 45, -17, 206, 105, 110, 161, 345, 1018, 806, 218
330502279, 1974, 4803, -15106, -3645, 284, 1314, -2538, 172, 45, -17, 206, 105, 110, 161, 345, 1018, 806, 218
330503128, 1974, 4803, -15106, -3645, 284, 1314, -2538, 172, 45, -17, 206, 105, 110, 161, 345, 1018, 806, 218
330508054, 1974, 4803, -15106, -3645, 284, 1314, -2538, 172, 45, -17, 206, 105, 110, 161, 345, 1018, 806, 218
330508846, 1974, 4803, -15106, -3645, 284, 1314, -2538, 172, 45, -17, 206, 105, 110, 161, 345, 1018, 806, 218
330509672, 1974, 4803, -15106, -3645, 284, 1314, -2538, 172, 45, -17, 206, 105, 110, 161, 345, 1018, 806, 218
330510503, 1974, 4803, -15106, -3645, 284, 1314, -2538, 172, 45, -17, 206, 105, 110, 161, 345, 1018, 806, 218
330515598, 1974, 4803, -15106, -3645, 284, 1314, -2538, 172, 45, -17, 206, 105, 110, 161, 345, 1018, 806, 218
330516508, 1970, 4809, -15112, -3615, 286, 1312, -2556, 132, 26, -17, 206, 105, 110, 161, 345, 1018, 806, 218
330517306, 1970, 4809, -15112, -3615, 286, 1312, -2556, 132, 26, -17, 176, 103, 136, 205, 413, 960, 759, 204
330518164, 1970, 4809, -15112, -3615, 286, 1312, -2556, 132, 26, -17, 176, 103, 136, 205, 413, 960, 759, 204
330523146, 1970, 4809, -15112, -3615, 286, 1312, -2556, 132, 26, -17, 176, 103, 136, 205, 413, 960, 759, 204
330523991, 1970, 4809, -15112, -3615, 286, 1312, -2556, 132, 26, -17, 176, 103, 136, 205, 413, 960, 759, 204
330524771, 1970, 4809, -15112, -3615, 286, 1312, -2556, 132, 26, -17, 176, 103, 136, 205, 413, 960, 759, 204
330525640, 1970, 4809, -15112, -3615, 286, 1312, -2556, 132, 26, -17, 176, 103, 136, 205, 413, 960, 759, 204
330530526, 1970, 4809, -15112, -3615, 286, 1312, -2556, 132, 26, -17, 176, 103, 136, 205, 413, 960, 759, 204
330531326, 1970, 4809, -15112, -3615, 286, 1312, -2556, 132, 26, -17, 176, 103, 136, 205, 413, 960, 759, 204
330532148, 1970, 4809, -15112, -3615, 286, 1312, -2556, 132, 26, -17, 176, 103, 136, 205, 413, 960, 759, 204
330532973, 1970, 4809, -15112, -3615, 286, 1312, -2556, 132, 26, -17, 176, 103, 136, 205, 413, 960, 759, 204
330538125, 1970, 4809, -15112, -3615, 286, 1312, -2556, 132, 26, -17, 176, 103, 136, 205, 413, 960, 759, 204
330539055, 1960, 4821, -15115, -3590, 281, 1313, -2507, 131, -7, -59, 176, 103, 136, 205, 413, 960, 759, 204
330539848, 1960, 4821, -15115, -3590, 281, 1313, -2507, 131, -7, -59, 153, 107, 162, 244, 460, 923, 741, 205
330540675, 1960, 4821, -15115, -3590, 281, 1313, -2507, 131, -7, -59, 153, 107, 162, 244, 460, 923, 741, 205
330545703, 1960, 4821, -15115, -3590, 281, 1313, -2507, 131, -7, -59, 153, 107, 162, 244, 460, 923, 741, 205
330546476, 1960, 4821, -15115, -3590, 281, 1313, -2507, 131, -7, -59, 153, 107, 162, 244, 460, 923, 741, 205
330547322, 1960, 4821, -15115, -3590, 281, 1313, -2507, 131, -7, -59, 153, 107, 162, 244, 460, 923, 741, 205
330548100, 1960, 4821, -15115, -3590, 281, 1313, -2507, 131, -7, -59, 153, 107, 162, 244, 460, 923, 741, 205
330553072, 1960, 4821, -15115, -3590, 281, 1313, -2507, 131, -7, -59, 153, 107, 162, 244, 460, 923, 741, 205
330553873, 1960, 4821, -15115, -3590, 281, 1313, -2507, 131, -7, -59, 153, 107, 162, 244, 460, 923, 741, 205
330554716, 1960, 4821, -15115, -3590, 281, 1313, -2507, 131, -7, -59, 153, 107, 162, 244, 460, 923, 741, 205
330555502, 1960, 4821, -15115, -3590, 281, 1313, -2507, 131, -7, -59, 153, 107, 162, 244, 460, 923, 741, 205
330560641, 1960, 4821, -15115, -3590, 281, 1313, -2507, 131, -7, -59, 153, 107, 162, 244, 460, 923, 741, 205
330561505, 1946, 4831, -15119, -3568, 279, 1302, -2473, 136, -41, -55, 153, 107, 162, 244, 460, 923, 741, 205
330562343, 1946, 4831, -15119, -3568, 279, 1302, -2473, 136, -41, -55, 146, 139, 290, 264, 530, 894, 679, 241
330563134, 1946, 4831, -15119, -3568, 279, 1302, -2473, 136, -41, -55, 146, 139, 290, 264, 530, 894, 679, 241
330568141, 1946, 4831, -15119, -3568, 279, 1302, -2473, 136, -41, -55, 146, 139, 290, 264, 530, 894, 679, 241
330568948, 1946, 4831, -15119, -3568, 279, 1302, -2473, 136, -41, -55, 146, 139, 290, 264, 530, 894, 679, 241
330569816, 1946, 4831, -15119, -3568, 279, 1302, -2473, 136, -41, -55, 146, 139, 290, 264, 530, 894, 679, 241
330570599, 1946, 4831, -15119, -3568, 279, 1302, -2473, 136, -41, -55, 146, 139, 290, 264, 530, 894, 679, 241
330575564, 1946, 4831, -15119, -3568, 279, 1302, -2473, 136, -41, -55, 146, 139, 290, 264, 530, 894, 679, 241
330576349, 1946, 4831, -15119, -3568, 279, 1302, -2473, 136, -41, -55, 146, 139, 290, 264, 530, 894, 679, 241
330577215, 1946, 4831, -15119, -3568, 279, 1302, -2473, 136, -41, -55, 146, 139, 290, 264, 530, 894, 679, 241
330577996, 1946, 4831, -15119, -3568, 279, 1302, -2473, 136, -41, -55, 146, 139, 290, 264, 530, 894, 679, 241
330583119, 1946, 4831, -15119, -3568, 279, 1302, -2473, 136, -41, -55, 146, 139, 290, 264, 530, 894, 679, 241
330584016, 1931, 4838, -15128, -3531, 324, 1248, -2473, 195, -49, -38, 146, 139, 290, 264, 530, 894, 679, 241
330584821, 1931, 4838, -15128, -3531, 324, 1248, -2473, 195, -49, -38, 222, 230, 511, 580, 688, 865, 624, 407
330585610, 1931, 4838, -15128, -3531, 324, 1248, -2473, 195, -49, -38, 222, 230, 511, 580, 688, 865, 624, 407
330590624, 1931, 4838, -15128, -3531, 324, 1248, -2473, 195, -49, -38, 222, 230, 511, 580, 688, 865, 624, 407
330591453, 1931, 4838, -15128, -3531, 324, 1248, -2473, 195, -49, -38, 222, 230, 511, 580, 688, 865, 624, 407
330592248, 1931, 4838, -15128, -3531, 324, 1248, -2473, 195, -49, -38, 222, 230, 511, 580, 688, 865, 624, 407
330593072, 1931, 4838, -15128, -3531, 324, 1248, -2473, 195, -49, -38, 222, 230, 511, 580, 688, 865, 624, 407
330597998, 1931, 4838, -15128, -3531, 324, 1248, -2473, 195, -49, -38, 222, 230, 511, 580, 688, 865, 624, 407
330598863, 1931, 4838, -15128, -3531, 324, 1248, -2473, 195, -49, -38, 222, 230, 511, 580, 688, 865, 624, 407
330599671, 1931, 4838, -15128, -3531, 324, 1248, -2473, 195, -49, -38, 222, 230, 511, 580, 688, 865, 624, 407
330600480, 1931, 4838, -15128, -3531, 324, 1248, -2473, 195, -49, -38, 222, 230, 511, 580, 688, 865, 624, 407
330605599, 1931, 4838, -15128, -3531, 324, 1248, -2473, 195, -49, -38, 222, 230, 511, 580, 688, 865, 624, 407
330606642, 1901, 4846, -15146, -3458, 306, 1266, -2593, 416, -56, -12, 222, 230, 511, 580, 688, 865, 624, 407
330607301, 1901, 4846, -15146, -3458, 306, 1266, -2593, 416, -56, -12, 280, 278, 607, 755, 903, 910, 506, 521
330608165, 1901, 4846, -15146, -3458, 306, 1266, -2593, 416, -56, -12, 280, 278, 607, 755, 903, 910, 506, 521
330613152, 1901, 4846, -15146, -3458, 306, 1266, -2593, 416, -56, -12, 280, 278, 607, 755, 903, 910, 506, 521
330613976, 1901, 4846, -15146, -3458, 306, 1266, -2593, 416, -56, -12, 280, 278, 607, 755, 903, 910, 506, 521
330614776, 1901, 4846, -15146, -3458, 306, 1266, -2593, 416, -56, -12, 280, 278, 607, 755, 903, 910, 506, 521
330615597, 1901, 4846, -15146, -3458, 306, 1266, -2593, 416, -56, -12, 280, 278, 607, 755, 903, 910, 506, 521
330620596, 1901, 4846, -15146, -3458, 306, 1266, -2593, 416, -56, -12, 280, 278, 607, 755, 903, 910, 506, 521
330621373, 1901, 4846, -15146, -3458, 306, 1266, -2593, 416, -56, -12, 280, 278, 607, 755, 903, 910, 506, 521
330622177, 1901, 4846, -15146, -3458, 306, 1266, -2593, 416, -56, -12, 280, 278, 607, 755, 903, 910, 506, 521
330623001, 1901, 4846, -15146, -3458, 306, 1266, -2593, 416, -56, -12, 280, 278, 607, 755, 903, 910, 506, 521
330628067, 1901, 4846, -15146, -3458, 306, 1266, -2593, 416, -56, -12, 280, 278, 607, 755, 903, 910, 506, 521
330629024, 1880, 4848, -15170, -3358, 354, 1313, -2649, 571, -2, 43, 280, 278, 607, 755, 903, 910, 506, 521
330629821, 1880, 4848, -15170, -3358, 354, 1313, -2649, 571, -2, 43, 345, 305, 656, 791, 920, 909, 513, 731
330630624, 1880, 4848, -15170, -3358, 354, 1313, -2649, 571, -2, 43, 345, 305, 656, 791, 920, 909, 513, 731
330635620, 1880, 4848, -15170, -3358, 354, 1313, -2649, 571, -2, 43, 345, 305, 656, 791, 920, 909, 513, 731
330636452, 1880, 4848, -15170, -3358, 354, 1313, -2649, 571, -2, 43, 345, 305, 656, 791, 920, 909, 513, 731
330637277, 1880, 4848, -15170, -3358, 354, 1313, -2649, 571, -2, 43, 345, 305, 656, 791, 920, 909, 513, 731
330638073, 1880, 4848, -15170, -3358, 354, 1313, -2649, 571, -2, 43, 345, 305, 656, 791, 920, 909, 513, 731
330643064, 1880, 4848, -15170, -3358, 354, 1313, -2649, 571, -2, 43, 345, 305, 656, 791, 920, 909, 513, 731
330643849, 1880, 4848, -15170, -3358, 354, 1313, -2649, 571, -2, 43, 345, 305, 656, 791, 920, 909, 513, 731
330644688, 1880, 4848, -15170, -3358, 354, 1313, -2649, 571, -2, 43, 345, 305, 656, 791, 920, 909, 513, 731
330645476, 1880, 4848, -15170, -3358, 354, 1313, -2649, 571, -2, 43, 345, 305, 656, 791, 920, 909, 513, 731
330650567, 1880, 4848, -15170, -3358, 354, 1313, -2649, 571, -2, 43, 345, 305, 656, 791, 920, 909, 513, 731
330651476, 1849, 4855, -15195, -3253, 244, 1342, -2569, 673, 13, 48, 345, 305, 656, 791, 920, 909, 513, 731
330652321, 1849, 4855, -15195, -3253, 244, 1342, -2569, 673, 13, 48, 409, 328, 666, 809, 966, 960, 539, 842
330653099, 1849, 4855, -15195, -3253, 244, 1342, -2569, 673, 13, 48, 409, 328, 666, 809, 966, 960, 539, 842
330658139, 1849, 4855, -15195, -3253, 244, 1342, -2569, 673, 13, 48, 409, 328, 666, 809, 966, 960, 539, 842
330658924, 1849, 4855, -15195, -3253, 244, 1342, -2569, 673, 13, 48, 409, 328, 666, 809, 966, 960, 539, 842
330659789, 1849, 4855, -15195, -3253, 244, 1342, -2569, 673, 13, 48, 409, 328, 666, 809, 966, 960, 539, 842
330660599, 1849, 4855, -15195, -3253, 244, 1342, -2569, 673, 13, 48, 409, 328, 666, 809, 966, 960, 539, 842
330665639, 1849, 4855, -15195, -3253, 244, 1342, -2569, 673, 13, 48, 409, 328, 666, 809, 966, 960, 539, 842
330666378, 1849, 4855, -15195, -3253, 244, 1342, -2569, 673, 13, 48, 409, 328, 666, 809, 966, 960, 539, 842
330667239, 1849, 4855, -15195, -3253, 244, 1342, -2569, 673, 13, 48, 409, 328, 666, 809, 966, 960, 539, 842
330667998, 1849, 4855, -15195, -3253, 244, 1342, -2569, 673, 13, 48, 409, 328, 666, 809, 966, 960, 539, 842
330673115, 1849, 4855, -15195, -3253, 244, 1342, -2569, 673, 13, 48, 409, 328, 666, 809, 966, 960, 539, 842
330674001, 1834, 4853, -15220, -3146, 236, 1384, -2611, 690, 103, 119, 409, 328, 666, 809, 966, 960, 539, 842
330674864, 1834, 4853, -15220, -3146, 236, 1384, -2611, 690, 103, 119, 424, 321, 622, 804, 930, 863, 506, 872
330675671, 1834, 4853, -15220, -3146, 236, 1384, -2611, 690, 103, 119, 424, 321, 622, 804, 930, 863, 506, 872
330680660, 1834, 4853, -15220, -3146, 236, 1384, -2611, 690, 103, 119, 424, 321, 622, 804, 930, 863, 506, 872
330681452, 1834, 4853, -15220, -3146, 236, 1384, -2611, 690, 103, 119, 424, 321, 622, 804, 930, 863, 506, 872
330682321, 1834, 4853, -15220, -3146, 236, 1384, -2611, 690, 103, 119, 424, 321, 622, 804, 930, 863, 506, 872
330683099, 1834, 4853, -15220, -3146, 236, 1384, -2611, 690, 103, 119, 424, 321, 622, 804, 930, 863, 506, 872
330688090, 1834, 4853, -15220, -3146, 236, 1384, -2611, 690, 103, 119, 424, 321, 622, 804, 930, 863, 506, 872
330688871, 1834, 4853, -15220, -3146, 236, 1384, -2611, 690, 103, 119, 424, 321, 622, 804, 930, 863, 506, 872
330689702, 1834, 4853, -15220, -3146, 236, 1384, -2611, 690, 103, 119, 424, 321, 622, 804, 930, 863, 506, 872
330690478, 1834, 4853, -15220, -3146, 236, 1384, -2611, 690, 103, 119, 424, 321, 622, 804, 930, 863, 506, 872
330695625, 1834, 4853, -15220, -3146, 236, 1384, -2611, 690, 103, 119, 424, 321, 622, 804, 930, 863, 506, 872
330696600, 1912, 4852, -15228, -3057, 580, 1510, -3001, 408, 430, 110, 424, 321, 622, 804, 930, 863, 506, 872
330697344, 1912, 4852, -15228, -3057, 580, 1510, -3001, 408, 430, 110, 387, 261, 457, 615, 833, 724, 428, 812
330698149, 1912, 4852, -15228, -3057, 580, 1510, -3001, 408, 430, 110, 387, 261, 457, 615, 833, 724, 428, 812
330703125, 1912, 4852, -15228, -3057, 580, 1510, -3001, 408, 430, 110, 387, 261, 457, 615, 833, 724, 428, 812
330703964, 1912, 4852, -15228, -3057, 580, 1510, -3001, 408, 430, 110, 387, 261, 457, 615, 833, 724, 428, 812
330704749, 1912, 4852, -15228, -3057, 580, 1510, -3001, 408, 430, 110, 387, 261, 457, 615, 833, 724, 428, 812
330705624, 1912, 4852, -15228, -3057, 580, 1510, -3001, 408, 430, 110, 387, 261, 457, 615, 833, 724, 428, 812
330710633, 1912, 4852, -15228, -3057, 580, 1510, -3001, 408, 430, 110, 387, 261, 457, 615, 833, 724, 428, 812
330711394, 1912, 4852, -15228, -3057, 580, 1510, -3001, 408, 430, 110, 387, 261, 457, 615, 833, 724, 428, 812
330712198, 1912, 4852, -15228, -3057, 580, 1510, -3001, 408, 430, 110, 387, 261, 457, 615, 833, 724, 428, 812
330713053, 1912, 4852, -15228, -3057, 580, 1510, -3001, 408, 430, 110, 387, 261, 457, 615, 833, 724, 428, 812
330718154, 2153, 4848, -15206, -3016, 676, 1688, -2716, -8, 1195, 227, 387, 261, 457, 615, 833, 724, 428, 812
330718977, 2153, 4848, -15206, -3016, 676, 1688, -2716, -8, 1195, 227, 350, 207, 320, 379, 594, 564, 397, 781
330719776, 2153, 4848, -15206, -3016, 676, 1688, -2716, -8, 1195, 227, 387, 261, 457, 615, 833, 724, 428, 812
330720597, 2153, 4848, -15206, -3016, 676, 1688, -2716, -8, 1195, 227, 350, 207, 320, 379, 594, 564, 397, 781
330725596, 2153, 4848, -15206, -3016, 676, 1688, -2716, -8, 1195, 227, 350, 207, 320, 379, 594, 564, 397, 781
330726379, 2153, 4848, -15206, -3016, 676, 1688, -2716, -8, 1195, 227, 350, 207, 320, 379, 594, 564, 397, 781
330727173, 2153, 4848, -15206, -3016, 676, 1688, -2716, -8, 1195, 227, 350, 207, 320, 379, 594, 564, 397, 781
330728015, 2153, 4848, -15206, -3016, 676, 1688, -2716, -8, 1195, 227, 350, 207, 320, 379, 594, 564, 397, 781
330733045, 2153, 4848, -15206, -3016, 676, 1688, -2716, -8, 1195, 227, 350, 207, 320, 379, 594, 564, 397, 781
330734010, 2329, 4845, -15139, -3217, 383, 1522, -2709, -1330, 664, -31, 350, 207, 320, 379, 594, 564, 397, 781
330734802, 2329, 4845, -15139, -3217, 383, 1522, -2709, -1330, 664, -31, 285, 164, 184, 275, 507, 483, 329, 598
330735644, 2329, 4845, -15139, -3217, 383, 1522, -2709, -1330, 664, -31, 285, 164, 184, 275, 507, 483, 329, 598
