Timestamp, Orientation x, Orientation y, Orientation z, Orientation w, Acceleration x, Acceleration y, Acceleration z, Rotation x, Rotation y, Rotation z, EMG 0, EMG 1, EMG 2, EMG 3, EMG 4, EMG 5, EMG 6, EMG 7
107050928, 4638, 1569, -14960, -4547, 1811, 2235, -2740, -16, 56, 11, 0, 0, 0, 0, 0, 0, 0, 0
107051744, 4648, 1569, -14957, -4548, 1825, 2242, -2757, -22, 71, 25, 0, 0, 0, 0, 0, 0, 0, 0
107072723, 4658, 1568, -14954, -4546, 1830, 2232, -2781, -17, 78, 28, 0, 0, 0, 0, 0, 0, 0, 0
107095274, 4668, 1570, -14951, -4546, 1842, 2231, -2770, -26, 78, 9, 0, 0, 0, 0, 0, 0, 0, 0
107110227, 4677, 1576, -14946, -4550, 1814, 2226, -2763, -40, 91, -17, 0, 0, 0, 0, 0, 0, 0, 0
107118359, 4677, 1576, -14946, -4550, 1814, 2226, -2763, -40, 91, -17, 63, 69, 71, 43, 84, 102, 164, 124
107119132, 4677, 1576, -14946, -4550, 1814, 2226, -2763, -40, 91, -17, 63, 69, 71, 43, 84, 102, 164, 124
107132800, 4683, 1585, -14943, -4550, 1807, 2238, -2788, -14, 86, -20, 63, 69, 71, 43, 84, 102, 164, 124
107140895, 4683, 1585, -14943, -4550, 1807, 2238, -2788, -14, 86, -20, 69, 71, 70, 42, 84, 105, 181, 132
107141703, 4683, 1585, -14943, -4550, 1807, 2238, -2788, -14, 86, -20, 69, 71, 70, 42, 84, 105, 181, 132
107155201, 4689, 1595, -14943, -4543, 1806, 2232, -2796, 21, 93, -15, 69, 71, 70, 42, 84, 105, 181, 132
107163360, 4689, 1595, -14943, -4543, 1806, 2232, -2796, 21, 93, -15, 70, 70, 72, 42, 75, 101, 166, 126
107164198, 4689, 1595, -14943, -4543, 1806, 2232, -2796, 21, 93, -15, 70, 70, 72, 42, 75, 101, 166, 126
107170334, 4693, 1606, -14941, -4540, 1803, 2215, -2763, 1, 73, -34, 70, 70, 72, 42, 75, 101, 166, 126
107178374, 4693, 1606, -14941, -4540, 1803, 2215, -2763, 1, 73, -34, 69, 69, 68, 45, 93, 98, 161, 126
107179195, 4693, 1606, -14941, -4540, 1803, 2215, -2763, 1, 73, -34, 69, 69, 68, 45, 93, 98, 161, 126
107192700, 4694, 1616, -14940, -4539, 1801, 2221, -2752, 6, 58, -33, 69, 69, 68, 45, 93, 98, 161, 126
107200859, 4694, 1616, -14940, -4539, 1801, 2221, -2752, 6, 58, -33, 89, 97, 80, 55, 86, 99, 159, 142
107201675, 4694, 1616, -14940, -4539, 1801, 2221, -2752, 6, 58, -33, 89, 97, 80, 55, 86, 99, 159, 142
107215213, 4699, 1625, -14938, -4536, 1823, 2223, -2754, 6, 69, -21, 89, 97, 80, 55, 86, 99, 159, 142
107223356, 4699, 1625, -14938, -4536, 1823, 2223, -2754, 6, 69, -21, 83, 100, 74, 63, 99, 114, 171, 119
107224151, 4699, 1625, -14938, -4536, 1823, 2223, -2754, 6, 69, -21, 83, 100, 74, 63, 99, 114, 171, 119
107230309, 4704, 1634, -14937, -4531, 1802, 2230, -2758, 16, 76, -15, 83, 100, 74, 63, 99, 114, 171, 119
107238375, 4704, 1634, -14937, -4531, 1802, 2230, -2758, 16, 76, -15, 88, 103, 73, 65, 100, 115, 154, 130
107239202, 4704, 1634, -14937, -4531, 1802, 2230, -2758, 16, 76, -15, 88, 103, 73, 65, 100, 115, 154, 130
107252676, 4707, 1641, -14938, -4523, 1819, 2227, -2780, 30, 62, -8, 88, 103, 73, 65, 100, 115, 154, 130
107260860, 4707, 1641, -14938, -4523, 1819, 2227, -2780, 30, 62, -8, 98, 113, 78, 75, 97, 110, 146, 134
107261648, 4707, 1641, -14938, -4523, 1819, 2227, -2780, 30, 62, -8, 98, 113, 78, 75, 97, 110, 146, 134
107275252, 4710, 1649, -14939, -4515, 1838, 2206, -2779, 28, 59, -22, 98, 113, 78, 75, 97, 110, 146, 134
107283324, 4710, 1649, -14939, -4515, 1838, 2206, -2779, 28, 59, -22, 101, 123, 95, 81, 92, 103, 140, 132
107284146, 4710, 1649, -14939, -4515, 1838, 2206, -2779, 28, 59, -22, 101, 123, 95, 81, 92, 103, 140, 132
107290297, 4716, 1661, -14937, -4510, 1854, 2206, -2755, 12, 69, -45, 101, 123, 95, 81, 92, 103, 140, 132
107298339, 4716, 1661, -14937, -4510, 1854, 2206, -2755, 12, 69, -45, 94, 113, 85, 76, 110, 101, 152, 134
107299123, 4716, 1661, -14937, -4510, 1854, 2206, -2755, 12, 69, -45, 94, 113, 85, 76, 110, 101, 152, 134
107312726, 4721, 1674, -14935, -4507, 1836, 2230, -2749, 23, 74, -48, 94, 113, 85, 76, 110, 101, 152, 134
107320851, 4721, 1674, -14935, -4507, 1836, 2230, -2749, 23, 74, -48, 94, 104, 91, 73, 107, 100, 135, 135
107321649, 4721, 1674, -14935, -4507, 1836, 2230, -2749, 23, 74, -48, 94, 104, 91, 73, 107, 100, 135, 135
107335258, 4725, 1685, -14934, -4503, 1831, 2228, -2757, 21, 61, -33, 94, 104, 91, 73, 107, 100, 135, 135
107343346, 4725, 1685, -14934, -4503, 1831, 2228, -2757, 21, 61, -33, 88, 108, 97, 84, 112, 108, 143, 116
107344139, 4725, 1685, -14934, -4503, 1831, 2228, -2757, 21, 61, -33, 88, 108, 97, 84, 112, 108, 143, 116
107350279, 4730, 1694, -14933, -4495, 1848, 2216, -2761, 31, 63, -25, 88, 108, 97, 84, 112, 108, 143, 116
107358328, 4730, 1694, -14933, -4495, 1848, 2216, -2761, 31, 63, -25, 73, 97, 96, 79, 112, 97, 140, 112
107359174, 4730, 1694, -14933, -4495, 1848, 2216, -2761, 31, 63, -25, 73, 97, 96, 79, 112, 97, 140, 112
107372763, 4736, 1704, -14933, -4488, 1843, 2214, -2761, 33, 73, -25, 73, 97, 96, 79, 112, 97, 140, 112
107380852, 4736, 1704, -14933, -4488, 1843, 2214, -2761, 33, 73, -25, 64, 87, 82, 69, 102, 98, 136, 114
107381651, 4736, 1704, -14933, -4488, 1843, 2214, -2761, 33, 73, -25, 64, 87, 82, 69, 102, 98, 136, 114
107395212, 4742, 1716, -14931, -4482, 1824, 2208, -2754, 21, 85, -33, 64, 87, 82, 69, 102, 98, 136, 114
107403337, 4742, 1716, -14931, -4482, 1824, 2208, -2754, 21, 85, -33, 52, 70, 78, 64, 80, 99, 117, 109
107404151, 4742, 1716, -14931, -4482, 1824, 2208, -2754, 21, 85, -33, 52, 70, 78, 64, 80, 99, 117, 109
107410277, 4750, 1729, -14927, -4482, 1818, 2207, -2734, -5, 91, -44, 52, 70, 78, 64, 80, 99, 117, 109
107418316, 4750, 1729, -14927, -4482, 1818, 2207, -2734, -5, 91, -44, 67, 72, 79, 61, 73, 88, 150, 144
107419125, 4750, 1729, -14927, -4482, 1818, 2207, -2734, -5, 91, -44, 67, 72, 79, 61, 73, 88, 150, 144
107432727, 4759, 1741, -14922, -4483, 1809, 2219, -2741, -6, 106, -36, 67, 72, 79, 61, 73, 88, 150, 144
107440847, 4759, 1741, -14922, -4483, 1809, 2219, -2741, -6, 106, -36, 72, 62, 75, 48, 102, 100, 160, 163
107441625, 4759, 1741, -14922, -4483, 1809, 2219, -2741, -6, 106, -36, 72, 62, 75, 48, 102, 100, 160, 163
107455235, 4767, 1753, -14919, -4482, 1807, 2234, -2728, 8, 94, -24, 72, 62, 75, 48, 102, 100, 160, 163
107463315, 4767, 1753, -14919, -4482, 1807, 2234, -2728, 8, 94, -24, 81, 60, 81, 42, 101, 103, 173, 171
107464118, 4767, 1753, -14919, -4482, 1807, 2234, -2728, 8, 94, -24, 81, 60, 81, 42, 101, 103, 173, 171
107470304, 4777, 1758, -14915, -4480, 1849, 2268, -2773, 1, 93, 9, 81, 60, 81, 42, 101, 103, 173, 171
107478364, 4777, 1758, -14915, -4480, 1849, 2268, -2773, 1, 93, 9, 138, 100, 93, 53, 105, 108, 199, 202
107479138, 4777, 1758, -14915, -4480, 1849, 2268, -2773, 1, 93, 9, 138, 100, 93, 53, 105, 108, 199, 202
107492718, 4793, 1758, -14909, -4485, 1854, 2291, -2774, -46, 120, 37, 138, 100, 93, 53, 105, 108, 199, 202
107500806, 4793, 1758, -14909, -4485, 1854, 2291, -2774, -46, 120, 37, 379, 226, 160, 100, 141, 179, 380, 460
107501662, 4793, 1758, -14909, -4485, 1854, 2291, -2774, -46, 120, 37, 379, 226, 160, 100, 141, 179, 380, 460
107515205, 4796, 1757, -14907, -4487, 1735, 2254, -2753, -24, 86, 56, 379, 226, 160, 100, 141, 179, 380, 460
107523341, 4796, 1757, -14907, -4487, 1735, 2254, -2753, -24, 86, 56, 470, 263, 183, 137, 175, 222, 532, 598
107524125, 4796, 1757, -14907, -4487, 1735, 2254, -2753, -24, 86, 56, 470, 263, 183, 137, 175, 222, 532, 598
107530334, 4758, 1757, -14917, -4494, 1591, 2073, -2648, -43, -127, -19, 470, 263, 183, 137, 175, 222, 532, 598
107538313, 4758, 1757, -14917, -4494, 1591, 2073, -2648, -43, -127, -19, 559, 313, 220, 158, 177, 240, 586, 785
107539125, 4758, 1757, -14917, -4494, 1591, 2073, -2648, -43, -127, -19, 559, 313, 220, 158, 177, 240, 586, 785
107552709, 4694, 1764, -14938, -4491, 1759, 1971, -2744, -9, -310, -161, 559, 313, 220, 158, 177, 240, 586, 785
107560813, 4694, 1764, -14938, -4491, 1759, 1971, -2744, -9, -310, -161, 588, 348, 247, 167, 188, 264, 670, 932
107561624, 4694, 1764, -14938, -4491, 1759, 1971, -2744, -9, -310, -161, 588, 348, 247, 167, 188, 264, 670, 932
107575203, 4642, 1799, -14953, -4481, 1897, 1981, -2612, 107, -297, -319, 588, 348, 247, 167, 188, 264, 670, 932
107583349, 4642, 1799, -14953, -4481, 1897, 1981, -2612, 107, -297, -319, 754, 425, 321, 198, 221, 308, 774, 1105
107584201, 4642, 1799, -14953, -4481, 1897, 1981, -2612, 107, -297, -319, 754, 425, 321, 198, 221, 308, 774, 1105
107590327, 4624, 1854, -14961, -4450, 1994, 2207, -2633, 299, -107, -322, 754, 425, 321, 198, 221, 308, 774, 1105
107598308, 4624, 1854, -14961, -4450, 1994, 2207, -2633, 299, -107, -322, 756, 427, 323, 207, 230, 314, 796, 1138
107599124, 4624, 1854, -14961, -4450, 1994, 2207, -2633, 299, -107, -322, 756, 427, 323, 207, 230, 314, 796, 1138
107612705, 4628, 1883, -14970, -4404, 1916, 2568, -2677, 461, 15, -10, 756, 427, 323, 207, 230, 314, 796, 1138
107620850, 4628, 1883, -14970, -4404, 1916, 2568, -2677, 461, 15, -10, 725, 425, 326, 190, 207, 296, 751, 1106
107621704, 4628, 1883, -14970, -4404, 1916, 2568, -2677, 461, 15, -10, 725, 425, 326, 190, 207, 296, 751, 1106
107635191, 4691, 1840, -14965, -4371, 1979, 2668, -2855, 206, 257, 448, 725, 425, 326, 190, 207, 296, 751, 1106
107643336, 4691, 1840, -14965, -4371, 1979, 2668, -2855, 206, 257, 448, 745, 487, 352, 224, 244, 342, 833, 1075
107644150, 4691, 1840, -14965, -4371, 1979, 2668, -2855, 206, 257, 448, 745, 487, 352, 224, 244, 342, 833, 1075
107650342, 4812, 1753, -14932, -4387, 2019, 2436, -2817, -280, 508, 605, 745, 487, 352, 224, 244, 342, 833, 1075
107658350, 4812, 1753, -14932, -4387, 2019, 2436, -2817, -280, 508, 605, 791, 505, 361, 226, 239, 333, 790, 1015
107659203, 4812, 1753, -14932, -4387, 2019, 2436, -2817, -280, 508, 605, 791, 505, 361, 226, 239, 333, 790, 1015
107672675, 4967, 1632, -14879, -4441, 1901, 2390, -2678, -577, 699, 803, 791, 505, 361, 226, 239, 333, 790, 1015
107680878, 4967, 1632, -14879, -4441, 1901, 2390, -2678, -577, 699, 803, 720, 515, 371, 221, 227, 316, 731, 858
107681649, 4967, 1632, -14879, -4441, 1901, 2390, -2678, -577, 699, 803, 720, 515, 371, 221, 227, 316, 731, 858
107695185, 5154, 1466, -14831, -4449, 1679, 2446, -2677, -425, 945, 1287, 720, 515, 371, 221, 227, 316, 731, 858
107703324, 5154, 1466, -14831, -4449, 1679, 2446, -2677, -425, 945, 1287, 763, 575, 387, 239, 258, 354, 742, 790
107704166, 5154, 1466, -14831, -4449, 1679, 2446, -2677, -425, 945, 1287, 763, 575, 387, 239, 258, 354, 742, 790
107710293, 5389, 1228, -14784, -4396, 1653, 2482, -2729, -324, 997, 1698, 763, 575, 387, 239, 258, 354, 742, 790
107717719, 5389, 1228, -14784, -4396, 1653, 2482, -2729, -324, 997, 1698, 787, 590, 404, 251, 265, 366, 737, 831
107725126, 5389, 1228, -14784, -4396, 1653, 2482, -2729, -324, 997, 1698, 787, 590, 404, 251, 265, 366, 737, 831
107732792, 5595, 948, -14737, -4365, 2014, 2451, -2728, -498, 768, 1812, 787, 590, 404, 251, 265, 366, 737, 831
107740819, 5595, 948, -14737, -4365, 2014, 2451, -2728, -498, 768, 1812, 912, 634, 430, 262, 286, 404, 791, 870
107741600, 5595, 948, -14737, -4365, 2014, 2451, -2728, -498, 768, 1812, 912, 634, 430, 262, 286, 404, 791, 870
107755179, 5799, 644, -14670, -4381, 2360, 2297, -2694, -829, 722, 1811, 912, 634, 430, 262, 286, 404, 791, 870
107763360, 5799, 644, -14670, -4381, 2360, 2297, -2694, -829, 722, 1811, 911, 631, 421, 283, 313, 433, 836, 853
107764149, 5799, 644, -14670, -4381, 2360, 2297, -2694, -829, 722, 1811, 911, 631, 421, 283, 313, 433, 836, 853
107770328, 6022, 347, -14584, -4401, 2315, 2101, -2702, -878, 891, 1792, 911, 631, 421, 283, 313, 433, 836, 853
107777625, 6022, 347, -14584, -4401, 2315, 2101, -2702, -878, 891, 1792, 893, 604, 395, 284, 327, 451, 867, 887
107785150, 6022, 347, -14584, -4401, 2315, 2101, -2702, -878, 891, 1792, 893, 604, 395, 284, 327, 451, 867, 887
107792751, 6243, 71, -14506, -4365, 2292, 2017, -2752, -559, 929, 1807, 893, 604, 395, 284, 327, 451, 867, 887
107800807, 6243, 71, -14506, -4365, 2292, 2017, -2752, -559, 929, 1807, 939, 638, 449, 304, 335, 454, 915, 961
107801626, 6243, 71, -14506, -4365, 2292, 2017, -2752, -559, 929, 1807, 939, 638, 449, 304, 335, 454, 915, 961
107815204, 6430, -166, -14451, -4272, 2438, 2018, -2722, -147, 763, 1688, 939, 638, 449, 304, 335, 454, 915, 961
107823309, 6430, -166, -14451, -4272, 2438, 2018, -2722, -147, 763, 1688, 977, 644, 448, 304, 339, 452, 922, 987
107824103, 6430, -166, -14451, -4272, 2438, 2018, -2722, -147, 763, 1688, 977, 644, 448, 304, 339, 452, 922, 987
107830268, 6537, -345, -14427, -4177, 2614, 2120, -2693, 49, 583, 1464, 977, 644, 448, 304, 339, 452, 922, 987
107845869, 6537, -345, -14427, -4177, 2614, 2120, -2693, 49, 583, 1464, 870, 583, 447, 285, 309, 421, 905, 915
107846672, 6537, -345, -14427, -4177, 2614, 2120, -2693, 49, 583, 1464, 870, 583, 447, 285, 309, 421, 905, 915
107852805, 6607, -476, -14410, -4113, 2671, 2192, -2670, 53, 451, 1156, 870, 583, 447, 285, 309, 421, 905, 915
107860799, 6607, -476, -14410, -4113, 2671, 2192, -2670, 53, 451, 1156, 904, 626, 465, 280, 305, 433, 957, 954
107861629, 6607, -476, -14410, -4113, 2671, 2192, -2670, 53, 451, 1156, 904, 626, 465, 280, 305, 433, 957, 954
107875199, 6645, -570, -14395, -4092, 2678, 2143, -2629, -75, 345, 826, 904, 626, 465, 280, 305, 433, 957, 954
107883360, 6645, -570, -14395, -4092, 2678, 2143, -2629, -75, 345, 826, 939, 666, 492, 291, 304, 438, 973, 964
107884149, 6645, -570, -14395, -4092, 2678, 2143, -2629, -75, 345, 826, 939, 666, 492, 291, 304, 438, 973, 964
107890308, 6658, -630, -14386, -4096, 2683, 2087, -2641, -135, 269, 555, 939, 666, 492, 291, 304, 438, 973, 964
107905833, 6658, -630, -14386, -4096, 2683, 2087, -2641, -135, 269, 555, 837, 583, 448, 270, 289, 422, 896, 909
107906661, 6658, -630, -14386, -4096, 2683, 2087, -2641, -135, 269, 555, 837, 583, 448, 270, 289, 422, 896, 909
107912825, 6653, -655, -14383, -4110, 2672, 2053, -2629, -107, 219, 320, 837, 583, 448, 270, 289, 422, 896, 909
107920849, 6653, -655, -14383, -4110, 2672, 2053, -2629, -107, 219, 320, 824, 620, 457, 277, 289, 431, 923, 862
107921671, 6653, -655, -14383, -4110, 2672, 2053, -2629, -107, 219, 320, 824, 620, 457, 277, 289, 431, 923, 862
107935199, 6643, -648, -14382, -4128, 2608, 2090, -2574, -27, 228, 171, 824, 620, 457, 277, 289, 431, 923, 862
107943354, 6643, -648, -14382, -4128, 2608, 2090, -2574, -27, 228, 171, 859, 660, 460, 281, 294, 423, 900, 892
107944166, 6643, -648, -14382, -4128, 2608, 2090, -2574, -27, 228, 171, 859, 660, 460, 281, 294, 423, 900, 892
107950301, 6622, -622, -14390, -4138, 2601, 2136, -2612, 64, 189, 90, 859, 660, 460, 281, 294, 423, 900, 892
107965840, 6622, -622, -14390, -4138, 2601, 2136, -2612, 64, 189, 90, 798, 616, 443, 262, 273, 390, 799, 831
107966635, 6622, -622, -14390, -4138, 2601, 2136, -2612, 64, 189, 90, 798, 616, 443, 262, 273, 390, 799, 831
107972800, 6590, -584, -14397, -4170, 2627, 2191, -2582, -1, 133, -31, 798, 616, 443, 262, 273, 390, 799, 831
107980851, 6590, -584, -14397, -4170, 2627, 2191, -2582, -1, 133, -31, 744, 556, 391, 237, 249, 361, 757, 796
107981649, 6590, -584, -14397, -4170, 2627, 2191, -2582, -1, 133, -31, 744, 556, 391, 237, 249, 361, 757, 796
107995184, 6557, -537, -14401, -4217, 2623, 2201, -2530, -52, 124, -118, 744, 556, 391, 237, 249, 361, 757, 796
108003336, 6557, -537, -14401, -4217, 2623, 2201, -2530, -52, 124, -118, 721, 541, 364, 208, 218, 334, 763, 725
108004179, 6557, -537, -14401, -4217, 2623, 2201, -2530, -52, 124, -118, 721, 541, 364, 208, 218, 334, 763, 725
108010304, 6520, -490, -14406, -4263, 2573, 2159, -2517, -69, 105, -147, 721, 541, 364, 208, 218, 334, 763, 725
108025828, 6520, -490, -14406, -4263, 2573, 2159, -2517, -69, 105, -147, 741, 525, 352, 210, 235, 344, 742, 734
108026653, 6520, -490, -14406, -4263, 2573, 2159, -2517, -69, 105, -147, 741, 525, 352, 210, 235, 344, 742, 734
108032776, 6477, -441, -14416, -4301, 2544, 2161, -2516, -24, 61, -160, 741, 525, 352, 210, 235, 344, 742, 734
108048325, 6477, -441, -14416, -4301, 2544, 2161, -2516, -24, 61, -160, 634, 420, 292, 179, 204, 310, 648, 658
108049125, 6477, -441, -14416, -4301, 2544, 2161, -2516, -24, 61, -160, 634, 420, 292, 179, 204, 310, 648, 658
108055288, 6429, -392, -14431, -4327, 2558, 2206, -2517, 45, 6, -143, 634, 420, 292, 179, 204, 310, 648, 658
108063369, 6429, -392, -14431, -4327, 2558, 2206, -2517, 45, 6, -143, 679, 452, 309, 194, 217, 317, 709, 701
108064145, 6429, -392, -14431, -4327, 2558, 2206, -2517, 45, 6, -143, 679, 452, 309, 194, 217, 317, 709, 701
108070288, 6384, -352, -14443, -4356, 2627, 2243, -2482, 30, -30, -111, 679, 452, 309, 194, 217, 317, 709, 701
108085847, 6384, -352, -14443, -4356, 2627, 2243, -2482, 30, -30, -111, 736, 502, 318, 201, 224, 353, 687, 723
108086643, 6384, -352, -14443, -4356, 2627, 2243, -2482, 30, -30, -111, 736, 502, 318, 201, 224, 353, 687, 723
108092804, 6343, -322, -14454, -4381, 2667, 2220, -2500, 6, -41, -82, 736, 502, 318, 201, 224, 353, 687, 723
108108300, 6343, -322, -14454, -4381, 2667, 2220, -2500, 6, -41, -82, 749, 501, 317, 193, 214, 348, 685, 770
108109097, 6343, -322, -14454, -4381, 2667, 2220, -2500, 6, -41, -82, 749, 501, 317, 193, 214, 348, 685, 770
108115279, 6302, -296, -14466, -4403, 2658, 2199, -2523, -1, -42, -75, 749, 501, 317, 193, 214, 348, 685, 770
108123299, 6302, -296, -14466, -4403, 2658, 2199, -2523, -1, -42, -75, 676, 441, 280, 163, 180, 321, 633, 735
108124153, 6302, -296, -14466, -4403, 2658, 2199, -2523, -1, -42, -75, 676, 441, 280, 163, 180, 321, 633, 735
108130283, 6262, -272, -14478, -4421, 2673, 2198, -2539, 10, -56, -73, 676, 441, 280, 163, 180, 321, 633, 735
108145810, 6262, -272, -14478, -4421, 2673, 2198, -2539, 10, -56, -73, 699, 443, 255, 159, 175, 312, 619, 776
108146637, 6262, -272, -14478, -4421, 2673, 2198, -2539, 10, -56, -73, 699, 443, 255, 159, 175, 312, 619, 776
108152774, 6223, -250, -14491, -4436, 2695, 2209, -2556, 21, -63, -63, 699, 443, 255, 159, 175, 312, 619, 776
108168302, 6223, -250, -14491, -4436, 2695, 2209, -2556, 21, -63, -63, 666, 413, 236, 161, 176, 311, 564, 719
108169112, 6223, -250, -14491, -4436, 2695, 2209, -2556, 21, -63, -63, 666, 413, 236, 161, 176, 311, 564, 719
108175292, 6184, -230, -14504, -4449, 2713, 2212, -2565, 21, -79, -61, 666, 413, 236, 161, 176, 311, 564, 719
108183299, 6184, -230, -14504, -4449, 2713, 2212, -2565, 21, -79, -61, 601, 339, 215, 149, 161, 250, 550, 706
108184140, 6184, -230, -14504, -4449, 2713, 2212, -2565, 21, -79, -61, 601, 339, 215, 149, 161, 250, 550, 706
108190252, 6151, -211, -14511, -4472, 2702, 2236, -2541, -28, -53, -70, 601, 339, 215, 149, 161, 250, 550, 706
