Timestamp, Orientation x, Orientation y, Orientation z, Orientation w, Acceleration x, Acceleration y, Acceleration z, Rotation x, Rotation y, Rotation z, EMG 0, EMG 1, EMG 2, EMG 3, EMG 4, EMG 5, EMG 6, EMG 7
272884184, 1669, 12349, 3617, 10002, 2309, 1216, -3727, -41, 67, -59, 0, 0, 0, 0, 0, 0, 0, 0
272891710, 1668, 12342, 3620, 10009, 2326, 1240, -3732, 0, 53, -14, 0, 0, 0, 0, 0, 0, 0, 0
272906687, 1666, 12335, 3630, 10016, 2360, 1262, -3733, 33, 62, -40, 0, 0, 0, 0, 0, 0, 0, 0
272929178, 1661, 12325, 3645, 10023, 2352, 1309, -3733, 56, 75, -60, 0, 0, 0, 0, 0, 0, 0, 0
272952998, 1654, 12318, 3658, 10028, 2349, 1395, -3744, 61, 65, -35, 0, 0, 0, 0, 0, 0, 0, 0
272953806, 1654, 12318, 3658, 10028, 2349, 1395, -3744, 61, 65, -35, 75, 104, 87, 32, 32, 28, 61, 86
272954607, 1654, 12318, 3658, 10028, 2349, 1395, -3744, 61, 65, -35, 75, 104, 87, 32, 32, 28, 61, 86
272966649, 1643, 12317, 3658, 10031, 2318, 1495, -3736, 45, 31, 38, 75, 104, 87, 32, 32, 28, 61, 86
272974781, 1643, 12317, 3658, 10031, 2318, 1495, -3736, 45, 31, 38, 78, 106, 90, 33, 30, 27, 62, 98
272975601, 1643, 12317, 3658, 10031, 2318, 1495, -3736, 45, 31, 38, 78, 106, 90, 33, 30, 27, 62, 98
272989155, 1649, 12317, 3635, 10038, 2304, 1565, -3737, -113, 5, 81, 78, 106, 90, 33, 30, 27, 62, 98
272997345, 1649, 12317, 3635, 10038, 2304, 1565, -3737, -113, 5, 81, 84, 107, 93, 33, 29, 30, 61, 101
272998128, 1649, 12317, 3635, 10038, 2304, 1565, -3737, -113, 5, 81, 84, 107, 93, 33, 29, 30, 61, 101
273013037, 1696, 12312, 3589, 10053, 2306, 1632, -3707, -377, -6, 35, 84, 107, 93, 33, 29, 30, 61, 101
273013845, 1696, 12312, 3589, 10053, 2306, 1632, -3707, -377, -6, 35, 90, 98, 98, 36, 41, 34, 63, 116
273014680, 1696, 12312, 3589, 10053, 2306, 1632, -3707, -377, -6, 35, 90, 98, 98, 36, 41, 34, 63, 116
273026642, 1796, 12297, 3545, 10070, 2280, 1621, -3692, -604, -22, -167, 90, 98, 98, 36, 41, 34, 63, 116
273034829, 1796, 12297, 3545, 10070, 2280, 1621, -3692, -604, -22, -167, 125, 99, 133, 53, 42, 35, 62, 139
273035628, 1796, 12297, 3545, 10070, 2280, 1621, -3692, -604, -22, -167, 125, 99, 133, 53, 42, 35, 62, 139
273049181, 1937, 12269, 3532, 10083, 2270, 1572, -3675, -671, -31, -456, 125, 99, 133, 53, 42, 35, 62, 139
273057293, 1937, 12269, 3532, 10083, 2270, 1572, -3675, -671, -31, -456, 124, 125, 140, 60, 41, 33, 55, 130
273058120, 1937, 12269, 3532, 10083, 2270, 1572, -3675, -671, -31, -456, 124, 125, 140, 60, 41, 33, 55, 130
273073009, 2079, 12227, 3581, 10088, 2246, 1510, -3658, -458, 26, -744, 124, 125, 140, 60, 41, 33, 55, 130
273073828, 2079, 12227, 3581, 10088, 2246, 1510, -3658, -458, 26, -744, 127, 140, 165, 76, 44, 34, 53, 124
273074632, 2079, 12227, 3581, 10088, 2246, 1510, -3658, -458, 26, -744, 127, 140, 165, 76, 44, 34, 53, 124
273086727, 2217, 12174, 3685, 10084, 2208, 1497, -3705, -254, 71, -980, 127, 140, 165, 76, 44, 34, 53, 124
273094852, 2217, 12174, 3685, 10084, 2208, 1497, -3705, -254, 71, -980, 129, 166, 194, 83, 46, 29, 50, 124
273095594, 2217, 12174, 3685, 10084, 2208, 1497, -3705, -254, 71, -980, 129, 166, 194, 83, 46, 29, 50, 124
273109188, 2358, 12108, 3846, 10072, 2193, 1560, -3713, -67, 123, -1247, 129, 166, 194, 83, 46, 29, 50, 124
273117256, 2358, 12108, 3846, 10072, 2193, 1560, -3713, -67, 123, -1247, 131, 203, 208, 88, 36, 28, 48, 115
273118105, 2358, 12108, 3846, 10072, 2193, 1560, -3713, -67, 123, -1247, 131, 203, 208, 88, 36, 28, 48, 115
273132993, 2492, 12032, 4063, 10045, 2136, 1520, -3729, 168, 145, -1482, 131, 203, 208, 88, 36, 28, 48, 115
273133857, 2492, 12032, 4063, 10045, 2136, 1520, -3729, 168, 145, -1482, 104, 223, 220, 87, 37, 32, 40, 89
273134606, 2492, 12032, 4063, 10045, 2136, 1520, -3729, 168, 145, -1482, 104, 223, 220, 87, 37, 32, 40, 89
273146658, 2614, 11957, 4318, 9998, 2085, 1379, -3794, 374, 110, -1608, 104, 223, 220, 87, 37, 32, 40, 89
273154851, 2614, 11957, 4318, 9998, 2085, 1379, -3794, 374, 110, -1608, 116, 242, 231, 86, 40, 38, 51, 101
273155633, 2614, 11957, 4318, 9998, 2085, 1379, -3794, 374, 110, -1608, 116, 242, 231, 86, 40, 38, 51, 101
273169181, 2711, 11881, 4596, 9938, 2032, 1170, -3813, 573, 123, -1637, 116, 242, 231, 86, 40, 38, 51, 101
273177319, 2711, 11881, 4596, 9938, 2032, 1170, -3813, 573, 123, -1637, 171, 324, 230, 76, 39, 41, 59, 123
273178104, 2711, 11881, 4596, 9938, 2032, 1170, -3813, 573, 123, -1637, 171, 324, 230, 76, 39, 41, 59, 123
273193004, 2778, 11805, 4897, 9867, 1883, 725, -3973, 791, 140, -1633, 171, 324, 230, 76, 39, 41, 59, 123
273193867, 2778, 11805, 4897, 9867, 1883, 725, -3973, 791, 140, -1633, 219, 383, 246, 72, 49, 44, 64, 142
273194631, 2778, 11805, 4897, 9867, 1883, 725, -3973, 791, 140, -1633, 219, 383, 246, 72, 49, 44, 64, 142
273206695, 2794, 11746, 5219, 9767, 1716, 462, -4154, 1132, 78, -1546, 219, 383, 246, 72, 49, 44, 64, 142
273214857, 2794, 11746, 5219, 9767, 1716, 462, -4154, 1132, 78, -1546, 245, 392, 266, 73, 51, 43, 68, 161
273215544, 2794, 11746, 5219, 9767, 1716, 462, -4154, 1132, 78, -1546, 245, 392, 266, 73, 51, 43, 68, 161
273229167, 2737, 11723, 5566, 9619, 1663, 485, -4180, 1629, -89, -1383, 245, 392, 266, 73, 51, 43, 68, 161
273237266, 2737, 11723, 5566, 9619, 1663, 485, -4180, 1629, -89, -1383, 252, 412, 273, 70, 51, 43, 76, 168
273238106, 2737, 11723, 5566, 9619, 1663, 485, -4180, 1629, -89, -1383, 252, 412, 273, 70, 51, 43, 76, 168
273252955, 2635, 11745, 5918, 9407, 1823, 526, -4153, 1988, -397, -1230, 252, 412, 273, 70, 51, 43, 76, 168
273253858, 2635, 11745, 5918, 9407, 1823, 526, -4153, 1988, -397, -1230, 272, 459, 297, 82, 55, 43, 77, 174
273254629, 2635, 11745, 5918, 9407, 1823, 526, -4153, 1988, -397, -1230, 272, 459, 297, 82, 55, 43, 77, 174
273266657, 2545, 11786, 6235, 9174, 2223, 428, -3913, 1889, -600, -1111, 272, 459, 297, 82, 55, 43, 77, 174
273274835, 2545, 11786, 6235, 9174, 2223, 428, -3913, 1889, -600, -1111, 241, 467, 340, 85, 53, 43, 73, 161
273275605, 2545, 11786, 6235, 9174, 2223, 428, -3913, 1889, -600, -1111, 241, 467, 340, 85, 53, 43, 73, 161
273289159, 2457, 11843, 6462, 8963, 2500, 60, -3919, 1564, -641, -702, 241, 467, 340, 85, 53, 43, 73, 161
273297278, 2457, 11843, 6462, 8963, 2500, 60, -3919, 1564, -641, -702, 205, 425, 353, 85, 46, 46, 81, 149
273298133, 2457, 11843, 6462, 8963, 2500, 60, -3919, 1564, -641, -702, 205, 425, 353, 85, 46, 46, 81, 149
273313019, 2310, 11941, 6549, 8809, 2514, -445, -4113, 1281, -525, 184, 205, 425, 353, 85, 46, 46, 81, 149
273313829, 2310, 11941, 6549, 8809, 2514, -445, -4113, 1281, -525, 184, 176, 418, 349, 83, 45, 48, 79, 127
273314659, 2310, 11941, 6549, 8809, 2514, -445, -4113, 1281, -525, 184, 176, 418, 349, 83, 45, 48, 79, 127
273326693, 2056, 12095, 6490, 8704, 2789, -700, -4228, 1217, -373, 1266, 176, 418, 349, 83, 45, 48, 79, 127
273334868, 2056, 12095, 6490, 8704, 2789, -700, -4228, 1217, -373, 1266, 172, 393, 337, 82, 44, 49, 82, 114
273335581, 2056, 12095, 6490, 8704, 2789, -700, -4228, 1217, -373, 1266, 172, 393, 337, 82, 44, 49, 82, 114
273349169, 1668, 12316, 6305, 8613, 3191, -556, -4279, 1409, -300, 2344, 172, 393, 337, 82, 44, 49, 82, 114
273357276, 1668, 12316, 6305, 8613, 3191, -556, -4279, 1409, -300, 2344, 131, 318, 302, 71, 41, 59, 132, 105
273358106, 1668, 12316, 6305, 8613, 3191, -556, -4279, 1409, -300, 2344, 131, 318, 302, 71, 41, 59, 132, 105
273372981, 1213, 12604, 5923, 8544, 3504, -10, -4130, 1101, -381, 3529, 131, 318, 302, 71, 41, 59, 132, 105
273373840, 1213, 12604, 5923, 8544, 3504, -10, -4130, 1101, -381, 3529, 151, 210, 240, 67, 62, 141, 314, 167
273374606, 1213, 12604, 5923, 8544, 3504, -10, -4130, 1101, -381, 3529, 151, 210, 240, 67, 62, 141, 314, 167
273386658, 764, 12942, 5303, 8497, 3380, 449, -3895, 357, -537, 4646, 151, 210, 240, 67, 62, 141, 314, 167
273394846, 764, 12942, 5303, 8497, 3380, 449, -3895, 357, -537, 4646, 145, 181, 181, 68, 78, 177, 374, 179
273395608, 764, 12942, 5303, 8497, 3380, 449, -3895, 357, -537, 4646, 145, 181, 181, 68, 78, 177, 374, 179
273409159, 312, 13312, 4426, 8457, 3022, 943, -3755, -379, -661, 5861, 145, 181, 181, 68, 78, 177, 374, 179
273417278, 312, 13312, 4426, 8457, 3022, 943, -3755, -379, -661, 5861, 134, 135, 135, 65, 91, 218, 471, 207
273418117, 312, 13312, 4426, 8457, 3022, 943, -3755, -379, -661, 5861, 134, 135, 135, 65, 91, 218, 471, 207
273433024, -104, 13680, 3234, 8415, 2769, 1675, -3881, -1453, -758, 7192, 134, 135, 135, 65, 91, 218, 471, 207
273433829, -104, 13680, 3234, 8415, 2769, 1675, -3881, -1453, -758, 7192, 127, 118, 116, 65, 97, 236, 515, 212
273434673, -104, 13680, 3234, 8415, 2769, 1675, -3881, -1453, -758, 7192, 127, 118, 116, 65, 97, 236, 515, 212
273446694, -363, 14015, 1705, 8303, 2333, 1911, -3990, -3086, -1150, 8304, 127, 118, 116, 65, 97, 236, 515, 212
273454857, -363, 14015, 1705, 8303, 2333, 1911, -3990, -3086, -1150, 8304, 132, 111, 124, 71, 114, 268, 582, 231
273455595, -363, 14015, 1705, 8303, 2333, 1911, -3990, -3086, -1150, 8304, 132, 111, 124, 71, 114, 268, 582, 231
273469184, -512, 14291, -39, 7995, 2001, 1737, -4126, -4114, -1969, 9021, 132, 111, 124, 71, 114, 268, 582, 231
273477266, -512, 14291, -39, 7995, 2001, 1737, -4126, -4114, -1969, 9021, 116, 123, 139, 76, 115, 270, 575, 220
273478106, -512, 14291, -39, 7995, 2001, 1737, -4126, -4114, -1969, 9021, 116, 123, 139, 76, 115, 270, 575, 220
273492996, -598, 14469, -1840, 7437, 1977, 1535, -4197, -4567, -2917, 9184, 116, 123, 139, 76, 115, 270, 575, 220
273493829, -598, 14469, -1840, 7437, 1977, 1535, -4197, -4567, -2917, 9184, 117, 127, 136, 81, 115, 261, 560, 217
273494646, -598, 14469, -1840, 7437, 1977, 1535, -4197, -4567, -2917, 9184, 117, 127, 136, 81, 115, 261, 560, 217
273507181, -643, 14541, -3477, 6669, 2311, 1512, -4136, -4458, -3694, 8363, 117, 127, 136, 81, 115, 261, 560, 217
273514781, -643, 14541, -3477, 6669, 2311, 1512, -4136, -4458, -3694, 8363, 129, 135, 139, 99, 111, 234, 494, 203
273515578, -643, 14541, -3477, 6669, 2311, 1512, -4136, -4458, -3694, 8363, 129, 135, 139, 99, 111, 234, 494, 203
273529197, -608, 14558, -4734, 5805, 2844, 1755, -3906, -4088, -4032, 6361, 129, 135, 139, 99, 111, 234, 494, 203
273537254, -608, 14558, -4734, 5805, 2844, 1755, -3906, -4088, -4032, 6361, 326, 363, 188, 107, 109, 218, 454, 252
273538105, -608, 14558, -4734, 5805, 2844, 1755, -3906, -4088, -4032, 6361, 326, 363, 188, 107, 109, 218, 454, 252
273552305, -386, 14567, -5631, 4936, 3465, 1537, -3948, -4297, -3802, 4197, 326, 363, 188, 107, 109, 218, 454, 252
273553102, -386, 14567, -5631, 4936, 3465, 1537, -3948, -4297, -3802, 4197, 365, 430, 245, 109, 100, 194, 394, 232
273559076, -386, 14567, -5631, 4936, 3465, 1537, -3948, -4297, -3802, 4197, 365, 430, 245, 109, 100, 194, 394, 232
273566857, -219, 14570, -6243, 4137, 4324, 1785, -3454, -3409, -3586, 2867, 365, 430, 245, 109, 100, 194, 394, 232
273574797, -219, 14570, -6243, 4137, 4324, 1785, -3454, -3409, -3586, 2867, 384, 481, 269, 110, 92, 146, 299, 213
273575576, -219, 14570, -6243, 4137, 4324, 1785, -3454, -3409, -3586, 2867, 384, 481, 269, 110, 92, 146, 299, 213
273589161, -498, 14517, -6748, 3448, 3175, 1916, -2956, -795, -3919, 3074, 384, 481, 269, 110, 92, 146, 299, 213
273597254, -498, 14517, -6748, 3448, 3175, 1916, -2956, -795, -3919, 3074, 396, 501, 279, 105, 78, 127, 284, 218
273598066, -498, 14517, -6748, 3448, 3175, 1916, -2956, -795, -3919, 3074, 396, 501, 279, 105, 78, 127, 284, 218
273612338, -916, 14401, -7168, 2971, 3529, 1299, -2267, 501, -3123, 2928, 396, 501, 279, 105, 78, 127, 284, 218
273613090, -916, 14401, -7168, 2971, 3529, 1299, -2267, 501, -3123, 2928, 394, 503, 280, 85, 73, 120, 275, 208
273619080, -916, 14401, -7168, 2971, 3529, 1299, -2267, 501, -3123, 2928, 394, 503, 280, 85, 73, 120, 275, 208
273626777, -1129, 14296, -7405, 2819, 3606, 1552, -2137, 468, -1090, 1685, 394, 503, 280, 85, 73, 120, 275, 208
273634778, -1129, 14296, -7405, 2819, 3606, 1552, -2137, 468, -1090, 1685, 259, 372, 243, 71, 79, 124, 270, 138
273635594, -1129, 14296, -7405, 2819, 3606, 1552, -2137, 468, -1090, 1685, 259, 372, 243, 71, 79, 124, 270, 138
273649159, -1130, 14257, -7455, 2881, 3228, 1586, -2536, 127, 357, 323, 259, 372, 243, 71, 79, 124, 270, 138
273657304, -1130, 14257, -7455, 2881, 3228, 1586, -2536, 127, 357, 323, 193, 290, 175, 63, 66, 89, 201, 133
273658143, -1130, 14257, -7455, 2881, 3228, 1586, -2536, 127, 357, 323, 193, 290, 175, 63, 66, 89, 201, 133
273671631, -1173, 14207, -7445, 3126, 3115, 1933, -3016, 861, 1131, 24, 193, 290, 175, 63, 66, 89, 201, 133
273679857, -1173, 14207, -7445, 3126, 3115, 1933, -3016, 861, 1131, 24, 141, 204, 128, 56, 60, 83, 193, 118
273680606, -1173, 14207, -7445, 3126, 3115, 1933, -3016, 861, 1131, 24, 141, 204, 128, 56, 60, 83, 193, 118
273686785, -1232, 14154, -7424, 3384, 2976, 1894, -3211, 985, 1148, -7, 141, 204, 128, 56, 60, 83, 193, 118
273694841, -1232, 14154, -7424, 3384, 2976, 1894, -3211, 985, 1148, -7, 100, 156, 100, 54, 62, 74, 142, 82
273695635, -1232, 14154, -7424, 3384, 2976, 1894, -3211, 985, 1148, -7, 100, 156, 100, 54, 62, 74, 142, 82
273709130, -1251, 14128, -7369, 3601, 2812, 1561, -3296, 719, 1008, -269, 100, 156, 100, 54, 62, 74, 142, 82
273717290, -1251, 14128, -7369, 3601, 2812, 1561, -3296, 719, 1008, -269, 89, 144, 92, 55, 57, 62, 118, 71
273718103, -1251, 14128, -7369, 3601, 2812, 1561, -3296, 719, 1008, -269, 89, 144, 92, 55, 57, 62, 118, 71
273731634, -1192, 14115, -7294, 3819, 2858, 1345, -3341, 357, 1182, -497, 89, 144, 92, 55, 57, 62, 118, 71
273739829, -1192, 14115, -7294, 3819, 2858, 1345, -3341, 357, 1182, -497, 66, 133, 83, 54, 43, 44, 91, 53
273740607, -1192, 14115, -7294, 3819, 2858, 1345, -3341, 357, 1182, -497, 66, 133, 83, 54, 43, 44, 91, 53
273746731, -1034, 14122, -7168, 4066, 2854, 1424, -3285, 14, 1525, -932, 66, 133, 83, 54, 43, 44, 91, 53
273754868, -1034, 14122, -7168, 4066, 2854, 1424, -3285, 14, 1525, -932, 60, 126, 81, 44, 40, 43, 87, 59
273755628, -1034, 14122, -7168, 4066, 2854, 1424, -3285, 14, 1525, -932, 60, 126, 81, 44, 40, 43, 87, 59
273769118, -823, 14162, -6943, 4356, 2856, 1365, -3279, -7, 1778, -1579, 60, 126, 81, 44, 40, 43, 87, 59
273777278, -823, 14162, -6943, 4356, 2856, 1365, -3279, -7, 1778, -1579, 92, 137, 72, 37, 40, 36, 60, 61
273778104, -823, 14162, -6943, 4356, 2856, 1365, -3279, -7, 1778, -1579, 92, 137, 72, 37, 40, 36, 60, 61
273791655, -597, 14225, -6608, 4697, 2858, 1193, -3296, 193, 1999, -2206, 92, 137, 72, 37, 40, 36, 60, 61
273799760, -597, 14225, -6608, 4697, 2858, 1193, -3296, 193, 1999, -2206, 125, 145, 79, 38, 37, 33, 59, 79
273800596, -597, 14225, -6608, 4697, 2858, 1193, -3296, 193, 1999, -2206, 125, 145, 79, 38, 37, 33, 59, 79
273806753, -329, 14299, -6157, 5093, 2887, 1025, -3333, 539, 2237, -2697, 125, 145, 79, 38, 37, 33, 59, 79
273814857, -329, 14299, -6157, 5093, 2887, 1025, -3333, 539, 2237, -2697, 133, 152, 99, 41, 34, 31, 55, 81
273815581, -329, 14299, -6157, 5093, 2887, 1025, -3333, 539, 2237, -2697, 133, 152, 99, 41, 34, 31, 55, 81
273829170, -68, 14361, -5622, 5530, 2801, 1006, -3539, 794, 2495, -3081, 133, 152, 99, 41, 34, 31, 55, 81
