Timestamp, Orientation x, Orientation y, Orientation z, Orientation w, Acceleration x, Acceleration y, Acceleration z, Rotation x, Rotation y, Rotation z, EMG 0, EMG 1, EMG 2, EMG 3, EMG 4, EMG 5, EMG 6, EMG 7
171614997, 1973, 15663, 2303, 3724, 1747, 1271, -3739, 0, -4, 13, 0, 0, 0, 0, 0, 0, 0, 0
171622537, 1973, 15663, 2303, 3725, 1740, 1283, -3738, 3, -4, 5, 0, 0, 0, 0, 0, 0, 0, 0
171629954, 1973, 15663, 2303, 3725, 1747, 1282, -3748, 12, -8, -2, 0, 0, 0, 0, 0, 0, 0, 0
171644965, 1972, 15664, 2302, 3722, 1739, 1280, -3742, 14, -20, 8, 0, 0, 0, 0, 0, 0, 0, 0
171667533, 1971, 15665, 2299, 3720, 1745, 1284, -3740, 10, -28, 18, 0, 0, 0, 0, 0, 0, 0, 0
171691255, 1971, 15665, 2299, 3720, 1745, 1284, -3740, 10, -28, 18, 42, 44, 47, 44, 40, 35, 28, 52
171692105, 1971, 15665, 2299, 3720, 1745, 1284, -3740, 10, -28, 18, 42, 44, 47, 44, 40, 35, 28, 52
171693005, 1975, 15666, 2295, 3718, 1740, 1284, -3733, -13, -22, 17, 42, 44, 47, 44, 40, 35, 28, 52
171706330, 1975, 15666, 2295, 3718, 1740, 1284, -3733, -13, -22, 17, 45, 47, 45, 46, 44, 36, 30, 47
171707128, 1975, 15666, 2295, 3718, 1740, 1284, -3733, -13, -22, 17, 45, 47, 45, 46, 44, 36, 30, 47
171708121, 1983, 15665, 2291, 3719, 1738, 1296, -3743, -41, -13, 10, 45, 47, 45, 46, 44, 36, 30, 47
171728858, 1983, 15665, 2291, 3719, 1738, 1296, -3743, -41, -13, 10, 41, 44, 46, 45, 38, 36, 30, 48
171729596, 1983, 15665, 2291, 3719, 1738, 1296, -3743, -41, -13, 10, 41, 44, 46, 45, 38, 36, 30, 48
171730520, 1990, 15665, 2288, 3719, 1737, 1284, -3744, -36, -11, 9, 41, 44, 46, 45, 38, 36, 30, 48
171751356, 1990, 15665, 2288, 3719, 1737, 1284, -3744, -36, -11, 9, 44, 45, 54, 43, 39, 38, 34, 54
171752115, 1990, 15665, 2288, 3719, 1737, 1284, -3744, -36, -11, 9, 44, 45, 54, 43, 39, 38, 34, 54
171753057, 1990, 15665, 2288, 3720, 1739, 1277, -3744, -16, -9, 14, 44, 45, 54, 43, 39, 38, 34, 54
171773844, 1990, 15665, 2288, 3720, 1739, 1277, -3744, -16, -9, 14, 48, 42, 51, 42, 40, 34, 39, 56
171774607, 1990, 15665, 2288, 3720, 1739, 1277, -3744, -16, -9, 14, 48, 42, 51, 42, 40, 34, 39, 56
171775571, 1990, 15665, 2288, 3720, 1747, 1279, -3733, -8, -5, 8, 48, 42, 51, 42, 40, 34, 39, 56
171788829, 1990, 15665, 2288, 3720, 1747, 1279, -3733, -8, -5, 8, 50, 45, 56, 41, 39, 30, 38, 53
171789650, 1990, 15665, 2288, 3720, 1747, 1279, -3733, -8, -5, 8, 50, 45, 56, 41, 39, 30, 38, 53
171790546, 1990, 15664, 2288, 3721, 1744, 1286, -3731, -13, -7, -1, 50, 45, 56, 41, 39, 30, 38, 53
171811334, 1990, 15664, 2288, 3721, 1744, 1286, -3731, -13, -7, -1, 49, 46, 58, 38, 34, 31, 41, 57
171812134, 1990, 15664, 2288, 3721, 1744, 1286, -3731, -13, -7, -1, 49, 46, 58, 38, 34, 31, 41, 57
171813040, 1991, 15664, 2288, 3721, 1740, 1295, -3740, -11, -12, 2, 49, 46, 58, 38, 34, 31, 41, 57
171826338, 1991, 15664, 2288, 3721, 1740, 1295, -3740, -11, -12, 2, 52, 45, 60, 36, 44, 26, 44, 66
171827127, 1991, 15664, 2288, 3721, 1740, 1295, -3740, -11, -12, 2, 52, 45, 60, 36, 44, 26, 44, 66
171828056, 1993, 15665, 2286, 3720, 1747, 1290, -3740, -8, -21, 8, 52, 45, 60, 36, 44, 26, 44, 66
171848853, 1993, 15665, 2286, 3720, 1747, 1290, -3740, -8, -21, 8, 48, 46, 52, 38, 41, 29, 43, 63
171849532, 1993, 15665, 2286, 3720, 1747, 1290, -3740, -8, -21, 8, 48, 46, 52, 38, 41, 29, 43, 63
171850573, 1997, 15664, 2283, 3719, 1747, 1290, -3725, -18, -21, 5, 48, 46, 52, 38, 41, 29, 43, 63
171871316, 1997, 15664, 2283, 3719, 1747, 1290, -3725, -18, -21, 5, 42, 46, 51, 40, 40, 29, 37, 60
171872104, 1997, 15664, 2283, 3719, 1747, 1290, -3725, -18, -21, 5, 42, 46, 51, 40, 40, 29, 37, 60
171873084, 2001, 15664, 2282, 3719, 1742, 1275, -3713, -19, -18, 0, 42, 46, 51, 40, 40, 29, 37, 60
171886278, 2001, 15664, 2282, 3719, 1742, 1275, -3713, -19, -18, 0, 44, 44, 45, 44, 50, 31, 38, 62
171887144, 2001, 15664, 2282, 3719, 1742, 1275, -3713, -19, -18, 0, 44, 44, 45, 44, 50, 31, 38, 62
171888033, 2004, 15664, 2280, 3718, 1744, 1277, -3739, -19, -18, 0, 44, 44, 45, 44, 50, 31, 38, 62
171908761, 2004, 15664, 2280, 3718, 1744, 1277, -3739, -19, -18, 0, 42, 42, 45, 43, 51, 31, 37, 57
171909606, 2004, 15664, 2280, 3718, 1744, 1277, -3739, -19, -18, 0, 42, 42, 45, 43, 51, 31, 37, 57
171910505, 2004, 15664, 2280, 3719, 1735, 1278, -3732, -10, -13, -1, 42, 42, 45, 43, 51, 31, 37, 57
171931297, 2004, 15664, 2280, 3719, 1735, 1278, -3732, -10, -13, -1, 47, 47, 41, 45, 48, 36, 33, 50
171932106, 2004, 15664, 2280, 3719, 1735, 1278, -3732, -10, -13, -1, 47, 47, 41, 45, 48, 36, 33, 50
171933023, 2003, 15664, 2280, 3719, 1744, 1278, -3740, -10, -4, -9, 47, 47, 41, 45, 48, 36, 33, 50
171946297, 2003, 15664, 2280, 3719, 1744, 1278, -3740, -10, -4, -9, 64, 61, 56, 47, 53, 33, 36, 56
171947126, 2003, 15664, 2280, 3719, 1744, 1278, -3740, -10, -4, -9, 64, 61, 56, 47, 53, 33, 36, 56
171948059, 2009, 15663, 2284, 3721, 1741, 1300, -3723, -15, -4, -30, 64, 61, 56, 47, 53, 33, 36, 56
171968840, 2009, 15663, 2284, 3721, 1741, 1300, -3723, -15, -4, -30, 72, 75, 79, 54, 62, 37, 54, 72
171969632, 2009, 15663, 2284, 3721, 1741, 1300, -3723, -15, -4, -30, 72, 75, 79, 54, 62, 37, 54, 72
171970596, 2012, 15660, 2293, 3724, 1764, 1282, -3715, -12, -1, -58, 72, 75, 79, 54, 62, 37, 54, 72
171991337, 2013, 15657, 2296, 3733, 1765, 1216, -3731, -43, 35, -39, 72, 75, 79, 54, 62, 37, 54, 72
171992099, 2013, 15657, 2296, 3733, 1765, 1216, -3731, -43, 35, -39, 79, 84, 94, 61, 54, 42, 56, 73
171992915, 2013, 15657, 2296, 3733, 1765, 1216, -3731, -43, 35, -39, 79, 84, 94, 61, 54, 42, 56, 73
172013860, 2033, 15655, 2287, 3738, 1707, 1226, -3818, -173, 36, 13, 79, 84, 94, 61, 54, 42, 56, 73
172014534, 2033, 15655, 2287, 3738, 1707, 1226, -3818, -173, 36, 13, 80, 88, 146, 72, 56, 48, 64, 79
172015433, 2033, 15655, 2287, 3738, 1707, 1226, -3818, -173, 36, 13, 80, 88, 146, 72, 56, 48, 64, 79
172036340, 2060, 15658, 2271, 3719, 1667, 1306, -3837, -168, -86, 49, 80, 88, 146, 72, 56, 48, 64, 79
172037104, 2060, 15658, 2271, 3719, 1667, 1306, -3837, -168, -86, 49, 92, 99, 175, 102, 64, 52, 75, 91
172037957, 2060, 15658, 2271, 3719, 1667, 1306, -3837, -168, -86, 49, 92, 99, 175, 102, 64, 52, 75, 91
172051281, 2061, 15667, 2272, 3682, 1749, 1419, -3725, 91, -237, -8, 92, 99, 175, 102, 64, 52, 75, 91
172052113, 2061, 15667, 2272, 3682, 1749, 1419, -3725, 91, -237, -8, 87, 102, 180, 112, 73, 57, 92, 93
172052906, 2061, 15667, 2272, 3682, 1749, 1419, -3725, 91, -237, -8, 87, 102, 180, 112, 73, 57, 92, 93
172066311, 2043, 15667, 2296, 3677, 1785, 1325, -3559, 173, -76, -116, 87, 102, 180, 112, 73, 57, 92, 93
172067103, 2043, 15667, 2296, 3677, 1785, 1325, -3559, 173, -76, -116, 87, 110, 182, 114, 76, 62, 92, 94
172067886, 2043, 15667, 2296, 3677, 1785, 1325, -3559, 173, -76, -116, 87, 110, 182, 114, 76, 62, 92, 94
172088869, 2059, 15650, 2321, 3723, 1791, 1302, -3579, -85, 197, -152, 87, 110, 182, 114, 76, 62, 92, 94
172089635, 2059, 15650, 2321, 3723, 1791, 1302, -3579, -85, 197, -152, 95, 119, 206, 114, 77, 59, 92, 100
172090440, 2059, 15650, 2321, 3723, 1791, 1302, -3579, -85, 197, -152, 95, 119, 206, 114, 77, 59, 92, 100
172111271, 2131, 15627, 2330, 3772, 1707, 1329, -3772, -447, 269, -126, 95, 119, 206, 114, 77, 59, 92, 100
172112091, 2131, 15627, 2330, 3772, 1707, 1329, -3772, -447, 269, -126, 104, 120, 179, 117, 78, 55, 88, 102
172112875, 2131, 15627, 2330, 3772, 1707, 1329, -3772, -447, 269, -126, 104, 120, 179, 117, 78, 55, 88, 102
172124973, 2187, 15621, 2323, 3770, 1665, 1349, -3904, -363, 26, -35, 104, 120, 179, 117, 78, 55, 88, 102
172133170, 2187, 15621, 2323, 3770, 1665, 1349, -3904, -363, 26, -35, 99, 120, 167, 107, 69, 50, 80, 90
172133915, 2187, 15621, 2323, 3770, 1665, 1349, -3904, -363, 26, -35, 99, 120, 167, 107, 69, 50, 80, 90
172148831, 2166, 15635, 2311, 3732, 1718, 1249, -3816, 57, -196, 46, 99, 120, 167, 107, 69, 50, 80, 90
172149631, 2166, 15635, 2311, 3732, 1718, 1249, -3816, 57, -196, 46, 95, 128, 174, 105, 61, 48, 61, 86
172150452, 2166, 15635, 2311, 3732, 1718, 1249, -3816, 57, -196, 46, 95, 128, 174, 105, 61, 48, 61, 86
172171321, 2111, 15653, 2294, 3696, 1719, 1169, -3690, 243, -198, 109, 95, 128, 174, 105, 61, 48, 61, 86
172172125, 2111, 15653, 2294, 3696, 1719, 1169, -3690, 243, -198, 109, 93, 118, 173, 102, 55, 44, 50, 76
172172943, 2111, 15653, 2294, 3696, 1719, 1169, -3690, 243, -198, 109, 93, 118, 173, 102, 55, 44, 50, 76
172184957, 2079, 15663, 2279, 3684, 1730, 1267, -3636, 159, -102, 103, 93, 118, 173, 102, 55, 44, 50, 76
172193080, 2079, 15663, 2279, 3684, 1730, 1267, -3636, 159, -102, 103, 84, 105, 138, 98, 56, 58, 128, 84
172193880, 2079, 15663, 2279, 3684, 1730, 1267, -3636, 159, -102, 103, 84, 105, 138, 98, 56, 58, 128, 84
172208768, 2074, 15661, 2281, 3693, 1753, 1362, -3649, 63, 16, 1, 84, 105, 138, 98, 56, 58, 128, 84
172209578, 2074, 15661, 2281, 3693, 1753, 1362, -3649, 63, 16, 1, 73, 108, 137, 88, 57, 58, 139, 74
172210444, 2074, 15661, 2281, 3693, 1753, 1362, -3649, 63, 16, 1, 73, 108, 137, 88, 57, 58, 139, 74
172231341, 2090, 15652, 2304, 3707, 1723, 1400, -3679, -29, 70, -127, 73, 108, 137, 88, 57, 58, 139, 74
172232126, 2090, 15652, 2304, 3707, 1723, 1400, -3679, -29, 70, -127, 69, 109, 155, 77, 64, 61, 158, 79
172232958, 2090, 15652, 2304, 3707, 1723, 1400, -3679, -29, 70, -127, 69, 109, 155, 77, 64, 61, 158, 79
172244955, 2109, 15645, 2324, 3712, 1703, 1338, -3768, -95, 45, -133, 69, 109, 155, 77, 64, 61, 158, 79
172253100, 2109, 15645, 2324, 3712, 1703, 1338, -3768, -95, 45, -133, 67, 89, 142, 83, 63, 58, 160, 83
172253854, 2109, 15645, 2324, 3712, 1703, 1338, -3768, -95, 45, -133, 67, 89, 142, 83, 63, 58, 160, 83
172268844, 2112, 15647, 2323, 3707, 1685, 1241, -3751, -66, -17, -17, 67, 89, 142, 83, 63, 58, 160, 83
172269578, 2112, 15647, 2323, 3707, 1685, 1241, -3751, -66, -17, -17, 68, 92, 152, 90, 63, 57, 164, 83
172270403, 2112, 15647, 2323, 3707, 1685, 1241, -3751, -66, -17, -17, 68, 92, 152, 90, 63, 57, 164, 83
172291312, 2097, 15655, 2307, 3691, 1675, 1243, -3764, 31, -75, 84, 68, 92, 152, 90, 63, 57, 164, 83
172292126, 2097, 15655, 2307, 3691, 1675, 1243, -3764, 31, -75, 84, 73, 109, 194, 107, 64, 72, 148, 87
172292918, 2097, 15655, 2307, 3691, 1675, 1243, -3764, 31, -75, 84, 73, 109, 194, 107, 64, 72, 148, 87
172306303, 2062, 15663, 2300, 3680, 1743, 1269, -3688, 184, -80, 60, 73, 109, 194, 107, 64, 72, 148, 87
172307131, 2062, 15663, 2300, 3680, 1743, 1269, -3688, 184, -80, 60, 95, 130, 254, 134, 72, 94, 216, 121
172307928, 2062, 15663, 2300, 3680, 1743, 1269, -3688, 184, -80, 60, 95, 130, 254, 134, 72, 94, 216, 121
172328856, 2033, 15663, 2312, 3688, 1780, 1328, -3678, 188, 21, -28, 95, 130, 254, 134, 72, 94, 216, 121
172329583, 2033, 15663, 2312, 3688, 1780, 1328, -3678, 188, 21, -28, 107, 133, 249, 136, 72, 99, 215, 122
172330428, 2033, 15663, 2312, 3688, 1780, 1328, -3678, 188, 21, -28, 107, 133, 249, 136, 72, 99, 215, 122
172351307, 2037, 15656, 2335, 3702, 1732, 1387, -3754, 31, 86, -108, 107, 133, 249, 136, 72, 99, 215, 122
172352144, 2037, 15656, 2335, 3702, 1732, 1387, -3754, 31, 86, -108, 112, 162, 279, 152, 74, 99, 217, 118
172352928, 2037, 15656, 2335, 3702, 1732, 1387, -3754, 31, 86, -108, 112, 162, 279, 152, 74, 99, 217, 118
172366308, 2075, 15649, 2355, 3699, 1649, 1347, -3748, -170, 8, -153, 112, 162, 279, 152, 74, 99, 217, 118
172367143, 2075, 15649, 2355, 3699, 1649, 1347, -3748, -170, 8, -153, 113, 159, 282, 150, 68, 98, 216, 117
172367929, 2075, 15649, 2355, 3699, 1649, 1347, -3748, -170, 8, -153, 113, 159, 282, 150, 68, 98, 216, 117
172388767, 2045, 15657, 2348, 3686, 1729, 1189, -3745, 109, -77, 41, 113, 159, 282, 150, 68, 98, 216, 117
172389566, 2045, 15657, 2348, 3686, 1729, 1189, -3745, 109, -77, 41, 119, 151, 258, 139, 67, 80, 196, 107
172390388, 2045, 15657, 2348, 3686, 1729, 1189, -3745, 109, -77, 41, 119, 151, 258, 139, 67, 80, 196, 107
172411299, 2017, 15667, 2303, 3686, 1766, 1170, -3706, 49, -61, 248, 119, 151, 258, 139, 67, 80, 196, 107
172412089, 2017, 15667, 2303, 3686, 1766, 1170, -3706, 49, -61, 248, 104, 133, 196, 117, 57, 54, 113, 72
172412906, 2017, 15667, 2303, 3686, 1766, 1170, -3706, 49, -61, 248, 104, 133, 196, 117, 57, 54, 113, 72
172426282, 2019, 15668, 2284, 3690, 1718, 1307, -3694, -23, -7, 105, 104, 133, 196, 117, 57, 54, 113, 72
172427126, 2019, 15668, 2284, 3690, 1718, 1307, -3694, -23, -7, 105, 91, 123, 190, 113, 54, 52, 109, 75
172427903, 2019, 15668, 2284, 3690, 1718, 1307, -3694, -23, -7, 105, 91, 123, 190, 113, 54, 52, 109, 75
172448756, 2015, 15666, 2304, 3691, 1702, 1332, -3752, 64, 28, -89, 91, 123, 190, 113, 54, 52, 109, 75
172449580, 2015, 15666, 2304, 3691, 1702, 1332, -3752, 64, 28, -89, 82, 83, 141, 77, 54, 50, 105, 74
172450388, 2015, 15666, 2304, 3691, 1702, 1332, -3752, 64, 28, -89, 82, 83, 141, 77, 54, 50, 105, 74
172471281, 2004, 15666, 2319, 3687, 1714, 1291, -3758, 81, -6, -70, 82, 83, 141, 77, 54, 50, 105, 74
172472130, 2004, 15666, 2319, 3687, 1714, 1291, -3758, 81, -6, -70, 78, 91, 123, 74, 58, 50, 100, 71
172472902, 2004, 15666, 2319, 3687, 1714, 1291, -3758, 81, -6, -70, 78, 91, 123, 74, 58, 50, 100, 71
172485584, 2005, 15667, 2316, 3684, 1702, 1305, -3708, 13, -30, 16, 78, 91, 123, 74, 58, 50, 100, 71
172486424, 2005, 15667, 2316, 3684, 1702, 1305, -3708, 13, -30, 16, 60, 84, 120, 72, 58, 48, 96, 67
