Timestamp, Orientation x, Orientation y, Orientation z, Orientation w, Acceleration x, Acceleration y, Acceleration z, Rotation x, Rotation y, Rotation z, EMG 0, EMG 1, EMG 2, EMG 3, EMG 4, EMG 5, EMG 6, EMG 7
308666279, 4678, 14245, -5716, 3309, 2522, 1644, -3468, 7, -10, 7, 0, 0, 0, 0, 0, 0, 0, 0
308667058, 4679, 14243, -5720, 3306, 2524, 1649, -3462, -12, -14, 19, 0, 0, 0, 0, 0, 0, 0, 0
308680534, 4681, 14242, -5723, 3303, 2532, 1642, -3466, -14, -19, 13, 0, 0, 0, 0, 0, 0, 0, 0
308702977, 4680, 14242, -5727, 3300, 2531, 1639, -3458, -2, -32, 14, 0, 0, 0, 0, 0, 0, 0, 0
308725540, 4678, 14241, -5733, 3296, 2516, 1648, -3439, 5, -40, 34, 0, 0, 0, 0, 0, 0, 0, 0
308733612, 4678, 14241, -5733, 3296, 2516, 1648, -3439, 5, -40, 34, 45, 52, 61, 38, 42, 85, 181, 105
308734441, 4678, 14241, -5733, 3296, 2516, 1648, -3439, 5, -40, 34, 45, 52, 61, 38, 42, 85, 181, 105
308740622, 4678, 14238, -5743, 3290, 2509, 1657, -3445, -10, -44, 55, 45, 52, 61, 38, 42, 85, 181, 105
308756104, 4678, 14238, -5743, 3290, 2509, 1657, -3445, -10, -44, 55, 51, 55, 64, 37, 44, 100, 233, 126
308756932, 4678, 14238, -5743, 3290, 2509, 1657, -3445, -10, -44, 55, 51, 55, 64, 37, 44, 100, 233, 126
308763153, 4684, 14234, -5752, 3284, 2515, 1706, -3437, -20, -41, 57, 51, 55, 64, 37, 44, 100, 233, 126
308778662, 4684, 14234, -5752, 3284, 2515, 1706, -3437, -20, -41, 57, 53, 70, 81, 38, 44, 111, 278, 147
308779451, 4684, 14234, -5752, 3284, 2515, 1706, -3437, -20, -41, 57, 53, 70, 81, 38, 44, 111, 278, 147
308785602, 4697, 14228, -5763, 3274, 2514, 1732, -3449, -64, -38, 65, 53, 70, 81, 38, 44, 111, 278, 147
308793635, 4697, 14228, -5763, 3274, 2514, 1732, -3449, -64, -38, 65, 51, 75, 82, 36, 39, 114, 285, 145
308794403, 4697, 14228, -5763, 3274, 2514, 1732, -3449, -64, -38, 65, 51, 75, 82, 36, 39, 114, 285, 145
308800567, 4726, 14214, -5784, 3253, 2504, 1763, -3464, -183, -58, 97, 51, 75, 82, 36, 39, 114, 285, 145
308816174, 4726, 14214, -5784, 3253, 2504, 1763, -3464, -183, -58, 97, 57, 118, 108, 45, 43, 116, 286, 149
308816977, 4726, 14214, -5784, 3253, 2504, 1763, -3464, -183, -58, 97, 57, 118, 108, 45, 43, 116, 286, 149
308823106, 4780, 14182, -5837, 3219, 2522, 1730, -3512, -430, -90, 224, 57, 118, 108, 45, 43, 116, 286, 149
308838631, 4780, 14182, -5837, 3219, 2522, 1730, -3512, -430, -90, 224, 60, 130, 126, 54, 40, 99, 257, 131
308839481, 4780, 14182, -5837, 3219, 2522, 1730, -3512, -430, -90, 224, 60, 130, 126, 54, 40, 99, 257, 131
308845606, 4839, 14136, -5924, 3175, 2522, 1772, -3483, -520, -183, 396, 60, 130, 126, 54, 40, 99, 257, 131
308853577, 4839, 14136, -5924, 3175, 2522, 1772, -3483, -520, -183, 396, 114, 249, 180, 62, 51, 105, 265, 144
308854445, 4839, 14136, -5924, 3175, 2522, 1772, -3483, -520, -183, 396, 114, 249, 180, 62, 51, 105, 265, 144
308860641, 4892, 14082, -6033, 3130, 2560, 1761, -3404, -526, -258, 507, 114, 249, 180, 62, 51, 105, 265, 144
308876136, 4892, 14082, -6033, 3130, 2560, 1761, -3404, -526, -258, 507, 130, 284, 192, 64, 52, 97, 235, 133
308876995, 4892, 14082, -6033, 3130, 2560, 1761, -3404, -526, -258, 507, 130, 284, 192, 64, 52, 97, 235, 133
308883106, 4957, 14020, -6141, 3097, 2647, 1762, -3319, -559, -222, 512, 130, 284, 192, 64, 52, 97, 235, 133
308898636, 4957, 14020, -6141, 3097, 2647, 1762, -3319, -559, -222, 512, 142, 294, 199, 66, 57, 132, 279, 154
308899496, 4957, 14020, -6141, 3097, 2647, 1762, -3319, -559, -222, 512, 142, 294, 199, 66, 57, 132, 279, 154
308905606, 5033, 13951, -6242, 3080, 2689, 1836, -3246, -550, -132, 516, 142, 294, 199, 66, 57, 132, 279, 154
308913656, 5033, 13951, -6242, 3080, 2689, 1836, -3246, -550, -132, 516, 145, 326, 237, 77, 59, 136, 285, 156
308914439, 5033, 13951, -6242, 3080, 2689, 1836, -3246, -550, -132, 516, 145, 326, 237, 77, 59, 136, 285, 156
308920616, 5108, 13891, -6323, 3067, 2756, 1918, -3295, -495, -86, 417, 145, 326, 237, 77, 59, 136, 285, 156
308936150, 5108, 13891, -6323, 3067, 2756, 1918, -3295, -495, -86, 417, 167, 350, 246, 75, 62, 137, 274, 157
308936976, 5108, 13891, -6323, 3067, 2756, 1918, -3295, -495, -86, 417, 167, 350, 246, 75, 62, 137, 274, 157
308943146, 5219, 13841, -6354, 3039, 2845, 2087, -3325, -585, -13, 121, 167, 350, 246, 75, 62, 137, 274, 157
308958626, 5219, 13841, -6354, 3039, 2845, 2087, -3325, -585, -13, 121, 143, 304, 250, 75, 58, 122, 224, 130
308959468, 5219, 13841, -6354, 3039, 2845, 2087, -3325, -585, -13, 121, 143, 304, 250, 75, 58, 122, 224, 130
308965603, 5358, 13817, -6313, 2990, 2839, 2189, -3304, -644, 55, -340, 143, 304, 250, 75, 58, 122, 224, 130
308973657, 5358, 13817, -6313, 2990, 2839, 2189, -3304, -644, 55, -340, 142, 305, 262, 76, 57, 115, 195, 122
308974428, 5358, 13817, -6313, 2990, 2839, 2189, -3304, -644, 55, -340, 142, 305, 262, 76, 57, 115, 195, 122
308980582, 5489, 13824, -6208, 2944, 2848, 2187, -3234, -502, 122, -735, 142, 305, 262, 76, 57, 115, 195, 122
308996127, 5489, 13824, -6208, 2944, 2848, 2187, -3234, -502, 122, -735, 149, 323, 270, 78, 54, 66, 99, 89
308996957, 5489, 13824, -6208, 2944, 2848, 2187, -3234, -502, 122, -735, 149, 323, 270, 78, 54, 66, 99, 89
309003080, 5639, 13841, -6037, 2932, 2902, 2055, -3119, -514, 395, -1107, 149, 323, 270, 78, 54, 66, 99, 89
309018624, 5639, 13841, -6037, 2932, 2902, 2055, -3119, -514, 395, -1107, 151, 305, 240, 65, 51, 54, 66, 81
309019428, 5639, 13841, -6037, 2932, 2902, 2055, -3119, -514, 395, -1107, 151, 305, 240, 65, 51, 54, 66, 81
309025599, 5814, 13862, -5810, 2950, 2879, 1960, -3044, -581, 709, -1410, 151, 305, 240, 65, 51, 54, 66, 81
309033615, 5814, 13862, -5810, 2950, 2879, 1960, -3044, -581, 709, -1410, 130, 302, 242, 66, 48, 42, 65, 69
309034427, 5814, 13862, -5810, 2950, 2879, 1960, -3044, -581, 709, -1410, 130, 302, 242, 66, 48, 42, 65, 69
309040597, 5942, 13924, -5504, 2988, 2813, 1984, -3031, -123, 948, -1665, 130, 302, 242, 66, 48, 42, 65, 69
309056126, 5942, 13924, -5504, 2988, 2813, 1984, -3031, -123, 948, -1665, 134, 302, 238, 61, 40, 40, 62, 65
309056951, 5942, 13924, -5504, 2988, 2813, 1984, -3031, -123, 948, -1665, 134, 302, 238, 61, 40, 40, 62, 65
309063090, 6000, 14037, -5097, 3069, 2842, 2061, -2981, 498, 1174, -2087, 134, 302, 238, 61, 40, 40, 62, 65
309078633, 6000, 14037, -5097, 3069, 2842, 2061, -2981, 498, 1174, -2087, 131, 278, 221, 57, 41, 44, 63, 64
309079433, 6000, 14037, -5097, 3069, 2842, 2061, -2981, 498, 1174, -2087, 131, 278, 221, 57, 41, 44, 63, 64
309085559, 6044, 14172, -4577, 3177, 2817, 2143, -2936, 774, 1485, -2600, 131, 278, 221, 57, 41, 44, 63, 64
309093626, 6044, 14172, -4577, 3177, 2817, 2143, -2936, 774, 1485, -2600, 113, 246, 212, 53, 37, 39, 63, 61
309094428, 6044, 14172, -4577, 3177, 2817, 2143, -2936, 774, 1485, -2600, 113, 246, 212, 53, 37, 39, 63, 61
309100588, 6127, 14291, -3980, 3285, 2752, 2182, -3028, 619, 1735, -2996, 113, 246, 212, 53, 37, 39, 63, 61
309116116, 6127, 14291, -3980, 3285, 2752, 2182, -3028, 619, 1735, -2996, 113, 240, 237, 54, 30, 35, 68, 54
309116903, 6127, 14291, -3980, 3285, 2752, 2182, -3028, 619, 1735, -2996, 113, 240, 237, 54, 30, 35, 68, 54
309123086, 6253, 14376, -3343, 3388, 2724, 2142, -3077, 354, 1907, -3218, 113, 240, 237, 54, 30, 35, 68, 54
309138612, 6253, 14376, -3343, 3388, 2724, 2142, -3077, 354, 1907, -3218, 110, 218, 225, 48, 27, 32, 59, 55
309139427, 6253, 14376, -3343, 3388, 2724, 2142, -3077, 354, 1907, -3218, 110, 218, 225, 48, 27, 32, 59, 55
309145582, 6408, 14427, -2660, 3484, 2696, 2069, -3171, 149, 2046, -3473, 110, 218, 225, 48, 27, 32, 59, 55
309153604, 6408, 14427, -2660, 3484, 2696, 2069, -3171, 149, 2046, -3473, 100, 198, 195, 53, 34, 34, 61, 54
309154458, 6408, 14427, -2660, 3484, 2696, 2069, -3171, 149, 2046, -3473, 100, 198, 195, 53, 34, 34, 61, 54
309160587, 6572, 14444, -1945, 3579, 2679, 1909, -3268, 25, 2171, -3641, 100, 198, 195, 53, 34, 34, 61, 54
309176080, 6572, 14444, -1945, 3579, 2679, 1909, -3268, 25, 2171, -3641, 96, 193, 199, 58, 36, 58, 122, 74
309176947, 6572, 14444, -1945, 3579, 2679, 1909, -3268, 25, 2171, -3641, 96, 193, 199, 58, 36, 58, 122, 74
309183091, 6699, 14443, -1203, 3673, 2631, 1780, -3299, 162, 2224, -3738, 96, 193, 199, 58, 36, 58, 122, 74
309198607, 6699, 14443, -1203, 3673, 2631, 1780, -3299, 162, 2224, -3738, 98, 202, 217, 63, 40, 68, 136, 87
309199428, 6699, 14443, -1203, 3673, 2631, 1780, -3299, 162, 2224, -3738, 98, 202, 217, 63, 40, 68, 136, 87
309205543, 6738, 14449, -413, 3751, 2610, 1731, -3280, 651, 2204, -3924, 98, 202, 217, 63, 40, 68, 136, 87
309213588, 6738, 14449, -413, 3751, 2610, 1731, -3280, 651, 2204, -3924, 93, 200, 194, 59, 40, 70, 138, 96
309214416, 6738, 14449, -413, 3751, 2610, 1731, -3280, 651, 2204, -3924, 93, 200, 194, 59, 40, 70, 138, 96
309220574, 6705, 14447, 413, 3816, 2575, 1646, -3305, 1024, 2212, -4057, 93, 200, 194, 59, 40, 70, 138, 96
309244323, 6705, 14447, 413, 3816, 2575, 1646, -3305, 1024, 2212, -4057, 101, 216, 201, 61, 42, 71, 141, 95
309245119, 6705, 14447, 413, 3816, 2575, 1646, -3305, 1024, 2212, -4057, 101, 216, 201, 61, 42, 71, 141, 95
309246031, 6649, 14414, 1233, 3863, 2435, 1679, -3386, 1036, 2153, -4037, 101, 216, 201, 61, 42, 71, 141, 95
309258616, 6649, 14414, 1233, 3863, 2435, 1679, -3386, 1036, 2153, -4037, 96, 203, 196, 60, 39, 70, 147, 96
309259428, 6649, 14414, 1233, 3863, 2435, 1679, -3386, 1036, 2153, -4037, 96, 203, 196, 60, 39, 70, 147, 96
309265590, 6568, 14359, 2018, 3876, 2318, 1711, -3464, 1079, 1936, -3918, 96, 203, 196, 60, 39, 70, 147, 96
309273634, 6568, 14359, 2018, 3876, 2318, 1711, -3464, 1079, 1936, -3918, 97, 201, 192, 57, 47, 66, 160, 103
309274428, 6568, 14359, 2018, 3876, 2318, 1711, -3464, 1079, 1936, -3918, 97, 201, 192, 57, 47, 66, 160, 103
309303691, 6444, 14294, 2776, 3856, 2359, 1652, -3415, 1246, 1731, -3829, 97, 201, 192, 57, 47, 66, 160, 103
309304512, 6295, 14202, 3535, 3818, 2355, 1558, -3414, 1327, 1684, -3874, 97, 201, 192, 57, 47, 66, 160, 103
309311089, 6295, 14202, 3535, 3818, 2355, 1558, -3414, 1327, 1684, -3874, 94, 199, 179, 52, 45, 59, 160, 108
309311903, 6295, 14202, 3535, 3818, 2355, 1558, -3414, 1327, 1684, -3874, 94, 199, 179, 52, 45, 59, 160, 108
309326647, 6295, 14202, 3535, 3818, 2355, 1558, -3414, 1327, 1684, -3874, 94, 192, 164, 50, 46, 59, 158, 107
309327508, 6295, 14202, 3535, 3818, 2355, 1558, -3414, 1327, 1684, -3874, 94, 192, 164, 50, 46, 59, 158, 107
309335647, 6295, 14202, 3535, 3818, 2355, 1558, -3414, 1327, 1684, -3874, 94, 192, 164, 50, 46, 59, 158, 107
309336473, 6295, 14202, 3535, 3818, 2355, 1558, -3414, 1327, 1684, -3874, 94, 192, 164, 50, 46, 59, 158, 107
309337231, 6295, 14202, 3535, 3818, 2355, 1558, -3414, 1327, 1684, -3874, 94, 192, 164, 50, 46, 59, 158, 107
309338056, 6295, 14202, 3535, 3818, 2355, 1558, -3414, 1327, 1684, -3874, 94, 192, 164, 50, 46, 59, 158, 107
309343130, 6295, 14202, 3535, 3818, 2355, 1558, -3414, 1327, 1684, -3874, 94, 192, 164, 50, 46, 59, 158, 107
309343927, 6295, 14202, 3535, 3818, 2355, 1558, -3414, 1327, 1684, -3874, 94, 192, 164, 50, 46, 59, 158, 107
309344825, 6295, 14202, 3535, 3818, 2355, 1558, -3414, 1327, 1684, -3874, 94, 192, 164, 50, 46, 59, 158, 107
309345688, 6295, 14202, 3535, 3818, 2355, 1558, -3414, 1327, 1684, -3874, 92, 170, 158, 52, 45, 60, 156, 110
309348461, 6295, 14202, 3535, 3818, 2355, 1558, -3414, 1327, 1684, -3874, 92, 170, 158, 52, 45, 60, 156, 110
309365603, 6295, 14202, 3535, 3818, 2355, 1558, -3414, 1327, 1684, -3874, 92, 170, 158, 52, 45, 60, 156, 110
309366444, 6295, 14202, 3535, 3818, 2355, 1558, -3414, 1327, 1684, -3874, 92, 170, 158, 52, 45, 60, 156, 110
309367250, 6295, 14202, 3535, 3818, 2355, 1558, -3414, 1327, 1684, -3874, 92, 170, 158, 52, 45, 60, 156, 110
309368076, 6295, 14202, 3535, 3818, 2355, 1558, -3414, 1327, 1684, -3874, 92, 170, 158, 52, 45, 60, 156, 110
309373104, 6295, 14202, 3535, 3818, 2355, 1558, -3414, 1327, 1684, -3874, 92, 170, 158, 52, 45, 60, 156, 110
309373940, 6295, 14202, 3535, 3818, 2355, 1558, -3414, 1327, 1684, -3874, 92, 170, 158, 52, 45, 60, 156, 110
309374731, 6295, 14202, 3535, 3818, 2355, 1558, -3414, 1327, 1684, -3874, 92, 170, 158, 52, 45, 60, 156, 110
309375654, 6295, 14202, 3535, 3818, 2355, 1558, -3414, 1327, 1684, -3874, 91, 171, 168, 48, 45, 64, 156, 114
309380687, 6295, 14202, 3535, 3818, 2355, 1558, -3414, 1327, 1684, -3874, 91, 171, 168, 48, 45, 64, 156, 114
309381476, 6295, 14202, 3535, 3818, 2355, 1558, -3414, 1327, 1684, -3874, 91, 171, 168, 48, 45, 64, 156, 114
309382342, 6295, 14202, 3535, 3818, 2355, 1558, -3414, 1327, 1684, -3874, 91, 171, 168, 48, 45, 64, 156, 114
309383103, 6295, 14202, 3535, 3818, 2355, 1558, -3414, 1327, 1684, -3874, 91, 171, 168, 48, 45, 64, 156, 114
309388093, 6295, 14202, 3535, 3818, 2355, 1558, -3414, 1327, 1684, -3874, 91, 171, 168, 48, 45, 64, 156, 114
309388891, 6295, 14202, 3535, 3818, 2355, 1558, -3414, 1327, 1684, -3874, 91, 171, 168, 48, 45, 64, 156, 114
309389709, 6295, 14202, 3535, 3818, 2355, 1558, -3414, 1327, 1684, -3874, 91, 171, 168, 48, 45, 64, 156, 114
309390509, 6295, 14202, 3535, 3818, 2355, 1558, -3414, 1327, 1684, -3874, 91, 171, 168, 48, 45, 64, 156, 114
309395654, 6295, 14202, 3535, 3818, 2355, 1558, -3414, 1327, 1684, -3874, 91, 171, 168, 48, 45, 64, 156, 114
309396580, 5980, 13689, 5589, 3746, 2429, 1358, -3271, 585, 1424, -3437, 91, 171, 168, 48, 45, 64, 156, 114
309397407, 5980, 13689, 5589, 3746, 2429, 1358, -3271, 585, 1424, -3437, 79, 175, 151, 43, 43, 57, 148, 104
309398206, 5980, 13689, 5589, 3746, 2429, 1358, -3271, 585, 1424, -3437, 79, 175, 151, 43, 43, 57, 148, 104
309403205, 5980, 13689, 5589, 3746, 2429, 1358, -3271, 585, 1424, -3437, 79, 175, 151, 43, 43, 57, 148, 104
309404029, 5980, 13689, 5589, 3746, 2429, 1358, -3271, 585, 1424, -3437, 79, 175, 151, 43, 43, 57, 148, 104
309404830, 5980, 13689, 5589, 3746, 2429, 1358, -3271, 585, 1424, -3437, 79, 175, 151, 43, 43, 57, 148, 104
309405648, 5980, 13689, 5589, 3746, 2429, 1358, -3271, 585, 1424, -3437, 79, 175, 151, 43, 43, 57, 148, 104
309410600, 5980, 13689, 5589, 3746, 2429, 1358, -3271, 585, 1424, -3437, 79, 175, 151, 43, 43, 57, 148, 104
309411431, 5980, 13689, 5589, 3746, 2429, 1358, -3271, 585, 1424, -3437, 79, 175, 151, 43, 43, 57, 148, 104
309412228, 5980, 13689, 5589, 3746, 2429, 1358, -3271, 585, 1424, -3437, 79, 175, 151, 43, 43, 57, 148, 104
309413093, 5980, 13689, 5589, 3746, 2429, 1358, -3271, 585, 1424, -3437, 79, 175, 151, 43, 43, 57, 148, 104
309418107, 5980, 13689, 5589, 3746, 2429, 1358, -3271, 585, 1424, -3437, 79, 175, 151, 43, 43, 57, 148, 104
309419057, 5904, 13476, 6170, 3725, 1489, 1126, -3448, 440, 1433, -3203, 79, 175, 151, 43, 43, 57, 148, 104
309419870, 5904, 13476, 6170, 3725, 1489, 1126, -3448, 440, 1433, -3203, 79, 207, 170, 46, 46, 84, 208, 115
309420680, 5904, 13476, 6170, 3725, 1489, 1126, -3448, 440, 1433, -3203, 79, 207, 170, 46, 46, 84, 208, 115
309425683, 5904, 13476, 6170, 3725, 1489, 1126, -3448, 440, 1433, -3203, 79, 207, 170, 46, 46, 84, 208, 115
309426509, 5904, 13476, 6170, 3725, 1489, 1126, -3448, 440, 1433, -3203, 79, 207, 170, 46, 46, 84, 208, 115
309427332, 5904, 13476, 6170, 3725, 1489, 1126, -3448, 440, 1433, -3203, 79, 207, 170, 46, 46, 84, 208, 115
309428145, 5904, 13476, 6170, 3725, 1489, 1126, -3448, 440, 1433, -3203, 79, 207, 170, 46, 46, 84, 208, 115
309433100, 5904, 13476, 6170, 3725, 1489, 1126, -3448, 440, 1433, -3203, 79, 207, 170, 46, 46, 84, 208, 115
309433930, 5904, 13476, 6170, 3725, 1489, 1126, -3448, 440, 1433, -3203, 79, 207, 170, 46, 46, 84, 208, 115
309434706, 5904, 13476, 6170, 3725, 1489, 1126, -3448, 440, 1433, -3203, 79, 207, 170, 46, 46, 84, 208, 115
309435574, 5904, 13476, 6170, 3725, 1489, 1126, -3448, 440, 1433, -3203, 79, 207, 170, 46, 46, 84, 208, 115
309440578, 5904, 13476, 6170, 3725, 1489, 1126, -3448, 440, 1433, -3203, 79, 207, 170, 46, 46, 84, 208, 115
309441560, 5896, 13247, 6672, 3694, 3149, 1572, -3611, 277, 1182, -2851, 79, 207, 170, 46, 46, 84, 208, 115
309442353, 5896, 13247, 6672, 3694, 3149, 1572, -3611, 277, 1182, -2851, 72, 214, 208, 51, 47, 88, 225, 115
309443151, 5896, 13247, 6672, 3694, 3149, 1572, -3611, 277, 1182, -2851, 72, 214, 208, 51, 47, 88, 225, 115
309448151, 5896, 13247, 6672, 3694, 3149, 1572, -3611, 277, 1182, -2851, 72, 214, 208, 51, 47, 88, 225, 115
309449003, 5896, 13247, 6672, 3694, 3149, 1572, -3611, 277, 1182, -2851, 72, 214, 208, 51, 47, 88, 225, 115
309449828, 5896, 13247, 6672, 3694, 3149, 1572, -3611, 277, 1182, -2851, 72, 214, 208, 51, 47, 88, 225, 115
309450632, 5896, 13247, 6672, 3694, 3149, 1572, -3611, 277, 1182, -2851, 72, 214, 208, 51, 47, 88, 225, 115
309455552, 5896, 13247, 6672, 3694, 3149, 1572, -3611, 277, 1182, -2851, 72, 214, 208, 51, 47, 88, 225, 115
309456403, 5896, 13247, 6672, 3694, 3149, 1572, -3611, 277, 1182, -2851, 72, 214, 208, 51, 47, 88, 225, 115
309457177, 5896, 13247, 6672, 3694, 3149, 1572, -3611, 277, 1182, -2851, 72, 214, 208, 51, 47, 88, 225, 115
309458012, 5896, 13247, 6672, 3694, 3149, 1572, -3611, 277, 1182, -2851, 72, 214, 208, 51, 47, 88, 225, 115
309463145, 5896, 13247, 6672, 3694, 3149, 1572, -3611, 277, 1182, -2851, 72, 214, 208, 51, 47, 88, 225, 115
309464061, 5877, 12982, 7189, 3695, 1505, 1058, -4110, 204, 1421, -2919, 72, 214, 208, 51, 47, 88, 225, 115
309464919, 5877, 12982, 7189, 3695, 1505, 1058, -4110, 204, 1421, -2919, 72, 227, 238, 58, 46, 87, 224, 116
309465683, 5877, 12982, 7189, 3695, 1505, 1058, -4110, 204, 1421, -2919, 72, 227, 238, 58, 46, 87, 224, 116
309470734, 5877, 12982, 7189, 3695, 1505, 1058, -4110, 204, 1421, -2919, 72, 227, 238, 58, 46, 87, 224, 116
309471531, 5877, 12982, 7189, 3695, 1505, 1058, -4110, 204, 1421, -2919, 72, 227, 238, 58, 46, 87, 224, 116
309472339, 5877, 12982, 7189, 3695, 1505, 1058, -4110, 204, 1421, -2919, 72, 227, 238, 58, 46, 87, 224, 116
309473152, 5877, 12982, 7189, 3695, 1505, 1058, -4110, 204, 1421, -2919, 72, 227, 238, 58, 46, 87, 224, 116
309478142, 5877, 12982, 7189, 3695, 1505, 1058, -4110, 204, 1421, -2919, 72, 227, 238, 58, 46, 87, 224, 116
309478903, 5877, 12982, 7189, 3695, 1505, 1058, -4110, 204, 1421, -2919, 72, 227, 238, 58, 46, 87, 224, 116
309479760, 5877, 12982, 7189, 3695, 1505, 1058, -4110, 204, 1421, -2919, 72, 227, 238, 58, 46, 87, 224, 116
309480528, 5877, 12982, 7189, 3695, 1505, 1058, -4110, 204, 1421, -2919, 72, 227, 238, 58, 46, 87, 224, 116
309485631, 5877, 12982, 7189, 3695, 1505, 1058, -4110, 204, 1421, -2919, 72, 227, 238, 58, 46, 87, 224, 116
309486531, 5800, 12733, 7674, 3709, 734, 661, -3469, 113, 1495, -2706, 72, 227, 238, 58, 46, 87, 224, 116
309487394, 5800, 12733, 7674, 3709, 734, 661, -3469, 113, 1495, -2706, 71, 252, 253, 56, 47, 85, 223, 111
309488200, 5800, 12733, 7674, 3709, 734, 661, -3469, 113, 1495, -2706, 71, 252, 253, 56, 47, 85, 223, 111
309493190, 5800, 12733, 7674, 3709, 734, 661, -3469, 113, 1495, -2706, 71, 252, 253, 56, 47, 85, 223, 111
309493978, 5800, 12733, 7674, 3709, 734, 661, -3469, 113, 1495, -2706, 71, 252, 253, 56, 47, 85, 223, 111
309494850, 5800, 12733, 7674, 3709, 734, 661, -3469, 113, 1495, -2706, 71, 252, 253, 56, 47, 85, 223, 111
309495632, 5800, 12733, 7674, 3709, 734, 661, -3469, 113, 1495, -2706, 71, 252, 253, 56, 47, 85, 223, 111
309500619, 5800, 12733, 7674, 3709, 734, 661, -3469, 113, 1495, -2706, 71, 252, 253, 56, 47, 85, 223, 111
309501378, 5800, 12733, 7674, 3709, 734, 661, -3469, 113, 1495, -2706, 71, 252, 253, 56, 47, 85, 223, 111
309502232, 5800, 12733, 7674, 3709, 734, 661, -3469, 113, 1495, -2706, 71, 252, 253, 56, 47, 85, 223, 111
309503003, 5800, 12733, 7674, 3709, 734, 661, -3469, 113, 1495, -2706, 71, 252, 253, 56, 47, 85, 223, 111
309508098, 5800, 12733, 7674, 3709, 734, 661, -3469, 113, 1495, -2706, 71, 252, 253, 56, 47, 85, 223, 111
309509055, 5694, 12505, 8099, 3745, 1594, 745, -3046, 206, 1431, -2401, 71, 252, 253, 56, 47, 85, 223, 111
309509828, 5694, 12505, 8099, 3745, 1594, 745, -3046, 206, 1431, -2401, 82, 253, 257, 62, 43, 85, 206, 111
309510682, 5694, 12505, 8099, 3745, 1594, 745, -3046, 206, 1431, -2401, 82, 253, 257, 62, 43, 85, 206, 111
309523153, 5694, 12505, 8099, 3745, 1594, 745, -3046, 206, 1431, -2401, 82, 253, 257, 62, 43, 85, 206, 111
309524018, 5694, 12505, 8099, 3745, 1594, 745, -3046, 206, 1431, -2401, 82, 253, 257, 62, 43, 85, 206, 111
309524842, 5694, 12505, 8099, 3745, 1594, 745, -3046, 206, 1431, -2401, 82, 253, 257, 62, 43, 85, 206, 111
309525605, 5694, 12505, 8099, 3745, 1594, 745, -3046, 206, 1431, -2401, 82, 253, 257, 62, 43, 85, 206, 111
309530631, 5694, 12505, 8099, 3745, 1594, 745, -3046, 206, 1431, -2401, 82, 253, 257, 62, 43, 85, 206, 111
309531441, 5694, 12505, 8099, 3745, 1594, 745, -3046, 206, 1431, -2401, 82, 253, 257, 62, 43, 85, 206, 111
309532245, 5694, 12505, 8099, 3745, 1594, 745, -3046, 206, 1431, -2401, 82, 253, 257, 62, 43, 85, 206, 111
309533052, 5694, 12505, 8099, 3745, 1594, 745, -3046, 206, 1431, -2401, 82, 253, 257, 62, 43, 85, 206, 111
309538175, 5694, 12505, 8099, 3745, 1594, 745, -3046, 206, 1431, -2401, 83, 225, 245, 64, 42, 63, 169, 91
309538978, 5694, 12505, 8099, 3745, 1594, 745, -3046, 206, 1431, -2401, 83, 225, 245, 64, 42, 63, 169, 91
309539854, 5694, 12505, 8099, 3745, 1594, 745, -3046, 206, 1431, -2401, 83, 225, 245, 64, 42, 63, 169, 91
309540606, 5694, 12505, 8099, 3745, 1594, 745, -3046, 206, 1431, -2401, 83, 225, 245, 64, 42, 63, 169, 91
309545405, 5694, 12505, 8099, 3745, 1594, 745, -3046, 206, 1431, -2401, 83, 225, 245, 64, 42, 63, 169, 91
309546203, 5694, 12505, 8099, 3745, 1594, 745, -3046, 206, 1431, -2401, 83, 225, 245, 64, 42, 63, 169, 91
309547029, 5694, 12505, 8099, 3745, 1594, 745, -3046, 206, 1431, -2401, 83, 225, 245, 64, 42, 63, 169, 91
309547827, 5694, 12505, 8099, 3745, 1594, 745, -3046, 206, 1431, -2401, 83, 225, 245, 64, 42, 63, 169, 91
309553126, 5694, 12505, 8099, 3745, 1594, 745, -3046, 206, 1431, -2401, 83, 225, 245, 64, 42, 63, 169, 91
309554077, 5458, 12054, 8861, 3849, 1567, 668, -3255, 90, 1429, -2147, 83, 225, 245, 64, 42, 63, 169, 91
309554918, 5458, 12054, 8861, 3849, 1567, 668, -3255, 90, 1429, -2147, 87, 204, 213, 62, 53, 70, 166, 97
309555728, 5458, 12054, 8861, 3849, 1567, 668, -3255, 90, 1429, -2147, 87, 204, 213, 62, 53, 70, 166, 97
309560732, 5458, 12054, 8861, 3849, 1567, 668, -3255, 90, 1429, -2147, 87, 204, 213, 62, 53, 70, 166, 97
309561531, 5458, 12054, 8861, 3849, 1567, 668, -3255, 90, 1429, -2147, 87, 204, 213, 62, 53, 70, 166, 97
309562368, 5458, 12054, 8861, 3849, 1567, 668, -3255, 90, 1429, -2147, 87, 204, 213, 62, 53, 70, 166, 97
309563156, 5458, 12054, 8861, 3849, 1567, 668, -3255, 90, 1429, -2147, 87, 204, 213, 62, 53, 70, 166, 97
309568130, 5458, 12054, 8861, 3849, 1567, 668, -3255, 90, 1429, -2147, 87, 204, 213, 62, 53, 70, 166, 97
309568896, 5458, 12054, 8861, 3849, 1567, 668, -3255, 90, 1429, -2147, 87, 204, 213, 62, 53, 70, 166, 97
309569715, 5458, 12054, 8861, 3849, 1567, 668, -3255, 90, 1429, -2147, 87, 204, 213, 62, 53, 70, 166, 97
309570551, 5458, 12054, 8861, 3849, 1567, 668, -3255, 90, 1429, -2147, 87, 204, 213, 62, 53, 70, 166, 97
309575606, 5458, 12054, 8861, 3849, 1567, 668, -3255, 90, 1429, -2147, 87, 204, 213, 62, 53, 70, 166, 97
309576580, 5345, 11812, 9229, 3892, 584, 504, -4156, -10, 1465, -2072, 87, 204, 213, 62, 53, 70, 166, 97
309577355, 5345, 11812, 9229, 3892, 584, 504, -4156, -10, 1465, -2072, 83, 177, 173, 54, 58, 104, 308, 131
309578219, 5345, 11812, 9229, 3892, 584, 504, -4156, -10, 1465, -2072, 83, 177, 173, 54, 58, 104, 308, 131
309583185, 5345, 11812, 9229, 3892, 584, 504, -4156, -10, 1465, -2072, 83, 177, 173, 54, 58, 104, 308, 131
309584005, 5345, 11812, 9229, 3892, 584, 504, -4156, -10, 1465, -2072, 83, 177, 173, 54, 58, 104, 308, 131
309584810, 5345, 11812, 9229, 3892, 584, 504, -4156, -10, 1465, -2072, 83, 177, 173, 54, 58, 104, 308, 131
309585636, 5345, 11812, 9229, 3892, 584, 504, -4156, -10, 1465, -2072, 83, 177, 173, 54, 58, 104, 308, 131
309590619, 5345, 11812, 9229, 3892, 584, 504, -4156, -10, 1465, -2072, 83, 177, 173, 54, 58, 104, 308, 131
309591380, 5345, 11812, 9229, 3892, 584, 504, -4156, -10, 1465, -2072, 83, 177, 173, 54, 58, 104, 308, 131
309592208, 5345, 11812, 9229, 3892, 584, 504, -4156, -10, 1465, -2072, 83, 177, 173, 54, 58, 104, 308, 131
309593040, 5345, 11812, 9229, 3892, 584, 504, -4156, -10, 1465, -2072, 83, 177, 173, 54, 58, 104, 308, 131
309598126, 5345, 11812, 9229, 3892, 584, 504, -4156, -10, 1465, -2072, 83, 177, 173, 54, 58, 104, 308, 131
309599032, 5274, 11568, 9546, 3956, 1641, 812, -4575, 61, 1385, -1839, 83, 177, 173, 54, 58, 104, 308, 131
309599820, 5274, 11568, 9546, 3956, 1641, 812, -4575, 61, 1385, -1839, 86, 138, 138, 55, 61, 115, 330, 147
309600632, 5274, 11568, 9546, 3956, 1641, 812, -4575, 61, 1385, -1839, 86, 138, 138, 55, 61, 115, 330, 147
309605766, 5274, 11568, 9546, 3956, 1641, 812, -4575, 61, 1385, -1839, 86, 138, 138, 55, 61, 115, 330, 147
309606490, 5274, 11568, 9546, 3956, 1641, 812, -4575, 61, 1385, -1839, 86, 138, 138, 55, 61, 115, 330, 147
309607286, 5274, 11568, 9546, 3956, 1641, 812, -4575, 61, 1385, -1839, 86, 138, 138, 55, 61, 115, 330, 147
309608105, 5274, 11568, 9546, 3956, 1641, 812, -4575, 61, 1385, -1839, 86, 138, 138, 55, 61, 115, 330, 147
309613114, 5274, 11568, 9546, 3956, 1641, 812, -4575, 61, 1385, -1839, 86, 138, 138, 55, 61, 115, 330, 147
309613902, 5274, 11568, 9546, 3956, 1641, 812, -4575, 61, 1385, -1839, 86, 138, 138, 55, 61, 115, 330, 147
309614723, 5274, 11568, 9546, 3956, 1641, 812, -4575, 61, 1385, -1839, 86, 138, 138, 55, 61, 115, 330, 147
309615484, 5274, 11568, 9546, 3956, 1641, 812, -4575, 61, 1385, -1839, 86, 138, 138, 55, 61, 115, 330, 147
309620636, 5274, 11568, 9546, 3956, 1641, 812, -4575, 61, 1385, -1839, 86, 138, 138, 55, 61, 115, 330, 147
309621575, 5183, 11373, 9803, 4013, 3241, 787, -3166, 172, 1248, -1424, 86, 138, 138, 55, 61, 115, 330, 147
309622406, 5183, 11373, 9803, 4013, 3241, 787, -3166, 172, 1248, -1424, 78, 120, 129, 50, 60, 117, 326, 148
309623179, 5183, 11373, 9803, 4013, 3241, 787, -3166, 172, 1248, -1424, 78, 120, 129, 50, 60, 117, 326, 148
309628230, 5183, 11373, 9803, 4013, 3241, 787, -3166, 172, 1248, -1424, 78, 120, 129, 50, 60, 117, 326, 148
309629003, 5183, 11373, 9803, 4013, 3241, 787, -3166, 172, 1248, -1424, 78, 120, 129, 50, 60, 117, 326, 148
309629870, 5183, 11373, 9803, 4013, 3241, 787, -3166, 172, 1248, -1424, 78, 120, 129, 50, 60, 117, 326, 148
309630632, 5183, 11373, 9803, 4013, 3241, 787, -3166, 172, 1248, -1424, 78, 120, 129, 50, 60, 117, 326, 148
309635606, 5183, 11373, 9803, 4013, 3241, 787, -3166, 172, 1248, -1424, 78, 120, 129, 50, 60, 117, 326, 148
309636404, 5183, 11373, 9803, 4013, 3241, 787, -3166, 172, 1248, -1424, 78, 120, 129, 50, 60, 117, 326, 148
309637241, 5183, 11373, 9803, 4013, 3241, 787, -3166, 172, 1248, -1424, 78, 120, 129, 50, 60, 117, 326, 148
309638051, 5183, 11373, 9803, 4013, 3241, 787, -3166, 172, 1248, -1424, 78, 120, 129, 50, 60, 117, 326, 148
309643127, 5183, 11373, 9803, 4013, 3241, 787, -3166, 172, 1248, -1424, 78, 120, 129, 50, 60, 117, 326, 148
309644030, 4825, 11322, 9998, 4121, 1927, 461, -3349, 41, 1276, -998, 78, 120, 129, 50, 60, 117, 326, 148
309644877, 4825, 11322, 9998, 4121, 1927, 461, -3349, 41, 1276, -998, 83, 115, 107, 45, 63, 123, 325, 149
309645656, 4825, 11322, 9998, 4121, 1927, 461, -3349, 41, 1276, -998, 83, 115, 107, 45, 63, 123, 325, 149
309650719, 4825, 11322, 9998, 4121, 1927, 461, -3349, 41, 1276, -998, 83, 115, 107, 45, 63, 123, 325, 149
309651484, 4825, 11322, 9998, 4121, 1927, 461, -3349, 41, 1276, -998, 83, 115, 107, 45, 63, 123, 325, 149
309652343, 4825, 11322, 9998, 4121, 1927, 461, -3349, 41, 1276, -998, 83, 115, 107, 45, 63, 123, 325, 149
309653130, 4825, 11322, 9998, 4121, 1927, 461, -3349, 41, 1276, -998, 83, 115, 107, 45, 63, 123, 325, 149
309658080, 4825, 11322, 9998, 4121, 1927, 461, -3349, 41, 1276, -998, 83, 115, 107, 45, 63, 123, 325, 149
309658880, 4825, 11322, 9998, 4121, 1927, 461, -3349, 41, 1276, -998, 83, 115, 107, 45, 63, 123, 325, 149
309659704, 4825, 11322, 9998, 4121, 1927, 461, -3349, 41, 1276, -998, 83, 115, 107, 45, 63, 123, 325, 149
309660509, 4825, 11322, 9998, 4121, 1927, 461, -3349, 41, 1276, -998, 83, 115, 107, 45, 63, 123, 325, 149
309665605, 4825, 11322, 9998, 4121, 1927, 461, -3349, 41, 1276, -998, 83, 115, 107, 45, 63, 123, 325, 149
309666530, 4752, 11170, 10136, 4280, 1896, 515, -3998, -317, 1302, -690, 83, 115, 107, 45, 63, 123, 325, 149
309667360, 4752, 11170, 10136, 4280, 1896, 515, -3998, -317, 1302, -690, 88, 100, 113, 44, 55, 125, 350, 158
309668174, 4752, 11170, 10136, 4280, 1896, 515, -3998, -317, 1302, -690, 88, 100, 113, 44, 55, 125, 350, 158
309673164, 4752, 11170, 10136, 4280, 1896, 515, -3998, -317, 1302, -690, 88, 100, 113, 44, 55, 125, 350, 158
309673978, 4752, 11170, 10136, 4280, 1896, 515, -3998, -317, 1302, -690, 88, 100, 113, 44, 55, 125, 350, 158
309674855, 4752, 11170, 10136, 4280, 1896, 515, -3998, -317, 1302, -690, 88, 100, 113, 44, 55, 125, 350, 158
309675606, 4752, 11170, 10136, 4280, 1896, 515, -3998, -317, 1302, -690, 88, 100, 113, 44, 55, 125, 350, 158
309680643, 4752, 11170, 10136, 4280, 1896, 515, -3998, -317, 1302, -690, 88, 100, 113, 44, 55, 125, 350, 158
309681428, 4752, 11170, 10136, 4280, 1896, 515, -3998, -317, 1302, -690, 88, 100, 113, 44, 55, 125, 350, 158
309682268, 4752, 11170, 10136, 4280, 1896, 515, -3998, -317, 1302, -690, 88, 100, 113, 44, 55, 125, 350, 158
309683049, 4752, 11170, 10136, 4280, 1896, 515, -3998, -317, 1302, -690, 88, 100, 113, 44, 55, 125, 350, 158
309688167, 4752, 11170, 10136, 4280, 1896, 515, -3998, -317, 1302, -690, 88, 100, 113, 44, 55, 125, 350, 158
309689056, 4720, 11037, 10215, 4468, 1626, 550, -4246, -628, 1151, -410, 88, 100, 113, 44, 55, 125, 350, 158
309689919, 4720, 11037, 10215, 4468, 1626, 550, -4246, -628, 1151, -410, 90, 130, 122, 43, 50, 106, 262, 143
309690683, 4720, 11037, 10215, 4468, 1626, 550, -4246, -628, 1151, -410, 90, 130, 122, 43, 50, 106, 262, 143
309695713, 4720, 11037, 10215, 4468, 1626, 550, -4246, -628, 1151, -410, 90, 130, 122, 43, 50, 106, 262, 143
309696516, 4720, 11037, 10215, 4468, 1626, 550, -4246, -628, 1151, -410, 90, 130, 122, 43, 50, 106, 262, 143
309697370, 4720, 11037, 10215, 4468, 1626, 550, -4246, -628, 1151, -410, 90, 130, 122, 43, 50, 106, 262, 143
309698129, 4720, 11037, 10215, 4468, 1626, 550, -4246, -628, 1151, -410, 90, 130, 122, 43, 50, 106, 262, 143
309703092, 4720, 11037, 10215, 4468, 1626, 550, -4246, -628, 1151, -410, 90, 130, 122, 43, 50, 106, 262, 143
309703905, 4720, 11037, 10215, 4468, 1626, 550, -4246, -628, 1151, -410, 90, 130, 122, 43, 50, 106, 262, 143
309704703, 4720, 11037, 10215, 4468, 1626, 550, -4246, -628, 1151, -410, 90, 130, 122, 43, 50, 106, 262, 143
309705531, 4720, 11037, 10215, 4468, 1626, 550, -4246, -628, 1151, -410, 90, 130, 122, 43, 50, 106, 262, 143
309710678, 4720, 11037, 10215, 4468, 1626, 550, -4246, -628, 1151, -410, 90, 130, 122, 43, 50, 106, 262, 143
309711581, 4719, 10933, 10249, 4644, 1597, 468, -4295, -728, 887, -206, 90, 130, 122, 43, 50, 106, 262, 143
309712462, 4727, 10858, 10258, 4790, 1588, 504, -4264, -653, 646, -72, 90, 130, 122, 43, 50, 106, 262, 143
309713246, 4727, 10858, 10258, 4790, 1588, 504, -4264, -653, 646, -72, 90, 139, 121, 44, 44, 95, 237, 134
309718181, 4727, 10858, 10258, 4790, 1588, 504, -4264, -653, 646, -72, 90, 139, 121, 44, 44, 95, 237, 134
309718996, 4727, 10858, 10258, 4790, 1588, 504, -4264, -653, 646, -72, 90, 139, 121, 44, 44, 95, 237, 134
309719823, 4727, 10858, 10258, 4790, 1588, 504, -4264, -653, 646, -72, 90, 139, 121, 44, 44, 95, 237, 134
309720611, 4727, 10858, 10258, 4790, 1588, 504, -4264, -653, 646, -72, 90, 139, 121, 44, 44, 95, 237, 134
309725553, 4727, 10858, 10258, 4790, 1588, 504, -4264, -653, 646, -72, 90, 139, 121, 44, 44, 95, 237, 134
309726403, 4727, 10858, 10258, 4790, 1588, 504, -4264, -653, 646, -72, 90, 139, 121, 44, 44, 95, 237, 134
309727204, 4727, 10858, 10258, 4790, 1588, 504, -4264, -653, 646, -72, 90, 139, 121, 44, 44, 95, 237, 134
309728026, 4727, 10858, 10258, 4790, 1588, 504, -4264, -653, 646, -72, 90, 139, 121, 44, 44, 95, 237, 134
309733074, 4727, 10858, 10258, 4790, 1588, 504, -4264, -653, 646, -72, 90, 139, 121, 44, 44, 95, 237, 134
309734007, 4729, 10815, 10251, 4899, 1543, 581, -4205, -470, 455, 48, 90, 139, 121, 44, 44, 95, 237, 134
309734803, 4729, 10815, 10251, 4899, 1543, 581, -4205, -470, 455, 48, 106, 142, 133, 47, 47, 107, 301, 149
309735630, 4729, 10815, 10251, 4899, 1543, 581, -4205, -470, 455, 48, 106, 142, 133, 47, 47, 107, 301, 149
309740646, 4729, 10815, 10251, 4899, 1543, 581, -4205, -470, 455, 48, 106, 142, 133, 47, 47, 107, 301, 149
309741474, 4729, 10815, 10251, 4899, 1543, 581, -4205, -470, 455, 48, 106, 142, 133, 47, 47, 107, 301, 149
309742270, 4729, 10815, 10251, 4899, 1543, 581, -4205, -470, 455, 48, 106, 142, 133, 47, 47, 107, 301, 149
309743099, 4729, 10815, 10251, 4899, 1543, 581, -4205, -470, 455, 48, 106, 142, 133, 47, 47, 107, 301, 149
309748044, 4729, 10815, 10251, 4899, 1543, 581, -4205, -470, 455, 48, 106, 142, 133, 47, 47, 107, 301, 149
309748873, 4729, 10815, 10251, 4899, 1543, 581, -4205, -470, 455, 48, 106, 142, 133, 47, 47, 107, 301, 149
309749673, 4729, 10815, 10251, 4899, 1543, 581, -4205, -470, 455, 48, 106, 142, 133, 47, 47, 107, 301, 149
309750498, 4729, 10815, 10251, 4899, 1543, 581, -4205, -470, 455, 48, 106, 142, 133, 47, 47, 107, 301, 149
309755656, 4729, 10815, 10251, 4899, 1543, 581, -4205, -470, 455, 48, 106, 142, 133, 47, 47, 107, 301, 149
309756555, 4720, 10804, 10232, 4972, 1517, 691, -4171, -267, 288, 162, 106, 142, 133, 47, 47, 107, 301, 149
309757418, 4720, 10804, 10232, 4972, 1517, 691, -4171, -267, 288, 162, 108, 148, 139, 46, 41, 98, 289, 150
309758178, 4720, 10804, 10232, 4972, 1517, 691, -4171, -267, 288, 162, 108, 148, 139, 46, 41, 98, 289, 150
309763201, 4720, 10804, 10232, 4972, 1517, 691, -4171, -267, 288, 162, 108, 148, 139, 46, 41, 98, 289, 150
309764004, 4720, 10804, 10232, 4972, 1517, 691, -4171, -267, 288, 162, 108, 148, 139, 46, 41, 98, 289, 150
309764857, 4720, 10804, 10232, 4972, 1517, 691, -4171, -267, 288, 162, 108, 148, 139, 46, 41, 98, 289, 150
309765634, 4720, 10804, 10232, 4972, 1517, 691, -4171, -267, 288, 162, 108, 148, 139, 46, 41, 98, 289, 150
309770585, 4720, 10804, 10232, 4972, 1517, 691, -4171, -267, 288, 162, 108, 148, 139, 46, 41, 98, 289, 150
309771441, 4720, 10804, 10232, 4972, 1517, 691, -4171, -267, 288, 162, 108, 148, 139, 46, 41, 98, 289, 150
309772228, 4720, 10804, 10232, 4972, 1517, 691, -4171, -267, 288, 162, 108, 148, 139, 46, 41, 98, 289, 150
309773068, 4720, 10804, 10232, 4972, 1517, 691, -4171, -267, 288, 162, 108, 148, 139, 46, 41, 98, 289, 150
309778125, 4720, 10804, 10232, 4972, 1517, 691, -4171, -267, 288, 162, 108, 148, 139, 46, 41, 98, 289, 150
309779042, 4701, 10823, 10201, 5010, 1512, 777, -4152, -86, 127, 276, 108, 148, 139, 46, 41, 98, 289, 150
309779853, 4701, 10823, 10201, 5010, 1512, 777, -4152, -86, 127, 276, 105, 152, 142, 47, 40, 87, 250, 140
309780686, 4701, 10823, 10201, 5010, 1512, 777, -4152, -86, 127, 276, 105, 152, 142, 47, 40, 87, 250, 140
309785677, 4701, 10823, 10201, 5010, 1512, 777, -4152, -86, 127, 276, 105, 152, 142, 47, 40, 87, 250, 140
309786534, 4701, 10823, 10201, 5010, 1512, 777, -4152, -86, 127, 276, 105, 152, 142, 47, 40, 87, 250, 140
309787303, 4701, 10823, 10201, 5010, 1512, 777, -4152, -86, 127, 276, 105, 152, 142, 47, 40, 87, 250, 140
309788168, 4701, 10823, 10201, 5010, 1512, 777, -4152, -86, 127, 276, 105, 152, 142, 47, 40, 87, 250, 140
309793053, 4701, 10823, 10201, 5010, 1512, 777, -4152, -86, 127, 276, 105, 152, 142, 47, 40, 87, 250, 140
309793918, 4701, 10823, 10201, 5010, 1512, 777, -4152, -86, 127, 276, 105, 152, 142, 47, 40, 87, 250, 140
309794699, 4701, 10823, 10201, 5010, 1512, 777, -4152, -86, 127, 276, 105, 152, 142, 47, 40, 87, 250, 140
309795511, 4701, 10823, 10201, 5010, 1512, 777, -4152, -86, 127, 276, 105, 152, 142, 47, 40, 87, 250, 140
309800637, 4701, 10823, 10201, 5010, 1512, 777, -4152, -86, 127, 276, 105, 152, 142, 47, 40, 87, 250, 140
309801619, 4684, 10866, 10154, 5029, 1512, 839, -4168, -15, -26, 383, 105, 152, 142, 47, 40, 87, 250, 140
309802428, 4672, 10932, 10091, 5024, 1544, 908, -4160, 57, -186, 472, 105, 152, 142, 47, 40, 87, 250, 140
309803232, 4672, 10932, 10091, 5024, 1544, 908, -4160, 57, -186, 472, 109, 135, 132, 47, 40, 82, 233, 132
309808152, 4672, 10932, 10091, 5024, 1544, 908, -4160, 57, -186, 472, 109, 135, 132, 47, 40, 82, 233, 132
309809018, 4672, 10932, 10091, 5024, 1544, 908, -4160, 57, -186, 472, 109, 135, 132, 47, 40, 82, 233, 132
309809850, 4672, 10932, 10091, 5024, 1544, 908, -4160, 57, -186, 472, 109, 135, 132, 47, 40, 82, 233, 132
309810618, 4672, 10932, 10091, 5024, 1544, 908, -4160, 57, -186, 472, 109, 135, 132, 47, 40, 82, 233, 132
309815553, 4672, 10932, 10091, 5024, 1544, 908, -4160, 57, -186, 472, 109, 135, 132, 47, 40, 82, 233, 132
309816407, 4672, 10932, 10091, 5024, 1544, 908, -4160, 57, -186, 472, 109, 135, 132, 47, 40, 82, 233, 132
309817178, 4672, 10932, 10091, 5024, 1544, 908, -4160, 57, -186, 472, 109, 135, 132, 47, 40, 82, 233, 132
309818025, 4672, 10932, 10091, 5024, 1544, 908, -4160, 57, -186, 472, 109, 135, 132, 47, 40, 82, 233, 132
309823169, 4672, 10932, 10091, 5024, 1544, 908, -4160, 57, -186, 472, 109, 135, 132, 47, 40, 82, 233, 132
309824062, 4670, 11012, 10016, 5000, 1626, 969, -4100, 91, -340, 523, 109, 135, 132, 47, 40, 82, 233, 132
309824878, 4670, 11012, 10016, 5000, 1626, 969, -4100, 91, -340, 523, 105, 123, 135, 42, 40, 81, 227, 126
309825709, 4670, 11012, 10016, 5000, 1626, 969, -4100, 91, -340, 523, 105, 123, 135, 42, 40, 81, 227, 126
309830712, 4670, 11012, 10016, 5000, 1626, 969, -4100, 91, -340, 523, 105, 123, 135, 42, 40, 81, 227, 126
309831551, 4670, 11012, 10016, 5000, 1626, 969, -4100, 91, -340, 523, 105, 123, 135, 42, 40, 81, 227, 126
309832341, 4670, 11012, 10016, 5000, 1626, 969, -4100, 91, -340, 523, 105, 123, 135, 42, 40, 81, 227, 126
309833194, 4670, 11012, 10016, 5000, 1626, 969, -4100, 91, -340, 523, 105, 123, 135, 42, 40, 81, 227, 126
309838146, 4670, 11012, 10016, 5000, 1626, 969, -4100, 91, -340, 523, 105, 123, 135, 42, 40, 81, 227, 126
309838881, 4670, 11012, 10016, 5000, 1626, 969, -4100, 91, -340, 523, 105, 123, 135, 42, 40, 81, 227, 126
309839724, 4670, 11012, 10016, 5000, 1626, 969, -4100, 91, -340, 523, 105, 123, 135, 42, 40, 81, 227, 126
309840512, 4670, 11012, 10016, 5000, 1626, 969, -4100, 91, -340, 523, 105, 123, 135, 42, 40, 81, 227, 126
309845580, 4670, 11012, 10016, 5000, 1626, 969, -4100, 91, -340, 523, 105, 123, 135, 42, 40, 81, 227, 126
309846524, 4674, 11102, 9934, 4961, 1720, 988, -4056, 119, -449, 546, 105, 123, 135, 42, 40, 81, 227, 126
309847370, 4679, 11207, 9842, 4903, 1795, 1093, -3978, 191, -559, 602, 105, 123, 135, 42, 40, 81, 227, 126
309848158, 4679, 11207, 9842, 4903, 1795, 1093, -3978, 191, -559, 602, 96, 122, 135, 40, 42, 59, 139, 109
309853153, 4679, 11207, 9842, 4903, 1795, 1093, -3978, 191, -559, 602, 96, 122, 135, 40, 42, 59, 139, 109
309853977, 4679, 11207, 9842, 4903, 1795, 1093, -3978, 191, -559, 602, 96, 122, 135, 40, 42, 59, 139, 109
309854803, 4679, 11207, 9842, 4903, 1795, 1093, -3978, 191, -559, 602, 96, 122, 135, 40, 42, 59, 139, 109
309855605, 4679, 11207, 9842, 4903, 1795, 1093, -3978, 191, -559, 602, 96, 122, 135, 40, 42, 59, 139, 109
309860607, 4679, 11207, 9842, 4903, 1795, 1093, -3978, 191, -559, 602, 96, 122, 135, 40, 42, 59, 139, 109
309861404, 4679, 11207, 9842, 4903, 1795, 1093, -3978, 191, -559, 602, 96, 122, 135, 40, 42, 59, 139, 109
309862230, 4679, 11207, 9842, 4903, 1795, 1093, -3978, 191, -559, 602, 96, 122, 135, 40, 42, 59, 139, 109
309863028, 4679, 11207, 9842, 4903, 1795, 1093, -3978, 191, -559, 602, 96, 122, 135, 40, 42, 59, 139, 109
309868132, 4679, 11207, 9842, 4903, 1795, 1093, -3978, 191, -559, 602, 96, 122, 135, 40, 42, 59, 139, 109
309869030, 4690, 11326, 9734, 4836, 1867, 1156, -3926, 191, -667, 689, 96, 122, 135, 40, 42, 59, 139, 109
309869851, 4690, 11326, 9734, 4836, 1867, 1156, -3926, 191, -667, 689, 100, 103, 128, 39, 43, 62, 158, 104
309870657, 4690, 11326, 9734, 4836, 1867, 1156, -3926, 191, -667, 689, 100, 103, 128, 39, 43, 62, 158, 104
309875705, 4690, 11326, 9734, 4836, 1867, 1156, -3926, 191, -667, 689, 100, 103, 128, 39, 43, 62, 158, 104
309876491, 4690, 11326, 9734, 4836, 1867, 1156, -3926, 191, -667, 689, 100, 103, 128, 39, 43, 62, 158, 104
309877313, 4690, 11326, 9734, 4836, 1867, 1156, -3926, 191, -667, 689, 100, 103, 128, 39, 43, 62, 158, 104
309878102, 4690, 11326, 9734, 4836, 1867, 1156, -3926, 191, -667, 689, 100, 103, 128, 39, 43, 62, 158, 104
309883081, 4690, 11326, 9734, 4836, 1867, 1156, -3926, 191, -667, 689, 100, 103, 128, 39, 43, 62, 158, 104
309883877, 4690, 11326, 9734, 4836, 1867, 1156, -3926, 191, -667, 689, 100, 103, 128, 39, 43, 62, 158, 104
309884707, 4690, 11326, 9734, 4836, 1867, 1156, -3926, 191, -667, 689, 100, 103, 128, 39, 43, 62, 158, 104
309885510, 4690, 11326, 9734, 4836, 1867, 1156, -3926, 191, -667, 689, 100, 103, 128, 39, 43, 62, 158, 104
309890611, 4690, 11326, 9734, 4836, 1867, 1156, -3926, 191, -667, 689, 100, 103, 128, 39, 43, 62, 158, 104
309891505, 4713, 11456, 9603, 4767, 1923, 1197, -3854, 131, -767, 789, 100, 103, 128, 39, 43, 62, 158, 104
309892356, 4713, 11456, 9603, 4767, 1923, 1197, -3854, 131, -767, 789, 99, 102, 110, 37, 45, 75, 204, 105
309893128, 4713, 11456, 9603, 4767, 1923, 1197, -3854, 131, -767, 789, 99, 102, 110, 37, 45, 75, 204, 105
309898182, 4713, 11456, 9603, 4767, 1923, 1197, -3854, 131, -767, 789, 99, 102, 110, 37, 45, 75, 204, 105
309898975, 4713, 11456, 9603, 4767, 1923, 1197, -3854, 131, -767, 789, 99, 102, 110, 37, 45, 75, 204, 105
309899839, 4713, 11456, 9603, 4767, 1923, 1197, -3854, 131, -767, 789, 99, 102, 110, 37, 45, 75, 204, 105
309900580, 4713, 11456, 9603, 4767, 1923, 1197, -3854, 131, -767, 789, 99, 102, 110, 37, 45, 75, 204, 105
309905643, 4713, 11456, 9603, 4767, 1923, 1197, -3854, 131, -767, 789, 99, 102, 110, 37, 45, 75, 204, 105
309906403, 4713, 11456, 9603, 4767, 1923, 1197, -3854, 131, -767, 789, 99, 102, 110, 37, 45, 75, 204, 105
309907267, 4713, 11456, 9603, 4767, 1923, 1197, -3854, 131, -767, 789, 99, 102, 110, 37, 45, 75, 204, 105
309908055, 4713, 11456, 9603, 4767, 1923, 1197, -3854, 131, -767, 789, 99, 102, 110, 37, 45, 75, 204, 105
309913127, 4713, 11456, 9603, 4767, 1923, 1197, -3854, 131, -767, 789, 99, 102, 110, 37, 45, 75, 204, 105
309914054, 4752, 11594, 9451, 4700, 1966, 1214, -3840, 40, -863, 876, 99, 102, 110, 37, 45, 75, 204, 105
309914866, 4752, 11594, 9451, 4700, 1966, 1214, -3840, 40, -863, 876, 95, 91, 112, 38, 47, 79, 218, 112
309915679, 4752, 11594, 9451, 4700, 1966, 1214, -3840, 40, -863, 876, 95, 91, 112, 38, 47, 79, 218, 112
309920682, 4752, 11594, 9451, 4700, 1966, 1214, -3840, 40, -863, 876, 95, 91, 112, 38, 47, 79, 218, 112
309921549, 4752, 11594, 9451, 4700, 1966, 1214, -3840, 40, -863, 876, 95, 91, 112, 38, 47, 79, 218, 112
309922304, 4752, 11594, 9451, 4700, 1966, 1214, -3840, 40, -863, 876, 95, 91, 112, 38, 47, 79, 218, 112
309923119, 4752, 11594, 9451, 4700, 1966, 1214, -3840, 40, -863, 876, 95, 91, 112, 38, 47, 79, 218, 112
309928103, 4752, 11594, 9451, 4700, 1966, 1214, -3840, 40, -863, 876, 95, 91, 112, 38, 47, 79, 218, 112
309928904, 4752, 11594, 9451, 4700, 1966, 1214, -3840, 40, -863, 876, 95, 91, 112, 38, 47, 79, 218, 112
309929747, 4752, 11594, 9451, 4700, 1966, 1214, -3840, 40, -863, 876, 95, 91, 112, 38, 47, 79, 218, 112
309930557, 4752, 11594, 9451, 4700, 1966, 1214, -3840, 40, -863, 876, 95, 91, 112, 38, 47, 79, 218, 112
309935605, 4752, 11594, 9451, 4700, 1966, 1214, -3840, 40, -863, 876, 95, 91, 112, 38, 47, 79, 218, 112
309936530, 4811, 11742, 9268, 4636, 1992, 1276, -3823, -79, -974, 1006, 95, 91, 112, 38, 47, 79, 218, 112
309937363, 4811, 11742, 9268, 4636, 1992, 1276, -3823, -79, -974, 1006, 99, 85, 106, 39, 51, 79, 222, 118
309938131, 4811, 11742, 9268, 4636, 1992, 1276, -3823, -79, -974, 1006, 99, 85, 106, 39, 51, 79, 222, 118
