Timestamp, Orientation x, Orientation y, Orientation z, Orientation w, Acceleration x, Acceleration y, Acceleration z, Rotation x, Rotation y, Rotation z, EMG 0, EMG 1, EMG 2, EMG 3, EMG 4, EMG 5, EMG 6, EMG 7
96645233, 12250, 6965, 6029, 5786, 2449, 884, -3813, -81, -23, 9, 0, 0, 0, 0, 0, 0, 0, 0
96646040, 12254, 6957, 6028, 5788, 2466, 809, -3783, -49, 5, -12, 0, 0, 0, 0, 0, 0, 0, 0
96667059, 12251, 6956, 6033, 5790, 2445, 809, -3827, 7, 36, 3, 0, 0, 0, 0, 0, 0, 0, 0
96682083, 12247, 6956, 6036, 5796, 2466, 862, -3845, 4, 34, 20, 0, 0, 0, 0, 0, 0, 0, 0
96704599, 12249, 6950, 6036, 5799, 2462, 896, -3851, -34, 16, -1, 0, 0, 0, 0, 0, 0, 0, 0
96712736, 12249, 6950, 6036, 5799, 2462, 896, -3851, -34, 16, -1, 47, 49, 41, 34, 44, 42, 148, 32
96713537, 12249, 6950, 6036, 5799, 2462, 896, -3851, -34, 16, -1, 47, 49, 41, 34, 44, 42, 148, 32
96727096, 12256, 6940, 6031, 5801, 2453, 847, -3837, -73, -12, -13, 47, 49, 41, 34, 44, 42, 148, 32
96735233, 12256, 6940, 6031, 5801, 2453, 847, -3837, -73, -12, -13, 56, 55, 40, 36, 40, 38, 130, 39
96735966, 12256, 6940, 6031, 5801, 2453, 847, -3837, -73, -12, -13, 56, 55, 40, 36, 40, 38, 130, 39
96742152, 12259, 6935, 6029, 5802, 2470, 807, -3809, -38, -6, -7, 56, 55, 40, 36, 40, 38, 130, 39
96757709, 12259, 6935, 6029, 5802, 2470, 807, -3809, -38, -6, -7, 58, 55, 43, 36, 41, 41, 112, 37
96758521, 12259, 6935, 6029, 5802, 2470, 807, -3809, -38, -6, -7, 58, 55, 43, 36, 41, 41, 112, 37
96764658, 12255, 6940, 6035, 5800, 2461, 807, -3829, 48, 20, -4, 58, 55, 43, 36, 41, 41, 112, 37
96772679, 12255, 6940, 6035, 5800, 2461, 807, -3829, 48, 20, -4, 61, 55, 38, 38, 38, 39, 114, 39
96773473, 12255, 6940, 6035, 5800, 2461, 807, -3829, 48, 20, -4, 61, 55, 38, 38, 38, 39, 114, 39
96787061, 12251, 6945, 6037, 5800, 2444, 875, -3867, 35, 7, 11, 61, 55, 38, 38, 38, 39, 114, 39
96795213, 12251, 6945, 6037, 5800, 2444, 875, -3867, 35, 7, 11, 61, 61, 40, 36, 32, 40, 107, 39
96795961, 12251, 6945, 6037, 5800, 2444, 875, -3867, 35, 7, 11, 61, 61, 40, 36, 32, 40, 107, 39
96802139, 12257, 6939, 6031, 5801, 2444, 885, -3869, -57, -25, -5, 61, 61, 40, 36, 32, 40, 107, 39
96817683, 12257, 6939, 6031, 5801, 2444, 885, -3869, -57, -25, -5, 58, 63, 39, 39, 32, 40, 109, 39
96818472, 12257, 6939, 6031, 5801, 2444, 885, -3869, -57, -25, -5, 58, 63, 39, 39, 32, 40, 109, 39
96824681, 12267, 6928, 6020, 5804, 2460, 818, -3823, -97, -37, -5, 58, 63, 39, 39, 32, 40, 109, 39
96832682, 12267, 6928, 6020, 5804, 2460, 818, -3823, -97, -37, -5, 45, 58, 36, 36, 31, 43, 111, 31
96833476, 12267, 6928, 6020, 5804, 2460, 818, -3823, -97, -37, -5, 45, 58, 36, 36, 31, 43, 111, 31
96847055, 12266, 6930, 6021, 5802, 2467, 755, -3817, 16, -6, -6, 45, 58, 36, 36, 31, 43, 111, 31
96855238, 12266, 6930, 6021, 5802, 2467, 755, -3817, 16, -6, -6, 42, 57, 37, 34, 29, 40, 128, 32
96855919, 12266, 6930, 6021, 5802, 2467, 755, -3817, 16, -6, -6, 42, 57, 37, 34, 29, 40, 128, 32
96862234, 12259, 6941, 6026, 5800, 2445, 835, -3844, 79, 9, 18, 42, 57, 37, 34, 29, 40, 128, 32
96877712, 12259, 6941, 6026, 5800, 2445, 835, -3844, 79, 9, 18, 41, 68, 38, 33, 31, 39, 126, 31
96878510, 12259, 6941, 6026, 5800, 2445, 835, -3844, 79, 9, 18, 41, 68, 38, 33, 31, 39, 126, 31
96884673, 12255, 6947, 6026, 5800, 2457, 891, -3864, 30, -2, 18, 41, 68, 38, 33, 31, 39, 126, 31
96892682, 12255, 6947, 6026, 5800, 2457, 891, -3864, 30, -2, 18, 45, 67, 38, 34, 34, 40, 141, 31
96893497, 12255, 6947, 6026, 5800, 2457, 891, -3864, 30, -2, 18, 45, 67, 38, 34, 34, 40, 141, 31
96907048, 12261, 6941, 6019, 5803, 2462, 860, -3856, -57, -22, 3, 45, 67, 38, 34, 34, 40, 141, 31
96915240, 12261, 6941, 6019, 5803, 2462, 860, -3856, -57, -22, 3, 46, 59, 38, 32, 38, 42, 151, 34
96916029, 12261, 6941, 6019, 5803, 2462, 860, -3856, -57, -22, 3, 46, 59, 38, 32, 38, 42, 151, 34
96922233, 12265, 6938, 6016, 5800, 2470, 787, -3831, -21, -23, -18, 46, 59, 38, 32, 38, 42, 151, 34
96937717, 12265, 6938, 6016, 5800, 2470, 787, -3831, -21, -23, -18, 49, 63, 38, 33, 41, 39, 153, 35
96938509, 12265, 6938, 6016, 5800, 2470, 787, -3831, -21, -23, -18, 49, 63, 38, 33, 41, 39, 153, 35
96944691, 12260, 6946, 6024, 5792, 2461, 727, -3905, 75, 8, -27, 49, 63, 38, 33, 41, 39, 153, 35
96952693, 12260, 6946, 6024, 5792, 2461, 727, -3905, 75, 8, -27, 62, 141, 63, 36, 48, 40, 158, 34
96953511, 12260, 6946, 6024, 5792, 2461, 727, -3905, 75, 8, -27, 62, 141, 63, 36, 48, 40, 158, 34
96967077, 12248, 6966, 6040, 5778, 2440, 627, -3930, 170, 20, -34, 62, 141, 63, 36, 48, 40, 158, 34
96975244, 12248, 6966, 6040, 5778, 2440, 627, -3930, 170, 20, -34, 76, 175, 94, 40, 59, 45, 165, 36
96975995, 12248, 6966, 6040, 5778, 2440, 627, -3930, 170, 20, -34, 76, 175, 94, 40, 59, 45, 165, 36
96992301, 12208, 7020, 6086, 5749, 2504, 472, -3885, 472, 97, -41, 76, 175, 94, 40, 59, 45, 165, 36
96993091, 12208, 7020, 6086, 5749, 2504, 472, -3885, 472, 97, -41, 76, 175, 94, 40, 59, 45, 165, 36
96993923, 12249, 6950, 6036, 5799, 2462, 896, -3851, -34, 16, -1, 76, 175, 94, 40, 59, 45, 165, 36
96994736, 12249, 6950, 6036, 5799, 2462, 896, -3851, -34, 16, -1, 47, 49, 41, 34, 44, 42, 148, 32
96999703, 12249, 6950, 6036, 5799, 2462, 896, -3851, -34, 16, -1, 47, 49, 41, 34, 44, 42, 148, 32
97000607, 12256, 6940, 6031, 5801, 2453, 847, -3837, -73, -12, -13, 47, 49, 41, 34, 44, 42, 148, 32
97001411, 12256, 6940, 6031, 5801, 2453, 847, -3837, -73, -12, -13, 56, 55, 40, 36, 40, 38, 130, 39
97002224, 12256, 6940, 6031, 5801, 2453, 847, -3837, -73, -12, -13, 56, 55, 40, 36, 40, 38, 130, 39
97007255, 12256, 6940, 6031, 5801, 2453, 847, -3837, -73, -12, -13, 56, 55, 40, 36, 40, 38, 130, 39
97008050, 12256, 6940, 6031, 5801, 2453, 847, -3837, -73, -12, -13, 56, 55, 40, 36, 40, 38, 130, 39
97008895, 12256, 6940, 6031, 5801, 2453, 847, -3837, -73, -12, -13, 56, 55, 40, 36, 40, 38, 130, 39
97009718, 12256, 6940, 6031, 5801, 2453, 847, -3837, -73, -12, -13, 56, 55, 40, 36, 40, 38, 130, 39
97014667, 12256, 6940, 6031, 5801, 2453, 847, -3837, -73, -12, -13, 56, 55, 40, 36, 40, 38, 130, 39
97015463, 12256, 6940, 6031, 5801, 2453, 847, -3837, -73, -12, -13, 56, 55, 40, 36, 40, 38, 130, 39
97016290, 12256, 6940, 6031, 5801, 2453, 847, -3837, -73, -12, -13, 56, 55, 40, 36, 40, 38, 130, 39
97017103, 12256, 6940, 6031, 5801, 2453, 847, -3837, -73, -12, -13, 56, 55, 40, 36, 40, 38, 130, 39
97022228, 12256, 6940, 6031, 5801, 2453, 847, -3837, -73, -12, -13, 56, 55, 40, 36, 40, 38, 130, 39
97023087, 12259, 6935, 6029, 5802, 2470, 807, -3809, -38, -6, -7, 56, 55, 40, 36, 40, 38, 130, 39
97023886, 12259, 6935, 6029, 5802, 2470, 807, -3809, -38, -6, -7, 58, 55, 43, 36, 41, 41, 112, 37
97024717, 12259, 6935, 6029, 5802, 2470, 807, -3809, -38, -6, -7, 58, 55, 43, 36, 41, 41, 112, 37
97029778, 12259, 6935, 6029, 5802, 2470, 807, -3809, -38, -6, -7, 58, 55, 43, 36, 41, 41, 112, 37
97030561, 12259, 6935, 6029, 5802, 2470, 807, -3809, -38, -6, -7, 58, 55, 43, 36, 41, 41, 112, 37
97031358, 12259, 6935, 6029, 5802, 2470, 807, -3809, -38, -6, -7, 58, 55, 43, 36, 41, 41, 112, 37
97032195, 12259, 6935, 6029, 5802, 2470, 807, -3809, -38, -6, -7, 58, 55, 43, 36, 41, 41, 112, 37
97037224, 12259, 6935, 6029, 5802, 2470, 807, -3809, -38, -6, -7, 58, 55, 43, 36, 41, 41, 112, 37
97037989, 12259, 6935, 6029, 5802, 2470, 807, -3809, -38, -6, -7, 58, 55, 43, 36, 41, 41, 112, 37
97038802, 12259, 6935, 6029, 5802, 2470, 807, -3809, -38, -6, -7, 58, 55, 43, 36, 41, 41, 112, 37
97039612, 12259, 6935, 6029, 5802, 2470, 807, -3809, -38, -6, -7, 58, 55, 43, 36, 41, 41, 112, 37
97044681, 12259, 6935, 6029, 5802, 2470, 807, -3809, -38, -6, -7, 58, 55, 43, 36, 41, 41, 112, 37
97045626, 12255, 6940, 6035, 5800, 2461, 807, -3829, 48, 20, -4, 58, 55, 43, 36, 41, 41, 112, 37
97046434, 12255, 6940, 6035, 5800, 2461, 807, -3829, 48, 20, -4, 61, 55, 38, 38, 38, 39, 114, 39
97047247, 12255, 6940, 6035, 5800, 2461, 807, -3829, 48, 20, -4, 61, 55, 38, 38, 38, 39, 114, 39
97052260, 12255, 6940, 6035, 5800, 2461, 807, -3829, 48, 20, -4, 61, 55, 38, 38, 38, 39, 114, 39
97053056, 12255, 6940, 6035, 5800, 2461, 807, -3829, 48, 20, -4, 61, 55, 38, 38, 38, 39, 114, 39
97053878, 12255, 6940, 6035, 5800, 2461, 807, -3829, 48, 20, -4, 61, 55, 38, 38, 38, 39, 114, 39
97054690, 12255, 6940, 6035, 5800, 2461, 807, -3829, 48, 20, -4, 61, 55, 38, 38, 38, 39, 114, 39
97059660, 12255, 6940, 6035, 5800, 2461, 807, -3829, 48, 20, -4, 61, 55, 38, 38, 38, 39, 114, 39
97060465, 12255, 6940, 6035, 5800, 2461, 807, -3829, 48, 20, -4, 61, 55, 38, 38, 38, 39, 114, 39
97061301, 12255, 6940, 6035, 5800, 2461, 807, -3829, 48, 20, -4, 61, 55, 38, 38, 38, 39, 114, 39
97062097, 12255, 6940, 6035, 5800, 2461, 807, -3829, 48, 20, -4, 61, 55, 38, 38, 38, 39, 114, 39
97067245, 12255, 6940, 6035, 5800, 2461, 807, -3829, 48, 20, -4, 61, 55, 38, 38, 38, 39, 114, 39
97068102, 12251, 6945, 6037, 5800, 2444, 875, -3867, 35, 7, 11, 61, 55, 38, 38, 38, 39, 114, 39
97068913, 12251, 6945, 6037, 5800, 2444, 875, -3867, 35, 7, 11, 61, 61, 40, 36, 32, 40, 107, 39
97069726, 12251, 6945, 6037, 5800, 2444, 875, -3867, 35, 7, 11, 61, 61, 40, 36, 32, 40, 107, 39
97073215, 12251, 6945, 6037, 5800, 2444, 875, -3867, 35, 7, 11, 61, 61, 40, 36, 32, 40, 107, 39
97073987, 12251, 6945, 6037, 5800, 2444, 875, -3867, 35, 7, 11, 61, 61, 40, 36, 32, 40, 107, 39
97082139, 12251, 6945, 6037, 5800, 2444, 875, -3867, 35, 7, 11, 61, 61, 40, 36, 32, 40, 107, 39
97082948, 12251, 6945, 6037, 5800, 2444, 875, -3867, 35, 7, 11, 61, 61, 40, 36, 32, 40, 107, 39
97083745, 12251, 6945, 6037, 5800, 2444, 875, -3867, 35, 7, 11, 61, 61, 40, 36, 32, 40, 107, 39
97084563, 12251, 6945, 6037, 5800, 2444, 875, -3867, 35, 7, 11, 61, 61, 40, 36, 32, 40, 107, 39
97089659, 12251, 6945, 6037, 5800, 2444, 875, -3867, 35, 7, 11, 61, 61, 40, 36, 32, 40, 107, 39
97090466, 12251, 6945, 6037, 5800, 2444, 875, -3867, 35, 7, 11, 61, 61, 40, 36, 32, 40, 107, 39
97091253, 12251, 6945, 6037, 5800, 2444, 875, -3867, 35, 7, 11, 61, 61, 40, 36, 32, 40, 107, 39
97092188, 12251, 6945, 6037, 5800, 2444, 875, -3867, 35, 7, 11, 58, 63, 39, 39, 32, 40, 109, 39
97097260, 12251, 6945, 6037, 5800, 2444, 875, -3867, 35, 7, 11, 58, 63, 39, 39, 32, 40, 109, 39
97098057, 12251, 6945, 6037, 5800, 2444, 875, -3867, 35, 7, 11, 58, 63, 39, 39, 32, 40, 109, 39
97098872, 12251, 6945, 6037, 5800, 2444, 875, -3867, 35, 7, 11, 58, 63, 39, 39, 32, 40, 109, 39
97099692, 12251, 6945, 6037, 5800, 2444, 875, -3867, 35, 7, 11, 58, 63, 39, 39, 32, 40, 109, 39
97104649, 12251, 6945, 6037, 5800, 2444, 875, -3867, 35, 7, 11, 58, 63, 39, 39, 32, 40, 109, 39
97105462, 12251, 6945, 6037, 5800, 2444, 875, -3867, 35, 7, 11, 58, 63, 39, 39, 32, 40, 109, 39
97106266, 12251, 6945, 6037, 5800, 2444, 875, -3867, 35, 7, 11, 58, 63, 39, 39, 32, 40, 109, 39
97107119, 12251, 6945, 6037, 5800, 2444, 875, -3867, 35, 7, 11, 58, 63, 39, 39, 32, 40, 109, 39
97112310, 12267, 6928, 6020, 5804, 2460, 818, -3823, -97, -37, -5, 58, 63, 39, 39, 32, 40, 109, 39
97113099, 12267, 6928, 6020, 5804, 2460, 818, -3823, -97, -37, -5, 45, 58, 36, 36, 31, 43, 111, 31
97113908, 12267, 6928, 6020, 5804, 2460, 818, -3823, -97, -37, -5, 45, 58, 36, 36, 31, 43, 111, 31
97114716, 12267, 6928, 6020, 5804, 2460, 818, -3823, -97, -37, -5, 45, 58, 36, 36, 31, 43, 111, 31
97119651, 12267, 6928, 6020, 5804, 2460, 818, -3823, -97, -37, -5, 45, 58, 36, 36, 31, 43, 111, 31
97120491, 12267, 6928, 6020, 5804, 2460, 818, -3823, -97, -37, -5, 45, 58, 36, 36, 31, 43, 111, 31
97121257, 12267, 6928, 6020, 5804, 2460, 818, -3823, -97, -37, -5, 45, 58, 36, 36, 31, 43, 111, 31
97122063, 12267, 6928, 6020, 5804, 2460, 818, -3823, -97, -37, -5, 45, 58, 36, 36, 31, 43, 111, 31
97127247, 12267, 6928, 6020, 5804, 2460, 818, -3823, -97, -37, -5, 45, 58, 36, 36, 31, 43, 111, 31
97128155, 12266, 6930, 6021, 5802, 2467, 755, -3817, 16, -6, -6, 45, 58, 36, 36, 31, 43, 111, 31
97128966, 12266, 6930, 6021, 5802, 2467, 755, -3817, 16, -6, -6, 42, 57, 37, 34, 29, 40, 128, 32
97129778, 12266, 6930, 6021, 5802, 2467, 755, -3817, 16, -6, -6, 42, 57, 37, 34, 29, 40, 128, 32
97134814, 12266, 6930, 6021, 5802, 2467, 755, -3817, 16, -6, -6, 42, 57, 37, 34, 29, 40, 128, 32
97135606, 12266, 6930, 6021, 5802, 2467, 755, -3817, 16, -6, -6, 42, 57, 37, 34, 29, 40, 128, 32
97136439, 12266, 6930, 6021, 5802, 2467, 755, -3817, 16, -6, -6, 42, 57, 37, 34, 29, 40, 128, 32
97137212, 12266, 6930, 6021, 5802, 2467, 755, -3817, 16, -6, -6, 42, 57, 37, 34, 29, 40, 128, 32
97142208, 12266, 6930, 6021, 5802, 2467, 755, -3817, 16, -6, -6, 42, 57, 37, 34, 29, 40, 128, 32
97142960, 12266, 6930, 6021, 5802, 2467, 755, -3817, 16, -6, -6, 42, 57, 37, 34, 29, 40, 128, 32
97143775, 12266, 6930, 6021, 5802, 2467, 755, -3817, 16, -6, -6, 42, 57, 37, 34, 29, 40, 128, 32
97144591, 12266, 6930, 6021, 5802, 2467, 755, -3817, 16, -6, -6, 42, 57, 37, 34, 29, 40, 128, 32
97149678, 12266, 6930, 6021, 5802, 2467, 755, -3817, 16, -6, -6, 42, 57, 37, 34, 29, 40, 128, 32
97150630, 12259, 6941, 6026, 5800, 2445, 835, -3844, 79, 9, 18, 42, 57, 37, 34, 29, 40, 128, 32
97151412, 12259, 6941, 6026, 5800, 2445, 835, -3844, 79, 9, 18, 41, 68, 38, 33, 31, 39, 126, 31
97152263, 12259, 6941, 6026, 5800, 2445, 835, -3844, 79, 9, 18, 41, 68, 38, 33, 31, 39, 126, 31
97157239, 12259, 6941, 6026, 5800, 2445, 835, -3844, 79, 9, 18, 41, 68, 38, 33, 31, 39, 126, 31
97158040, 12259, 6941, 6026, 5800, 2445, 835, -3844, 79, 9, 18, 41, 68, 38, 33, 31, 39, 126, 31
97158848, 12259, 6941, 6026, 5800, 2445, 835, -3844, 79, 9, 18, 41, 68, 38, 33, 31, 39, 126, 31
97159669, 12259, 6941, 6026, 5800, 2445, 835, -3844, 79, 9, 18, 41, 68, 38, 33, 31, 39, 126, 31
97164638, 12259, 6941, 6026, 5800, 2445, 835, -3844, 79, 9, 18, 41, 68, 38, 33, 31, 39, 126, 31
97165438, 12259, 6941, 6026, 5800, 2445, 835, -3844, 79, 9, 18, 41, 68, 38, 33, 31, 39, 126, 31
97166254, 12259, 6941, 6026, 5800, 2445, 835, -3844, 79, 9, 18, 41, 68, 38, 33, 31, 39, 126, 31
97167057, 12259, 6941, 6026, 5800, 2445, 835, -3844, 79, 9, 18, 41, 68, 38, 33, 31, 39, 126, 31
97172194, 12259, 6941, 6026, 5800, 2445, 835, -3844, 79, 9, 18, 41, 68, 38, 33, 31, 39, 126, 31
97173053, 12255, 6947, 6026, 5800, 2457, 891, -3864, 30, -2, 18, 41, 68, 38, 33, 31, 39, 126, 31
97173863, 12255, 6947, 6026, 5800, 2457, 891, -3864, 30, -2, 18, 45, 67, 38, 34, 34, 40, 141, 31
97174678, 12255, 6947, 6026, 5800, 2457, 891, -3864, 30, -2, 18, 45, 67, 38, 34, 34, 40, 141, 31
97179681, 12255, 6947, 6026, 5800, 2457, 891, -3864, 30, -2, 18, 45, 67, 38, 34, 34, 40, 141, 31
97180506, 12255, 6947, 6026, 5800, 2457, 891, -3864, 30, -2, 18, 45, 67, 38, 34, 34, 40, 141, 31
97181318, 12255, 6947, 6026, 5800, 2457, 891, -3864, 30, -2, 18, 45, 67, 38, 34, 34, 40, 141, 31
97182190, 12255, 6947, 6026, 5800, 2457, 891, -3864, 30, -2, 18, 45, 67, 38, 34, 34, 40, 141, 31
97187204, 12255, 6947, 6026, 5800, 2457, 891, -3864, 30, -2, 18, 45, 67, 38, 34, 34, 40, 141, 31
97187982, 12255, 6947, 6026, 5800, 2457, 891, -3864, 30, -2, 18, 45, 67, 38, 34, 34, 40, 141, 31
97188796, 12255, 6947, 6026, 5800, 2457, 891, -3864, 30, -2, 18, 45, 67, 38, 34, 34, 40, 141, 31
97189585, 12255, 6947, 6026, 5800, 2457, 891, -3864, 30, -2, 18, 45, 67, 38, 34, 34, 40, 141, 31
97194677, 12255, 6947, 6026, 5800, 2457, 891, -3864, 30, -2, 18, 45, 67, 38, 34, 34, 40, 141, 31
97195611, 12261, 6941, 6019, 5803, 2462, 860, -3856, -57, -22, 3, 45, 67, 38, 34, 34, 40, 141, 31
97196418, 12261, 6941, 6019, 5803, 2462, 860, -3856, -57, -22, 3, 46, 59, 38, 32, 38, 42, 151, 34
97197210, 12261, 6941, 6019, 5803, 2462, 860, -3856, -57, -22, 3, 46, 59, 38, 32, 38, 42, 151, 34
97202250, 12261, 6941, 6019, 5803, 2462, 860, -3856, -57, -22, 3, 46, 59, 38, 32, 38, 42, 151, 34
97203069, 12261, 6941, 6019, 5803, 2462, 860, -3856, -57, -22, 3, 46, 59, 38, 32, 38, 42, 151, 34
97203867, 12261, 6941, 6019, 5803, 2462, 860, -3856, -57, -22, 3, 46, 59, 38, 32, 38, 42, 151, 34
97204681, 12261, 6941, 6019, 5803, 2462, 860, -3856, -57, -22, 3, 46, 59, 38, 32, 38, 42, 151, 34
97209668, 12261, 6941, 6019, 5803, 2462, 860, -3856, -57, -22, 3, 46, 59, 38, 32, 38, 42, 151, 34
97210456, 12261, 6941, 6019, 5803, 2462, 860, -3856, -57, -22, 3, 46, 59, 38, 32, 38, 42, 151, 34
97211271, 12261, 6941, 6019, 5803, 2462, 860, -3856, -57, -22, 3, 46, 59, 38, 32, 38, 42, 151, 34
97212071, 12261, 6941, 6019, 5803, 2462, 860, -3856, -57, -22, 3, 46, 59, 38, 32, 38, 42, 151, 34
97217200, 12261, 6941, 6019, 5803, 2462, 860, -3856, -57, -22, 3, 46, 59, 38, 32, 38, 42, 151, 34
97218091, 12265, 6938, 6016, 5800, 2470, 787, -3831, -21, -23, -18, 46, 59, 38, 32, 38, 42, 151, 34
97218894, 12265, 6938, 6016, 5800, 2470, 787, -3831, -21, -23, -18, 49, 63, 38, 33, 41, 39, 153, 35
97219708, 12265, 6938, 6016, 5800, 2470, 787, -3831, -21, -23, -18, 49, 63, 38, 33, 41, 39, 153, 35
97224732, 12265, 6938, 6016, 5800, 2470, 787, -3831, -21, -23, -18, 49, 63, 38, 33, 41, 39, 153, 35
97225534, 12265, 6938, 6016, 5800, 2470, 787, -3831, -21, -23, -18, 49, 63, 38, 33, 41, 39, 153, 35
97226338, 12265, 6938, 6016, 5800, 2470, 787, -3831, -21, -23, -18, 49, 63, 38, 33, 41, 39, 153, 35
97227180, 12265, 6938, 6016, 5800, 2470, 787, -3831, -21, -23, -18, 49, 63, 38, 33, 41, 39, 153, 35
97232118, 12265, 6938, 6016, 5800, 2470, 787, -3831, -21, -23, -18, 49, 63, 38, 33, 41, 39, 153, 35
97232924, 12265, 6938, 6016, 5800, 2470, 787, -3831, -21, -23, -18, 49, 63, 38, 33, 41, 39, 153, 35
97233734, 12265, 6938, 6016, 5800, 2470, 787, -3831, -21, -23, -18, 49, 63, 38, 33, 41, 39, 153, 35
97234551, 12265, 6938, 6016, 5800, 2470, 787, -3831, -21, -23, -18, 49, 63, 38, 33, 41, 39, 153, 35
97239729, 12265, 6938, 6016, 5800, 2470, 787, -3831, -21, -23, -18, 49, 63, 38, 33, 41, 39, 153, 35
97240627, 12260, 6946, 6024, 5792, 2461, 727, -3905, 75, 8, -27, 49, 63, 38, 33, 41, 39, 153, 35
97241425, 12260, 6946, 6024, 5792, 2461, 727, -3905, 75, 8, -27, 62, 141, 63, 36, 48, 40, 158, 34
97242248, 12260, 6946, 6024, 5792, 2461, 727, -3905, 75, 8, -27, 62, 141, 63, 36, 48, 40, 158, 34
97247251, 12260, 6946, 6024, 5792, 2461, 727, -3905, 75, 8, -27, 62, 141, 63, 36, 48, 40, 158, 34
97248077, 12260, 6946, 6024, 5792, 2461, 727, -3905, 75, 8, -27, 62, 141, 63, 36, 48, 40, 158, 34
97248860, 12260, 6946, 6024, 5792, 2461, 727, -3905, 75, 8, -27, 62, 141, 63, 36, 48, 40, 158, 34
97249679, 12260, 6946, 6024, 5792, 2461, 727, -3905, 75, 8, -27, 62, 141, 63, 36, 48, 40, 158, 34
97253286, 12260, 6946, 6024, 5792, 2461, 727, -3905, 75, 8, -27, 62, 141, 63, 36, 48, 40, 158, 34
97254108, 12260, 6946, 6024, 5792, 2461, 727, -3905, 75, 8, -27, 324, 747, 404, 97, 185, 126, 243, 43
97254902, 12260, 6946, 6024, 5792, 2461, 727, -3905, 75, 8, -27, 324, 747, 404, 97, 185, 126, 243, 43
97267037, 9302, 8649, 9850, 3171, 2709, 393, -3385, 869, 679, -438, 324, 747, 404, 97, 185, 126, 243, 43
97275210, 9302, 8649, 9850, 3171, 2709, 393, -3385, 869, 679, -438, 311, 716, 392, 95, 179, 125, 245, 42
97275983, 9302, 8649, 9850, 3171, 2709, 393, -3385, 869, 679, -438, 311, 716, 392, 95, 179, 125, 245, 42
97282202, 9189, 8668, 9952, 3128, 2764, 273, -3406, 650, 560, -252, 311, 716, 392, 95, 179, 125, 245, 42
97297706, 9189, 8668, 9952, 3128, 2764, 273, -3406, 650, 560, -252, 259, 661, 359, 88, 171, 112, 239, 42
97298486, 9189, 8668, 9952, 3128, 2764, 273, -3406, 650, 560, -252, 259, 661, 359, 88, 171, 112, 239, 42
97304638, 9103, 8694, 10019, 3093, 2728, 312, -3410, 526, 370, -126, 259, 661, 359, 88, 171, 112, 239, 42
97311973, 9103, 8694, 10019, 3093, 2728, 312, -3410, 526, 370, -126, 257, 669, 267, 98, 139, 93, 239, 46
97319492, 9103, 8694, 10019, 3093, 2728, 312, -3410, 526, 370, -126, 257, 669, 267, 98, 139, 93, 239, 46
97327228, 9058, 8708, 10054, 3074, 2706, 309, -3435, 281, 191, -69, 257, 669, 267, 98, 139, 93, 239, 46
97335220, 9058, 8708, 10054, 3074, 2706, 309, -3435, 281, 191, -69, 267, 726, 275, 101, 146, 87, 215, 46
97335880, 9058, 8708, 10054, 3074, 2706, 309, -3435, 281, 191, -69, 267, 726, 275, 101, 146, 87, 215, 46
97342092, 9047, 8711, 10060, 3078, 2825, 143, -3434, 29, 65, 16, 267, 726, 275, 101, 146, 87, 215, 46
97357635, 9047, 8711, 10060, 3078, 2825, 143, -3434, 29, 65, 16, 238, 681, 204, 92, 121, 82, 210, 48
97358427, 9047, 8711, 10060, 3078, 2825, 143, -3434, 29, 65, 16, 238, 681, 204, 92, 121, 82, 210, 48
97364666, 9056, 8712, 10048, 3087, 2838, 72, -3513, -64, -45, 54, 238, 681, 204, 92, 121, 82, 210, 48
97380233, 9056, 8712, 10048, 3087, 2838, 72, -3513, -64, -45, 54, 253, 662, 236, 90, 117, 80, 205, 48
97380994, 9056, 8712, 10048, 3087, 2838, 72, -3513, -64, -45, 54, 253, 662, 236, 90, 117, 80, 205, 48
97387210, 9082, 8706, 10022, 3113, 2892, -46, -3458, -217, -89, 111, 253, 662, 236, 90, 117, 80, 205, 48
97395209, 9082, 8706, 10022, 3113, 2892, -46, -3458, -217, -89, 111, 242, 638, 222, 85, 107, 79, 177, 48
97395881, 9082, 8706, 10022, 3113, 2892, -46, -3458, -217, -89, 111, 242, 638, 222, 85, 107, 79, 177, 48
97402108, 9107, 8704, 9996, 3130, 2958, -95, -3549, -166, -110, 99, 242, 638, 222, 85, 107, 79, 177, 48
97417705, 9107, 8704, 9996, 3130, 2958, -95, -3549, -166, -110, 99, 202, 549, 226, 68, 101, 79, 173, 40
97418479, 9107, 8704, 9996, 3130, 2958, -95, -3549, -166, -110, 99, 202, 549, 226, 68, 101, 79, 173, 40
97424664, 9145, 8691, 9967, 3145, 2939, 28, -3601, -235, -163, 41, 202, 549, 226, 68, 101, 79, 173, 40
97440229, 9145, 8691, 9967, 3145, 2939, 28, -3601, -235, -163, 41, 179, 468, 226, 57, 86, 80, 178, 38
97440987, 9145, 8691, 9967, 3145, 2939, 28, -3601, -235, -163, 41, 179, 468, 226, 57, 86, 80, 178, 38
97447210, 9203, 8654, 9933, 3187, 2977, -32, -3571, -468, -138, 44, 179, 468, 226, 57, 86, 80, 178, 38
97455209, 9203, 8654, 9933, 3187, 2977, -32, -3571, -468, -138, 44, 175, 461, 229, 57, 83, 78, 167, 38
97455981, 9203, 8654, 9933, 3187, 2977, -32, -3571, -468, -138, 44, 175, 461, 229, 57, 83, 78, 167, 38
97469641, 9269, 8611, 9894, 3232, 2989, -73, -3583, -525, -172, 39, 175, 461, 229, 57, 83, 78, 167, 38
97477639, 9269, 8611, 9894, 3232, 2989, -73, -3583, -525, -172, 39, 148, 453, 184, 62, 81, 82, 175, 39
97478436, 9269, 8611, 9894, 3232, 2989, -73, -3583, -525, -172, 39, 148, 453, 184, 62, 81, 82, 175, 39
97484607, 9347, 8566, 9844, 3280, 2972, 40, -3565, -591, -228, 61, 148, 453, 184, 62, 81, 82, 175, 39
97500219, 9347, 8566, 9844, 3280, 2972, 40, -3565, -591, -228, 61, 131, 430, 166, 59, 78, 83, 172, 38
97500986, 9347, 8566, 9844, 3280, 2972, 40, -3565, -591, -228, 61, 131, 430, 166, 59, 78, 83, 172, 38
97507206, 9439, 8511, 9779, 3354, 2992, 17, -3561, -766, -239, 142, 131, 430, 166, 59, 78, 83, 172, 38
97515224, 9439, 8511, 9779, 3354, 2992, 17, -3561, -766, -239, 142, 115, 351, 129, 51, 67, 85, 157, 39
97515882, 9439, 8511, 9779, 3354, 2992, 17, -3561, -766, -239, 142, 115, 351, 129, 51, 67, 85, 157, 39
97522118, 9531, 8464, 9707, 3421, 2945, -13, -3608, -727, -295, 159, 115, 351, 129, 51, 67, 85, 157, 39
97537753, 9531, 8464, 9707, 3421, 2945, -13, -3608, -727, -295, 159, 106, 327, 110, 51, 67, 79, 170, 41
97538496, 9531, 8464, 9707, 3421, 2945, -13, -3608, -727, -295, 159, 106, 327, 110, 51, 67, 79, 170, 41
97544637, 9646, 8420, 9605, 3494, 2821, 266, -3603, -837, -448, 250, 106, 327, 110, 51, 67, 79, 170, 41
97560261, 9646, 8420, 9605, 3494, 2821, 266, -3603, -837, -448, 250, 97, 314, 100, 50, 61, 105, 165, 41
97560985, 9646, 8420, 9605, 3494, 2821, 266, -3603, -837, -448, 250, 97, 314, 100, 50, 61, 105, 165, 41
97567213, 9808, 8361, 9445, 3620, 2812, 330, -3562, -1269, -629, 490, 97, 314, 100, 50, 61, 105, 165, 41
97575116, 9808, 8361, 9445, 3620, 2812, 330, -3562, -1269, -629, 490, 80, 240, 86, 37, 56, 101, 151, 40
97575925, 9808, 8361, 9445, 3620, 2812, 330, -3562, -1269, -629, 490, 80, 240, 86, 37, 56, 101, 151, 40
97582201, 9995, 8302, 9237, 3775, 2775, 367, -3526, -1485, -781, 692, 80, 240, 86, 37, 56, 101, 151, 40
97597668, 9995, 8302, 9237, 3775, 2775, 367, -3526, -1485, -781, 692, 73, 213, 78, 39, 58, 104, 154, 41
97598478, 9995, 8302, 9237, 3775, 2775, 367, -3526, -1485, -781, 692, 73, 213, 78, 39, 58, 104, 154, 41
97604642, 10196, 8236, 9001, 3949, 2658, 430, -3576, -1648, -863, 795, 73, 213, 78, 39, 58, 104, 154, 41
