Timestamp, Orientation x, Orientation y, Orientation z, Orientation w, Acceleration x, Acceleration y, Acceleration z, Rotation x, Rotation y, Rotation z, EMG 0, EMG 1, EMG 2, EMG 3, EMG 4, EMG 5, EMG 6, EMG 7
237339582, 11060, 1895, 9219, 7584, 3522, 1061, -3102, 193, -181, -425, 0, 0, 0, 0, 0, 0, 0, 0
237347032, 11104, 1892, 9224, 7513, 3500, 1086, -3109, 198, -160, -396, 0, 0, 0, 0, 0, 0, 0, 0
237362068, 11146, 1888, 9228, 7447, 3485, 1106, -3123, 176, -146, -373, 0, 0, 0, 0, 0, 0, 0, 0
237377081, 11185, 1879, 9233, 7384, 3478, 1076, -3143, 149, -125, -366, 0, 0, 0, 0, 0, 0, 0, 0
237399591, 11222, 1874, 9240, 7319, 3460, 1055, -3172, 179, -118, -364, 0, 0, 0, 0, 0, 0, 0, 0
237407702, 11222, 1874, 9240, 7319, 3460, 1055, -3172, 179, -118, -364, 115, 28, 25, 26, 31, 31, 65, 36
237408495, 11222, 1874, 9240, 7319, 3460, 1055, -3172, 179, -118, -364, 115, 28, 25, 26, 31, 31, 65, 36
237422047, 11262, 1874, 9249, 7246, 3430, 1051, -3190, 225, -138, -387, 115, 28, 25, 26, 31, 31, 65, 36
237430209, 11262, 1874, 9249, 7246, 3430, 1051, -3190, 225, -138, -387, 306, 34, 29, 28, 36, 33, 70, 39
237430982, 11262, 1874, 9249, 7246, 3430, 1051, -3190, 225, -138, -387, 306, 34, 29, 28, 36, 33, 70, 39
237437211, 11314, 1878, 9253, 7159, 3409, 998, -3268, 271, -219, -453, 306, 34, 29, 28, 36, 33, 70, 39
237452664, 11314, 1878, 9253, 7159, 3409, 998, -3268, 271, -219, -453, 475, 76, 40, 27, 54, 39, 79, 40
237453463, 11314, 1878, 9253, 7159, 3409, 998, -3268, 271, -219, -453, 475, 76, 40, 27, 54, 39, 79, 40
237459643, 11388, 1884, 9237, 7060, 3427, 1071, -3272, 250, -369, -532, 475, 76, 40, 27, 54, 39, 79, 40
237467695, 11388, 1884, 9237, 7060, 3427, 1071, -3272, 250, -369, -532, 599, 99, 41, 35, 60, 44, 83, 65
237468488, 11388, 1884, 9237, 7060, 3427, 1071, -3272, 250, -369, -532, 599, 99, 41, 35, 60, 44, 83, 65
237482010, 11494, 1868, 9193, 6949, 3479, 1174, -3367, 112, -543, -715, 599, 99, 41, 35, 60, 44, 83, 65
237490217, 11494, 1868, 9193, 6949, 3479, 1174, -3367, 112, -543, -715, 698, 116, 47, 38, 67, 47, 92, 69
237490982, 11494, 1868, 9193, 6949, 3479, 1174, -3367, 112, -543, -715, 698, 116, 47, 38, 67, 47, 92, 69
237497268, 11658, 1823, 9119, 6784, 3582, 1252, -3406, 59, -804, -1131, 698, 116, 47, 38, 67, 47, 92, 69
237512674, 11658, 1823, 9119, 6784, 3582, 1252, -3406, 59, -804, -1131, 750, 224, 95, 49, 74, 49, 93, 77
237513462, 11658, 1823, 9119, 6784, 3582, 1252, -3406, 59, -804, -1131, 750, 224, 95, 49, 74, 49, 93, 77
237519644, 11879, 1763, 9039, 6518, 3529, 1306, -3425, 269, -1030, -1706, 750, 224, 95, 49, 74, 49, 93, 77
237527660, 11879, 1763, 9039, 6518, 3529, 1306, -3425, 269, -1030, -1706, 711, 459, 320, 131, 93, 50, 103, 77
237528475, 11879, 1763, 9039, 6518, 3529, 1306, -3425, 269, -1030, -1706, 711, 459, 320, 131, 93, 50, 103, 77
237550868, 12125, 1705, 8965, 6174, 3239, 1550, -3503, 511, -1139, -2078, 711, 459, 320, 131, 93, 50, 103, 77
237551654, 12125, 1705, 8965, 6174, 3239, 1550, -3503, 511, -1139, -2078, 636, 546, 404, 163, 97, 46, 104, 79
237552458, 12125, 1705, 8965, 6174, 3239, 1550, -3503, 511, -1139, -2078, 636, 546, 404, 163, 97, 46, 104, 79
237557101, 12407, 1647, 8857, 5771, 2877, 1691, -3694, 600, -1426, -2381, 636, 546, 404, 163, 97, 46, 104, 79
237572651, 12407, 1647, 8857, 5771, 2877, 1691, -3694, 600, -1426, -2381, 525, 609, 509, 246, 99, 49, 105, 61
237573437, 12407, 1647, 8857, 5771, 2877, 1691, -3694, 600, -1426, -2381, 525, 609, 509, 246, 99, 49, 105, 61
237579671, 12724, 1586, 8708, 5307, 2596, 1733, -3801, 678, -1731, -2696, 525, 609, 509, 246, 99, 49, 105, 61
237587641, 12724, 1586, 8708, 5307, 2596, 1733, -3801, 678, -1731, -2696, 387, 752, 557, 359, 112, 52, 113, 55
237588442, 12724, 1586, 8708, 5307, 2596, 1733, -3801, 678, -1731, -2696, 387, 752, 557, 359, 112, 52, 113, 55
237602040, 13050, 1495, 8523, 4820, 2446, 1697, -3817, 540, -1874, -2878, 387, 752, 557, 359, 112, 52, 113, 55
237610147, 13050, 1495, 8523, 4820, 2446, 1697, -3817, 540, -1874, -2878, 278, 849, 580, 467, 112, 63, 117, 44
237610944, 13050, 1495, 8523, 4820, 2446, 1697, -3817, 540, -1874, -2878, 278, 849, 580, 467, 112, 63, 117, 44
237617117, 13371, 1364, 8303, 4337, 2405, 1563, -3817, 295, -1949, -2954, 278, 849, 580, 467, 112, 63, 117, 44
237632754, 13371, 1364, 8303, 4337, 2405, 1563, -3817, 295, -1949, -2954, 232, 767, 505, 481, 100, 63, 110, 41
237633493, 13371, 1364, 8303, 4337, 2405, 1563, -3817, 295, -1949, -2954, 232, 767, 505, 481, 100, 63, 110, 41
237639650, 13657, 1213, 8085, 3880, 2521, 1308, -3592, 151, -1798, -2839, 232, 767, 505, 481, 100, 63, 110, 41
237647645, 13657, 1213, 8085, 3880, 2521, 1308, -3592, 151, -1798, -2839, 144, 817, 496, 570, 106, 64, 114, 38
237648425, 13657, 1213, 8085, 3880, 2521, 1308, -3592, 151, -1798, -2839, 144, 817, 496, 570, 106, 64, 114, 38
237662064, 13882, 1114, 7932, 3396, 2580, 1225, -3447, 575, -1406, -2768, 144, 817, 496, 570, 106, 64, 114, 38
237670240, 13882, 1114, 7932, 3396, 2580, 1225, -3447, 575, -1406, -2768, 113, 856, 397, 554, 106, 64, 118, 36
237670999, 13882, 1114, 7932, 3396, 2580, 1225, -3447, 575, -1406, -2768, 113, 856, 397, 554, 106, 64, 118, 36
237677252, 14053, 1082, 7833, 2896, 2456, 1187, -3490, 1026, -1087, -2616, 113, 856, 397, 554, 106, 64, 118, 36
237692701, 14053, 1082, 7833, 2896, 2456, 1187, -3490, 1026, -1087, -2616, 92, 755, 340, 572, 125, 71, 108, 36
237693513, 14053, 1082, 7833, 2896, 2456, 1187, -3490, 1026, -1087, -2616, 92, 755, 340, 572, 125, 71, 108, 36
237699668, 14187, 1097, 7746, 2434, 2347, 1309, -3523, 1172, -967, -2279, 92, 755, 340, 572, 125, 71, 108, 36
237707641, 14187, 1097, 7746, 2434, 2347, 1309, -3523, 1172, -967, -2279, 74, 662, 298, 504, 135, 62, 103, 36
237708423, 14187, 1097, 7746, 2434, 2347, 1309, -3523, 1172, -967, -2279, 74, 662, 298, 504, 135, 62, 103, 36
237722026, 14303, 1130, 7640, 2048, 2203, 1305, -3496, 1047, -990, -1844, 74, 662, 298, 504, 135, 62, 103, 36
237730230, 14303, 1130, 7640, 2048, 2203, 1305, -3496, 1047, -990, -1844, 81, 650, 278, 485, 142, 74, 112, 36
237731001, 14303, 1130, 7640, 2048, 2203, 1305, -3496, 1047, -990, -1844, 81, 650, 278, 485, 142, 74, 112, 36
237737151, 14423, 1198, 7474, 1757, 1885, 1217, -3390, 931, -1285, -1262, 81, 650, 278, 485, 142, 74, 112, 36
237752688, 14423, 1198, 7474, 1757, 1885, 1217, -3390, 931, -1285, -1262, 86, 509, 163, 372, 148, 82, 231, 40
237753472, 14423, 1198, 7474, 1757, 1885, 1217, -3390, 931, -1285, -1262, 86, 509, 163, 372, 148, 82, 231, 40
237759685, 14588, 1347, 7152, 1621, 1271, 1381, -3289, 819, -2157, -259, 86, 509, 163, 372, 148, 82, 231, 40
237767695, 14588, 1347, 7152, 1621, 1271, 1381, -3289, 819, -2157, -259, 130, 348, 153, 359, 179, 93, 551, 94
237768479, 14588, 1347, 7152, 1621, 1271, 1381, -3289, 819, -2157, -259, 130, 348, 153, 359, 179, 93, 551, 94
237782032, 14808, 1610, 6607, 1703, 1390, 1340, -3800, 707, -3362, 1180, 130, 348, 153, 359, 179, 93, 551, 94
237790245, 14808, 1610, 6607, 1703, 1390, 1340, -3800, 707, -3362, 1180, 160, 309, 136, 203, 222, 174, 806, 142
237790970, 14808, 1610, 6607, 1703, 1390, 1340, -3800, 707, -3362, 1180, 160, 309, 136, 203, 222, 174, 806, 142
237797156, 15060, 2003, 5789, 2018, 2290, 1319, -4185, 664, -4766, 2787, 160, 309, 136, 203, 222, 174, 806, 142
237812694, 15060, 2003, 5789, 2018, 2290, 1319, -4185, 664, -4766, 2787, 171, 201, 130, 161, 309, 220, 994, 254
237813490, 15060, 2003, 5789, 2018, 2290, 1319, -4185, 664, -4766, 2787, 171, 201, 130, 161, 309, 220, 994, 254
237819639, 15304, 2216, 4755, 2583, 2778, 1848, -4362, -904, -5579, 3878, 171, 201, 130, 161, 309, 220, 994, 254
237827678, 15304, 2216, 4755, 2583, 2778, 1848, -4362, -904, -5579, 3878, 324, 215, 149, 142, 385, 273, 1222, 315
237828474, 15304, 2216, 4755, 2583, 2778, 1848, -4362, -904, -5579, 3878, 324, 215, 149, 142, 385, 273, 1222, 315
237842025, 15506, 1914, 3735, 3221, 1342, 3021, -3891, -3680, -4924, 3449, 324, 215, 149, 142, 385, 273, 1222, 315
237850239, 15506, 1914, 3735, 3221, 1342, 3021, -3891, -3680, -4924, 3449, 418, 236, 162, 131, 410, 297, 1306, 322
237850965, 15506, 1914, 3735, 3221, 1342, 3021, -3891, -3680, -4924, 3449, 418, 236, 162, 131, 410, 297, 1306, 322
237857148, 15667, 1433, 2874, 3555, -180, 2248, -3239, -4037, -4026, 1543, 418, 236, 162, 131, 410, 297, 1306, 322
237872672, 15667, 1433, 2874, 3555, -180, 2248, -3239, -4037, -4026, 1543, 443, 245, 175, 106, 412, 299, 1279, 333
237873452, 15667, 1433, 2874, 3555, -180, 2248, -3239, -4037, -4026, 1543, 443, 245, 175, 106, 412, 299, 1279, 333
237879629, 15751, 1017, 2065, 3876, -2131, -750, -4755, -3570, -3754, 1601, 443, 245, 175, 106, 412, 299, 1279, 333
237887672, 15751, 1017, 2065, 3876, -2131, -750, -4755, -3570, -3754, 1601, 451, 283, 179, 104, 403, 262, 1263, 327
237888463, 15751, 1017, 2065, 3876, -2131, -750, -4755, -3570, -3754, 1601, 451, 283, 179, 104, 403, 262, 1263, 327
237902033, 15753, 1327, 981, 4187, -1, 240, -5399, 14, -6154, 2276, 451, 283, 179, 104, 403, 262, 1263, 327
237910147, 15753, 1327, 981, 4187, -1, 240, -5399, 14, -6154, 2276, 459, 285, 173, 99, 352, 540, 1207, 264
237910949, 15753, 1327, 981, 4187, -1, 240, -5399, 14, -6154, 2276, 459, 285, 173, 99, 352, 540, 1207, 264
237917122, 15680, 1856, 12, 4370, 3612, -106, -4752, 1433, -5875, 1709, 459, 285, 173, 99, 352, 540, 1207, 264
237932655, 15680, 1856, 12, 4370, 3612, -106, -4752, 1433, -5875, 1709, 372, 304, 161, 87, 343, 760, 1001, 190
237933439, 15680, 1856, 12, 4370, 3612, -106, -4752, 1433, -5875, 1709, 372, 304, 161, 87, 343, 760, 1001, 190
237939607, 15517, 2069, -629, 4792, 4908, 1185, -4088, 289, -3488, 2910, 372, 304, 161, 87, 343, 760, 1001, 190
237947653, 15517, 2069, -629, 4792, 4908, 1185, -4088, 289, -3488, 2910, 267, 328, 144, 75, 330, 855, 942, 186
237948436, 15517, 2069, -629, 4792, 4908, 1185, -4088, 289, -3488, 2910, 267, 328, 144, 75, 330, 855, 942, 186
237962090, 15457, 2252, -945, 4849, 3593, 1803, -3223, 506, -1950, 586, 267, 328, 144, 75, 330, 855, 942, 186
237970141, 15457, 2252, -945, 4849, 3593, 1803, -3223, 506, -1950, 586, 211, 318, 122, 75, 321, 925, 900, 145
237970949, 15457, 2252, -945, 4849, 3593, 1803, -3223, 506, -1950, 586, 211, 318, 122, 75, 321, 925, 900, 145
237977115, 15434, 2530, -989, 4777, 2690, 2570, -2318, 1388, -758, -401, 211, 318, 122, 75, 321, 925, 900, 145
237992630, 15434, 2530, -989, 4777, 2690, 2570, -2318, 1388, -758, -401, 186, 280, 98, 68, 303, 932, 752, 118
237993421, 15434, 2530, -989, 4777, 2690, 2570, -2318, 1388, -758, -401, 186, 280, 98, 68, 303, 932, 752, 118
237999594, 15427, 2745, -892, 4699, 2572, 2816, -2053, 1269, 97, -554, 186, 280, 98, 68, 303, 932, 752, 118
238006960, 15427, 2745, -892, 4699, 2572, 2816, -2053, 1269, 97, -554, 153, 269, 87, 63, 289, 795, 622, 83
238014486, 15427, 2745, -892, 4699, 2572, 2816, -2053, 1269, 97, -554, 153, 269, 87, 63, 289, 795, 622, 83
238022120, 15445, 2878, -789, 4579, 1902, 2639, -1985, 815, 218, -799, 153, 269, 87, 63, 289, 795, 622, 83
238030150, 15445, 2878, -789, 4579, 1902, 2639, -1985, 815, 218, -799, 143, 214, 78, 56, 194, 567, 609, 83
238030948, 15445, 2878, -789, 4579, 1902, 2639, -1985, 815, 218, -799, 143, 214, 78, 56, 194, 567, 609, 83
238037119, 15473, 2916, -713, 4472, 1242, 2117, -2078, 262, 241, -692, 143, 214, 78, 56, 194, 567, 609, 83
238052647, 15473, 2916, -713, 4472, 1242, 2117, -2078, 262, 241, -692, 148, 122, 72, 49, 147, 391, 491, 60
238053435, 15473, 2916, -713, 4472, 1242, 2117, -2078, 262, 241, -692, 148, 122, 72, 49, 147, 391, 491, 60
238059616, 15498, 2883, -659, 4415, 1050, 1792, -2335, -132, 287, -387, 148, 122, 72, 49, 147, 391, 491, 60
238075132, 15498, 2883, -659, 4415, 1050, 1792, -2335, -132, 287, -387, 148, 112, 53, 41, 121, 162, 401, 54
238075937, 15498, 2883, -659, 4415, 1050, 1792, -2335, -132, 287, -387, 148, 112, 53, 41, 121, 162, 401, 54
238082076, 15514, 2849, -607, 4387, 994, 1704, -2789, -124, 300, -217, 148, 112, 53, 41, 121, 162, 401, 54
238090149, 15514, 2849, -607, 4387, 994, 1704, -2789, -124, 300, -217, 129, 80, 45, 39, 84, 101, 339, 57
238090949, 15514, 2849, -607, 4387, 994, 1704, -2789, -124, 300, -217, 129, 80, 45, 39, 84, 101, 339, 57
238097105, 15521, 2810, -558, 4394, 1023, 1622, -3248, -137, 328, -13, 129, 80, 45, 39, 84, 101, 339, 57
238112622, 15521, 2810, -558, 4394, 1023, 1622, -3248, -137, 328, -13, 133, 89, 50, 41, 76, 72, 356, 54
238113443, 15521, 2810, -558, 4394, 1023, 1622, -3248, -137, 328, -13, 133, 89, 50, 41, 76, 72, 356, 54
238119611, 15521, 2763, -497, 4429, 1088, 1531, -3535, -152, 423, 133, 133, 89, 50, 41, 76, 72, 356, 54
238135137, 15521, 2763, -497, 4429, 1088, 1531, -3535, -152, 423, 133, 129, 73, 48, 39, 61, 56, 322, 51
238135901, 15521, 2763, -497, 4429, 1088, 1531, -3535, -152, 423, 133, 129, 73, 48, 39, 61, 56, 322, 51
238142099, 15520, 2695, -429, 4481, 991, 1495, -3599, -249, 515, 228, 129, 73, 48, 39, 61, 56, 322, 51
238150186, 15520, 2695, -429, 4481, 991, 1495, -3599, -249, 515, 228, 118, 76, 49, 40, 55, 52, 343, 52
238150914, 15520, 2695, -429, 4481, 991, 1495, -3599, -249, 515, 228, 118, 76, 49, 40, 55, 52, 343, 52
238157080, 15512, 2633, -362, 4552, 1028, 1424, -3499, -211, 515, 331, 118, 76, 49, 40, 55, 52, 343, 52
238172619, 15512, 2633, -362, 4552, 1028, 1424, -3499, -211, 515, 331, 93, 73, 48, 41, 51, 51, 317, 51
238173411, 15512, 2633, -362, 4552, 1028, 1424, -3499, -211, 515, 331, 93, 73, 48, 41, 51, 51, 317, 51
238179582, 15495, 2603, -286, 4632, 1063, 1541, -3387, -16, 518, 388, 93, 73, 48, 41, 51, 51, 317, 51
238195229, 15495, 2603, -286, 4632, 1063, 1541, -3387, -16, 518, 388, 97, 68, 49, 36, 53, 50, 309, 45
238195962, 15495, 2603, -286, 4632, 1063, 1541, -3387, -16, 518, 388, 97, 68, 49, 36, 53, 50, 309, 45
238202127, 15470, 2605, -218, 4719, 1092, 1710, -3343, 148, 434, 438, 97, 68, 49, 36, 53, 50, 309, 45
238210108, 15470, 2605, -218, 4719, 1092, 1710, -3343, 148, 434, 438, 93, 54, 40, 34, 52, 48, 293, 49
238210917, 15470, 2605, -218, 4719, 1092, 1710, -3343, 148, 434, 438, 93, 54, 40, 34, 52, 48, 293, 49
238217091, 15442, 2627, -158, 4801, 1183, 1847, -3285, 242, 347, 422, 93, 54, 40, 34, 52, 48, 293, 49
238232675, 15442, 2627, -158, 4801, 1183, 1847, -3285, 242, 347, 422, 90, 57, 40, 36, 57, 45, 339, 41
238233467, 15442, 2627, -158, 4801, 1183, 1847, -3285, 242, 347, 422, 90, 57, 40, 36, 57, 45, 339, 41
238239636, 15417, 2647, -104, 4871, 1208, 1903, -3252, 222, 317, 361, 90, 57, 40, 36, 57, 45, 339, 41
238255225, 15417, 2647, -104, 4871, 1208, 1903, -3252, 222, 317, 361, 79, 49, 36, 34, 55, 47, 312, 39
238255961, 15417, 2647, -104, 4871, 1208, 1903, -3252, 222, 317, 361, 79, 49, 36, 34, 55, 47, 312, 39
238262124, 15397, 2654, -52, 4928, 1258, 1802, -3224, 145, 308, 286, 79, 49, 36, 34, 55, 47, 312, 39
238270112, 15397, 2654, -52, 4928, 1258, 1802, -3224, 145, 308, 286, 76, 48, 36, 33, 56, 43, 310, 40
238270915, 15397, 2654, -52, 4928, 1258, 1802, -3224, 145, 308, 286, 76, 48, 36, 33, 56, 43, 310, 40
238277138, 15381, 2655, 1, 4978, 1336, 1757, -3158, 110, 326, 243, 76, 48, 36, 33, 56, 43, 310, 40
238292667, 15381, 2655, 1, 4978, 1336, 1757, -3158, 110, 326, 243, 64, 50, 33, 36, 60, 46, 322, 39
238293468, 15381, 2655, 1, 4978, 1336, 1757, -3158, 110, 326, 243, 64, 50, 33, 36, 60, 46, 322, 39
238299619, 15364, 2656, 69, 5029, 1438, 1693, -3158, 134, 397, 231, 64, 50, 33, 36, 60, 46, 322, 39
238315227, 15364, 2656, 69, 5029, 1438, 1693, -3158, 134, 397, 231, 69, 51, 30, 34, 56, 47, 318, 33
238315892, 15364, 2656, 69, 5029, 1438, 1693, -3158, 134, 397, 231, 69, 51, 30, 34, 56, 47, 318, 33
238322109, 15345, 2654, 154, 5087, 1489, 1629, -3129, 152, 504, 261, 69, 51, 30, 34, 56, 47, 318, 33
238338302, 15345, 2654, 154, 5087, 1489, 1629, -3129, 152, 504, 261, 88, 45, 29, 32, 52, 46, 261, 37
238339103, 15345, 2654, 154, 5087, 1489, 1629, -3129, 152, 504, 261, 88, 45, 29, 32, 52, 46, 261, 37
238340040, 15319, 2665, 263, 5155, 1524, 1667, -3087, 265, 614, 304, 88, 45, 29, 32, 52, 46, 261, 37
238352631, 15319, 2665, 263, 5155, 1524, 1667, -3087, 265, 614, 304, 96, 46, 29, 31, 52, 44, 256, 34
