Timestamp, Orientation x, Orientation y, Orientation z, Orientation w, Acceleration x, Acceleration y, Acceleration z, Rotation x, Rotation y, Rotation z, EMG 0, EMG 1, EMG 2, EMG 3, EMG 4, EMG 5, EMG 6, EMG 7
169835970, -6877, 8864, 9963, 6580, 3998, -22, -1425, -118, 23, -220, 0, 0, 0, 0, 0, 0, 0, 0
169836779, -6868, 8848, 9974, 6595, 4029, 18, -1440, -44, 57, -221, 0, 0, 0, 0, 0, 0, 0, 0
169857751, -6863, 8829, 9982, 6612, 4031, 54, -1438, -32, 86, -202, 0, 0, 0, 0, 0, 0, 0, 0
169865361, -6859, 8816, 9983, 6633, 4020, 81, -1411, -74, 105, -161, 0, 0, 0, 0, 0, 0, 0, 0
169887806, -6848, 8818, 9971, 6659, 4021, 42, -1429, -179, 95, -121, 0, 0, 0, 0, 0, 0, 0, 0
169903487, -6848, 8818, 9971, 6659, 4021, 42, -1429, -179, 95, -121, 93, 75, 305, 137, 39, 33, 24, 68
169904247, -6848, 8818, 9971, 6659, 4021, 42, -1429, -179, 95, -121, 93, 75, 305, 137, 39, 33, 24, 68
169910349, -6849, 8817, 9953, 6686, 4023, 51, -1399, -157, 162, -88, 93, 75, 305, 137, 39, 33, 24, 68
169918407, -6849, 8817, 9953, 6686, 4023, 51, -1399, -157, 162, -88, 96, 76, 340, 138, 41, 35, 26, 56
169919172, -6849, 8817, 9953, 6686, 4023, 51, -1399, -157, 162, -88, 96, 76, 340, 138, 41, 35, 26, 56
169925331, -6857, 8812, 9934, 6713, 3963, 77, -1382, -119, 198, -71, 96, 76, 340, 138, 41, 35, 26, 56
169943052, -6857, 8812, 9934, 6713, 3963, 77, -1382, -119, 198, -71, 96, 76, 340, 138, 41, 35, 26, 56
169943847, -6877, 8864, 9963, 6580, 3998, -22, -1425, -118, 23, -220, 96, 76, 340, 138, 41, 35, 26, 56
169944671, -6868, 8848, 9974, 6595, 4029, 18, -1440, -44, 57, -221, 96, 76, 340, 138, 41, 35, 26, 56
169945505, -6863, 8829, 9982, 6612, 4031, 54, -1438, -32, 86, -202, 96, 76, 340, 138, 41, 35, 26, 56
169950488, -6859, 8816, 9983, 6633, 4020, 81, -1411, -74, 105, -161, 96, 76, 340, 138, 41, 35, 26, 56
169951245, -6848, 8818, 9971, 6659, 4021, 42, -1429, -179, 95, -121, 96, 76, 340, 138, 41, 35, 26, 56
169952041, -6848, 8818, 9971, 6659, 4021, 42, -1429, -179, 95, -121, 93, 75, 305, 137, 39, 33, 24, 68
169952968, -6848, 8818, 9971, 6659, 4021, 42, -1429, -179, 95, -121, 96, 76, 340, 138, 41, 35, 26, 56
169957961, -6848, 8818, 9971, 6659, 4021, 42, -1429, -179, 95, -121, 96, 76, 340, 138, 41, 35, 26, 56
169958795, -6848, 8818, 9971, 6659, 4021, 42, -1429, -179, 95, -121, 96, 76, 340, 138, 41, 35, 26, 56
169959607, -6848, 8818, 9971, 6659, 4021, 42, -1429, -179, 95, -121, 96, 76, 340, 138, 41, 35, 26, 56
169960412, -6848, 8818, 9971, 6659, 4021, 42, -1429, -179, 95, -121, 96, 76, 340, 138, 41, 35, 26, 56
169965483, -6848, 8818, 9971, 6659, 4021, 42, -1429, -179, 95, -121, 96, 76, 340, 138, 41, 35, 26, 56
169966234, -6848, 8818, 9971, 6659, 4021, 42, -1429, -179, 95, -121, 96, 76, 340, 138, 41, 35, 26, 56
169967126, -6848, 8818, 9971, 6659, 4021, 42, -1429, -179, 95, -121, 96, 76, 340, 138, 41, 35, 26, 56
169967852, -6848, 8818, 9971, 6659, 4021, 42, -1429, -179, 95, -121, 96, 76, 340, 138, 41, 35, 26, 56
169987920, -6848, 8818, 9971, 6659, 4021, 42, -1429, -179, 95, -121, 96, 76, 340, 138, 41, 35, 26, 56
169988809, -6857, 8812, 9934, 6713, 3963, 77, -1382, -119, 198, -71, 96, 76, 340, 138, 41, 35, 26, 56
169989633, -6857, 8812, 9934, 6713, 3963, 77, -1382, -119, 198, -71, 248, 99, 395, 249, 61, 39, 30, 104
169990448, -6857, 8812, 9934, 6713, 3963, 77, -1382, -119, 198, -71, 248, 99, 395, 249, 61, 39, 30, 104
169995607, -6857, 8812, 9934, 6713, 3963, 77, -1382, -119, 198, -71, 248, 99, 395, 249, 61, 39, 30, 104
169996292, -6857, 8812, 9934, 6713, 3963, 77, -1382, -119, 198, -71, 248, 99, 395, 249, 61, 39, 30, 104
169997120, -6857, 8812, 9934, 6713, 3963, 77, -1382, -119, 198, -71, 248, 99, 395, 249, 61, 39, 30, 104
169997940, -6857, 8812, 9934, 6713, 3963, 77, -1382, -119, 198, -71, 248, 99, 395, 249, 61, 39, 30, 104
170000692, -6857, 8812, 9934, 6713, 3963, 77, -1382, -119, 198, -71, 248, 99, 395, 249, 61, 39, 30, 104
170025402, -6857, 8812, 9934, 6713, 3963, 77, -1382, -119, 198, -71, 248, 99, 395, 249, 61, 39, 30, 104
170026183, -6857, 8812, 9934, 6713, 3963, 77, -1382, -119, 198, -71, 248, 99, 395, 249, 61, 39, 30, 104
170026980, -6857, 8812, 9934, 6713, 3963, 77, -1382, -119, 198, -71, 248, 99, 395, 249, 61, 39, 30, 104
170027803, -6857, 8812, 9934, 6713, 3963, 77, -1382, -119, 198, -71, 248, 99, 395, 249, 61, 39, 30, 104
170033083, -6847, 8827, 9907, 6743, 3946, 43, -1418, -259, 149, -43, 248, 99, 395, 249, 61, 39, 30, 104
170033939, -6847, 8827, 9907, 6743, 3946, 43, -1418, -259, 149, -43, 266, 106, 498, 262, 69, 41, 40, 110
170034665, -6847, 8827, 9907, 6743, 3946, 43, -1418, -259, 149, -43, 266, 106, 498, 262, 69, 41, 40, 110
170035445, -6847, 8827, 9907, 6743, 3946, 43, -1418, -259, 149, -43, 266, 106, 498, 262, 69, 41, 40, 110
170040334, -6847, 8827, 9907, 6743, 3946, 43, -1418, -259, 149, -43, 266, 106, 498, 262, 69, 41, 40, 110
170041129, -6847, 8827, 9907, 6743, 3946, 43, -1418, -259, 149, -43, 266, 106, 498, 262, 69, 41, 40, 110
170041953, -6847, 8827, 9907, 6743, 3946, 43, -1418, -259, 149, -43, 266, 106, 498, 262, 69, 41, 40, 110
170042787, -6847, 8827, 9907, 6743, 3946, 43, -1418, -259, 149, -43, 266, 106, 498, 262, 69, 41, 40, 110
170051513, -6847, 8827, 9907, 6743, 3946, 43, -1418, -259, 149, -43, 266, 106, 498, 262, 69, 41, 40, 110
170051519, -6840, 8837, 9879, 6778, 3983, -32, -1436, -277, 199, -110, 266, 106, 498, 262, 69, 41, 40, 110
170051523, -6840, 8837, 9879, 6778, 3983, -32, -1436, -277, 199, -110, 292, 99, 509, 336, 76, 232, 125, 140
170051527, -6840, 8837, 9879, 6778, 3983, -32, -1436, -277, 199, -110, 292, 99, 509, 336, 76, 232, 125, 140
170055435, -6840, 8837, 9879, 6778, 3983, -32, -1436, -277, 199, -110, 292, 99, 509, 336, 76, 232, 125, 140
170056242, -6840, 8837, 9879, 6778, 3983, -32, -1436, -277, 199, -110, 292, 99, 509, 336, 76, 232, 125, 140
170057031, -6840, 8837, 9879, 6778, 3983, -32, -1436, -277, 199, -110, 292, 99, 509, 336, 76, 232, 125, 140
170057881, -6840, 8837, 9879, 6778, 3983, -32, -1436, -277, 199, -110, 292, 99, 509, 336, 76, 232, 125, 140
170062910, -6840, 8837, 9879, 6778, 3983, -32, -1436, -277, 199, -110, 292, 99, 509, 336, 76, 232, 125, 140
170063710, -6840, 8837, 9879, 6778, 3983, -32, -1436, -277, 199, -110, 292, 99, 509, 336, 76, 232, 125, 140
170064514, -6840, 8837, 9879, 6778, 3983, -32, -1436, -277, 199, -110, 292, 99, 509, 336, 76, 232, 125, 140
170065340, -6840, 8837, 9879, 6778, 3983, -32, -1436, -277, 199, -110, 292, 99, 509, 336, 76, 232, 125, 140
170070426, -6840, 8837, 9879, 6778, 3983, -32, -1436, -277, 199, -110, 292, 99, 509, 336, 76, 232, 125, 140
170071330, -6857, 8824, 9869, 6793, 3945, -22, -1353, -34, 202, -126, 292, 99, 509, 336, 76, 232, 125, 140
170072133, -6857, 8824, 9869, 6793, 3945, -22, -1353, -34, 202, -126, 320, 100, 527, 368, 79, 252, 133, 146
170072931, -6857, 8824, 9869, 6793, 3945, -22, -1353, -34, 202, -126, 320, 100, 527, 368, 79, 252, 133, 146
170077999, -6857, 8824, 9869, 6793, 3945, -22, -1353, -34, 202, -126, 320, 100, 527, 368, 79, 252, 133, 146
170078803, -6857, 8824, 9869, 6793, 3945, -22, -1353, -34, 202, -126, 320, 100, 527, 368, 79, 252, 133, 146
170084953, -6857, 8824, 9869, 6793, 3945, -22, -1353, -34, 202, -126, 320, 100, 527, 368, 79, 252, 133, 146
170084959, -6857, 8824, 9869, 6793, 3945, -22, -1353, -34, 202, -126, 320, 100, 527, 368, 79, 252, 133, 146
170085391, -6857, 8824, 9869, 6793, 3945, -22, -1353, -34, 202, -126, 320, 100, 527, 368, 79, 252, 133, 146
170086175, -6857, 8824, 9869, 6793, 3945, -22, -1353, -34, 202, -126, 320, 100, 527, 368, 79, 252, 133, 146
170086993, -6857, 8824, 9869, 6793, 3945, -22, -1353, -34, 202, -126, 320, 100, 527, 368, 79, 252, 133, 146
170087788, -6857, 8824, 9869, 6793, 3945, -22, -1353, -34, 202, -126, 320, 100, 527, 368, 79, 252, 133, 146
170101573, -6857, 8824, 9869, 6793, 3945, -22, -1353, -34, 202, -126, 320, 100, 527, 368, 79, 252, 133, 146
170101579, -6908, 8790, 9867, 6788, 3955, -5, -1337, 209, 288, -85, 320, 100, 527, 368, 79, 252, 133, 146
170101902, -6908, 8790, 9867, 6788, 3955, -5, -1337, 209, 288, -85, 328, 104, 522, 416, 90, 256, 135, 150
170107995, -6908, 8790, 9867, 6788, 3955, -5, -1337, 209, 288, -85, 328, 104, 522, 416, 90, 256, 135, 150
170108795, -6908, 8790, 9867, 6788, 3955, -5, -1337, 209, 288, -85, 328, 104, 522, 416, 90, 256, 135, 150
170109609, -6908, 8790, 9867, 6788, 3955, -5, -1337, 209, 288, -85, 328, 104, 522, 416, 90, 256, 135, 150
170110413, -6908, 8790, 9867, 6788, 3955, -5, -1337, 209, 288, -85, 328, 104, 522, 416, 90, 256, 135, 150
170115426, -6908, 8790, 9867, 6788, 3955, -5, -1337, 209, 288, -85, 328, 104, 522, 416, 90, 256, 135, 150
170116188, -6908, 8790, 9867, 6788, 3955, -5, -1337, 209, 288, -85, 328, 104, 522, 416, 90, 256, 135, 150
170117010, -6908, 8790, 9867, 6788, 3955, -5, -1337, 209, 288, -85, 328, 104, 522, 416, 90, 256, 135, 150
170117830, -6908, 8790, 9867, 6788, 3955, -5, -1337, 209, 288, -85, 328, 104, 522, 416, 90, 256, 135, 150
170122926, -6908, 8790, 9867, 6788, 3955, -5, -1337, 209, 288, -85, 328, 104, 522, 416, 90, 256, 135, 150
170123830, -6928, 8774, 9856, 6805, 3928, 150, -1397, 1, 269, -38, 328, 104, 522, 416, 90, 256, 135, 150
170124608, -6928, 8774, 9856, 6805, 3928, 150, -1397, 1, 269, -38, 278, 111, 527, 483, 104, 261, 137, 129
170125433, -6928, 8774, 9856, 6805, 3928, 150, -1397, 1, 269, -38, 278, 111, 527, 483, 104, 261, 137, 129
170130466, -6928, 8774, 9856, 6805, 3928, 150, -1397, 1, 269, -38, 278, 111, 527, 483, 104, 261, 137, 129
170131285, -6928, 8774, 9856, 6805, 3928, 150, -1397, 1, 269, -38, 278, 111, 527, 483, 104, 261, 137, 129
170132073, -6928, 8774, 9856, 6805, 3928, 150, -1397, 1, 269, -38, 278, 111, 527, 483, 104, 261, 137, 129
170132937, -6928, 8774, 9856, 6805, 3928, 150, -1397, 1, 269, -38, 278, 111, 527, 483, 104, 261, 137, 129
170135643, -6928, 8774, 9856, 6805, 3928, 150, -1397, 1, 269, -38, 278, 111, 527, 483, 104, 261, 137, 129
170151046, -6928, 8774, 9856, 6805, 3928, 150, -1397, 1, 269, -38, 278, 111, 527, 483, 104, 261, 137, 129
170151054, -6928, 8774, 9856, 6805, 3928, 150, -1397, 1, 269, -38, 278, 111, 527, 483, 104, 261, 137, 129
170151057, -6928, 8774, 9856, 6805, 3928, 150, -1397, 1, 269, -38, 278, 111, 527, 483, 104, 261, 137, 129
170151061, -6928, 8774, 9856, 6805, 3928, 150, -1397, 1, 269, -38, 278, 111, 527, 483, 104, 261, 137, 129
170153017, -6905, 8799, 9818, 6850, 3884, 82, -1396, -387, 193, -27, 278, 111, 527, 483, 104, 261, 137, 129
170153794, -6905, 8799, 9818, 6850, 3884, 82, -1396, -387, 193, -27, 293, 144, 434, 490, 102, 263, 139, 138
170154611, -6905, 8799, 9818, 6850, 3884, 82, -1396, -387, 193, -27, 293, 144, 434, 490, 102, 263, 139, 138
170155415, -6905, 8799, 9818, 6850, 3884, 82, -1396, -387, 193, -27, 293, 144, 434, 490, 102, 263, 139, 138
170160362, -6905, 8799, 9818, 6850, 3884, 82, -1396, -387, 193, -27, 293, 144, 434, 490, 102, 263, 139, 138
170161184, -6905, 8799, 9818, 6850, 3884, 82, -1396, -387, 193, -27, 293, 144, 434, 490, 102, 263, 139, 138
170161994, -6905, 8799, 9818, 6850, 3884, 82, -1396, -387, 193, -27, 293, 144, 434, 490, 102, 263, 139, 138
170163251, -6905, 8799, 9818, 6850, 3884, 82, -1396, -387, 193, -27, 293, 144, 434, 490, 102, 263, 139, 138
170182995, -6905, 8799, 9818, 6850, 3884, 82, -1396, -387, 193, -27, 293, 144, 434, 490, 102, 263, 139, 138
170183848, -6857, 8855, 9756, 6914, 3910, -133, -1373, -702, 135, -74, 293, 144, 434, 490, 102, 263, 139, 138
170184657, -6857, 8855, 9756, 6914, 3910, -133, -1373, -702, 135, -74, 411, 219, 408, 536, 272, 143, 87, 140
170185472, -6857, 8855, 9756, 6914, 3910, -133, -1373, -702, 135, -74, 411, 219, 408, 536, 272, 143, 87, 140
170190467, -6857, 8855, 9756, 6914, 3910, -133, -1373, -702, 135, -74, 411, 219, 408, 536, 272, 143, 87, 140
170191283, -6857, 8855, 9756, 6914, 3910, -133, -1373, -702, 135, -74, 411, 219, 408, 536, 272, 143, 87, 140
170192080, -6857, 8855, 9756, 6914, 3910, -133, -1373, -702, 135, -74, 411, 219, 408, 536, 272, 143, 87, 140
170192906, -6857, 8855, 9756, 6914, 3910, -133, -1373, -702, 135, -74, 411, 219, 408, 536, 272, 143, 87, 140
170197903, -6857, 8855, 9756, 6914, 3910, -133, -1373, -702, 135, -74, 411, 219, 408, 536, 272, 143, 87, 140
170198677, -6857, 8855, 9756, 6914, 3910, -133, -1373, -702, 135, -74, 411, 219, 408, 536, 272, 143, 87, 140
170199613, -6857, 8855, 9756, 6914, 3910, -133, -1373, -702, 135, -74, 411, 219, 408, 536, 272, 143, 87, 140
170200344, -6857, 8855, 9756, 6914, 3910, -133, -1373, -702, 135, -74, 411, 219, 408, 536, 272, 143, 87, 140
170205402, -6857, 8855, 9756, 6914, 3910, -133, -1373, -702, 135, -74, 411, 219, 408, 536, 272, 143, 87, 140
170206320, -6862, 8882, 9735, 6904, 3864, -294, -1346, -145, 55, -68, 411, 219, 408, 536, 272, 143, 87, 140
170207108, -6862, 8882, 9735, 6904, 3864, -294, -1346, -145, 55, -68, 466, 307, 368, 644, 452, 148, 154, 163
170207929, -6862, 8882, 9735, 6904, 3864, -294, -1346, -145, 55, -68, 466, 307, 368, 644, 452, 148, 154, 163
170212958, -6862, 8882, 9735, 6904, 3864, -294, -1346, -145, 55, -68, 466, 307, 368, 644, 452, 148, 154, 163
170213771, -6862, 8882, 9735, 6904, 3864, -294, -1346, -145, 55, -68, 466, 307, 368, 644, 452, 148, 154, 163
170214641, -6862, 8882, 9735, 6904, 3864, -294, -1346, -145, 55, -68, 466, 307, 368, 644, 452, 148, 154, 163
170215439, -6862, 8882, 9735, 6904, 3864, -294, -1346, -145, 55, -68, 466, 307, 368, 644, 452, 148, 154, 163
170227938, -6862, 8882, 9735, 6904, 3864, -294, -1346, -145, 55, -68, 466, 307, 368, 644, 452, 148, 154, 163
170228743, -6862, 8882, 9735, 6904, 3864, -294, -1346, -145, 55, -68, 466, 307, 368, 644, 452, 148, 154, 163
170229521, -6862, 8882, 9735, 6904, 3864, -294, -1346, -145, 55, -68, 466, 307, 368, 644, 452, 148, 154, 163
170230330, -6862, 8882, 9735, 6904, 3864, -294, -1346, -145, 55, -68, 466, 307, 368, 644, 452, 148, 154, 163
170235471, -6862, 8882, 9735, 6904, 3864, -294, -1346, -145, 55, -68, 466, 307, 368, 644, 452, 148, 154, 163
170236341, -6879, 8871, 9776, 6844, 3756, -113, -1416, 318, -64, -136, 466, 307, 368, 644, 452, 148, 154, 163
170237137, -6879, 8871, 9776, 6844, 3756, -113, -1416, 318, -64, -136, 567, 469, 412, 680, 533, 156, 263, 218
170237931, -6879, 8871, 9776, 6844, 3756, -113, -1416, 318, -64, -136, 567, 469, 412, 680, 533, 156, 263, 218
170242954, -6879, 8871, 9776, 6844, 3756, -113, -1416, 318, -64, -136, 567, 469, 412, 680, 533, 156, 263, 218
170243753, -6879, 8871, 9776, 6844, 3756, -113, -1416, 318, -64, -136, 567, 469, 412, 680, 533, 156, 263, 218
170244604, -6879, 8871, 9776, 6844, 3756, -113, -1416, 318, -64, -136, 567, 469, 412, 680, 533, 156, 263, 218
170245393, -6879, 8871, 9776, 6844, 3756, -113, -1416, 318, -64, -136, 567, 469, 412, 680, 533, 156, 263, 218
170252229, -6879, 8871, 9776, 6844, 3756, -113, -1416, 318, -64, -136, 567, 469, 412, 680, 533, 156, 263, 218
170252235, -6879, 8871, 9776, 6844, 3756, -113, -1416, 318, -64, -136, 567, 469, 412, 680, 533, 156, 263, 218
170252239, -6879, 8871, 9776, 6844, 3756, -113, -1416, 318, -64, -136, 567, 469, 412, 680, 533, 156, 263, 218
170252659, -6879, 8871, 9776, 6844, 3756, -113, -1416, 318, -64, -136, 567, 469, 412, 680, 533, 156, 263, 218
170257884, -6879, 8871, 9776, 6844, 3756, -113, -1416, 318, -64, -136, 567, 469, 412, 680, 533, 156, 263, 218
170258917, -6839, 8865, 9852, 6782, 3819, 138, -1581, 261, -308, -225, 567, 469, 412, 680, 533, 156, 263, 218
170259620, -6839, 8865, 9852, 6782, 3819, 138, -1581, 261, -308, -225, 744, 545, 498, 772, 733, 229, 381, 271
170260407, -6839, 8865, 9852, 6782, 3819, 138, -1581, 261, -308, -225, 744, 545, 498, 772, 733, 229, 381, 271
170265488, -6839, 8865, 9852, 6782, 3819, 138, -1581, 261, -308, -225, 744, 545, 498, 772, 733, 229, 381, 271
170266309, -6839, 8865, 9852, 6782, 3819, 138, -1581, 261, -308, -225, 744, 545, 498, 772, 733, 229, 381, 271
170267108, -6839, 8865, 9852, 6782, 3819, 138, -1581, 261, -308, -225, 744, 545, 498, 772, 733, 229, 381, 271
170268008, -6839, 8865, 9852, 6782, 3819, 138, -1581, 261, -308, -225, 744, 545, 498, 772, 733, 229, 381, 271
170272831, -6839, 8865, 9852, 6782, 3819, 138, -1581, 261, -308, -225, 744, 545, 498, 772, 733, 229, 381, 271
170273669, -6839, 8865, 9852, 6782, 3819, 138, -1581, 261, -308, -225, 744, 545, 498, 772, 733, 229, 381, 271
170274453, -6839, 8865, 9852, 6782, 3819, 138, -1581, 261, -308, -225, 744, 545, 498, 772, 733, 229, 381, 271
170275255, -6839, 8865, 9852, 6782, 3819, 138, -1581, 261, -308, -225, 744, 545, 498, 772, 733, 229, 381, 271
170280409, -6839, 8865, 9852, 6782, 3819, 138, -1581, 261, -308, -225, 744, 545, 498, 772, 733, 229, 381, 271
170281332, -6762, 8870, 9956, 6700, 3887, 159, -1648, 251, -599, -308, 744, 545, 498, 772, 733, 229, 381, 271
170282148, -6762, 8870, 9956, 6700, 3887, 159, -1648, 251, -599, -308, 894, 684, 517, 1079, 1001, 280, 518, 497
170283043, -6762, 8870, 9956, 6700, 3887, 159, -1648, 251, -599, -308, 894, 684, 517, 1079, 1001, 280, 518, 497
170287096, -6762, 8870, 9956, 6700, 3887, 159, -1648, 251, -599, -308, 894, 684, 517, 1079, 1001, 280, 518, 497
170287897, -6762, 8870, 9956, 6700, 3887, 159, -1648, 251, -599, -308, 894, 684, 517, 1079, 1001, 280, 518, 497
170288686, -6762, 8870, 9956, 6700, 3887, 159, -1648, 251, -599, -308, 894, 684, 517, 1079, 1001, 280, 518, 497
170295368, -6762, 8870, 9956, 6700, 3887, 159, -1648, 251, -599, -308, 894, 684, 517, 1079, 1001, 280, 518, 497
170296171, -6762, 8870, 9956, 6700, 3887, 159, -1648, 251, -599, -308, 894, 684, 517, 1079, 1001, 280, 518, 497
170296998, -6762, 8870, 9956, 6700, 3887, 159, -1648, 251, -599, -308, 894, 684, 517, 1079, 1001, 280, 518, 497
170297784, -6762, 8870, 9956, 6700, 3887, 159, -1648, 251, -599, -308, 894, 684, 517, 1079, 1001, 280, 518, 497
170302852, -6762, 8870, 9956, 6700, 3887, 159, -1648, 251, -599, -308, 894, 684, 517, 1079, 1001, 280, 518, 497
170303690, -6762, 8870, 9956, 6700, 3887, 159, -1648, 251, -599, -308, 894, 684, 517, 1079, 1001, 280, 518, 497
170304614, -6681, 8890, 10069, 6586, 3741, -172, -1621, 278, -793, -396, 894, 684, 517, 1079, 1001, 280, 518, 497
170305438, -6681, 8890, 10069, 6586, 3741, -172, -1621, 278, -793, -396, 966, 832, 611, 1113, 1107, 319, 661, 648
170310439, -6681, 8890, 10069, 6586, 3741, -172, -1621, 278, -793, -396, 966, 832, 611, 1113, 1107, 319, 661, 648
170311258, -6681, 8890, 10069, 6586, 3741, -172, -1621, 278, -793, -396, 966, 832, 611, 1113, 1107, 319, 661, 648
170312058, -6681, 8890, 10069, 6586, 3741, -172, -1621, 278, -793, -396, 966, 832, 611, 1113, 1107, 319, 661, 648
170313607, -6681, 8890, 10069, 6586, 3741, -172, -1621, 278, -793, -396, 966, 832, 611, 1113, 1107, 319, 661, 648
170317850, -6681, 8890, 10069, 6586, 3741, -172, -1621, 278, -793, -396, 966, 832, 611, 1113, 1107, 319, 661, 648
170318636, -6681, 8890, 10069, 6586, 3741, -172, -1621, 278, -793, -396, 966, 832, 611, 1113, 1107, 319, 661, 648
170319462, -6681, 8890, 10069, 6586, 3741, -172, -1621, 278, -793, -396, 966, 832, 611, 1113, 1107, 319, 661, 648
170320299, -6681, 8890, 10069, 6586, 3741, -172, -1621, 278, -793, -396, 966, 832, 611, 1113, 1107, 319, 661, 648
170325439, -6681, 8890, 10069, 6586, 3741, -172, -1621, 278, -793, -396, 966, 832, 611, 1113, 1107, 319, 661, 648
170326309, -6700, 8830, 10242, 6376, 3924, -282, -1597, 1208, -794, -465, 966, 832, 611, 1113, 1107, 319, 661, 648
170327099, -6700, 8830, 10242, 6376, 3924, -282, -1597, 1208, -794, -465, 1033, 1060, 655, 1186, 1292, 475, 956, 711
170327913, -6700, 8830, 10242, 6376, 3924, -282, -1597, 1208, -794, -465, 1033, 1060, 655, 1186, 1292, 475, 956, 711
170332945, -6700, 8830, 10242, 6376, 3924, -282, -1597, 1208, -794, -465, 1033, 1060, 655, 1186, 1292, 475, 956, 711
170333752, -6700, 8830, 10242, 6376, 3924, -282, -1597, 1208, -794, -465, 1033, 1060, 655, 1186, 1292, 475, 956, 711
170334610, -6700, 8830, 10242, 6376, 3924, -282, -1597, 1208, -794, -465, 1033, 1060, 655, 1186, 1292, 475, 956, 711
170335306, -6700, 8830, 10242, 6376, 3924, -282, -1597, 1208, -794, -465, 1033, 1060, 655, 1186, 1292, 475, 956, 711
170340318, -6700, 8830, 10242, 6376, 3924, -282, -1597, 1208, -794, -465, 1033, 1060, 655, 1186, 1292, 475, 956, 711
170341129, -6700, 8830, 10242, 6376, 3924, -282, -1597, 1208, -794, -465, 1033, 1060, 655, 1186, 1292, 475, 956, 711
170341926, -6700, 8830, 10242, 6376, 3924, -282, -1597, 1208, -794, -465, 1033, 1060, 655, 1186, 1292, 475, 956, 711
170342750, -6700, 8830, 10242, 6376, 3924, -282, -1597, 1208, -794, -465, 1033, 1060, 655, 1186, 1292, 475, 956, 711
170347908, -6700, 8830, 10242, 6376, 3924, -282, -1597, 1208, -794, -465, 1033, 1060, 655, 1186, 1292, 475, 956, 711
170348813, -6827, 8710, 10385, 6172, 5260, 142, 503, 1684, -238, -105, 1033, 1060, 655, 1186, 1292, 475, 956, 711
170349631, -6827, 8710, 10385, 6172, 5260, 142, 503, 1684, -238, -105, 1105, 1141, 669, 1332, 1504, 569, 1037, 840
170350434, -6827, 8710, 10385, 6172, 5260, 142, 503, 1684, -238, -105, 1105, 1141, 669, 1332, 1504, 569, 1037, 840
170355230, -6827, 8710, 10385, 6172, 5260, 142, 503, 1684, -238, -105, 1105, 1141, 669, 1332, 1504, 569, 1037, 840
170356036, -6827, 8710, 10385, 6172, 5260, 142, 503, 1684, -238, -105, 1105, 1141, 669, 1332, 1504, 569, 1037, 840
170356835, -6827, 8710, 10385, 6172, 5260, 142, 503, 1684, -238, -105, 1105, 1141, 669, 1332, 1504, 569, 1037, 840
170357659, -6827, 8710, 10385, 6172, 5260, 142, 503, 1684, -238, -105, 1105, 1141, 669, 1332, 1504, 569, 1037, 840
170362856, -6827, 8710, 10385, 6172, 5260, 142, 503, 1684, -238, -105, 1105, 1141, 669, 1332, 1504, 569, 1037, 840
170363681, -6827, 8710, 10385, 6172, 5260, 142, 503, 1684, -238, -105, 1105, 1141, 669, 1332, 1504, 569, 1037, 840
170364472, -6827, 8710, 10385, 6172, 5260, 142, 503, 1684, -238, -105, 1105, 1141, 669, 1332, 1504, 569, 1037, 840
170365285, -6827, 8710, 10385, 6172, 5260, 142, 503, 1684, -238, -105, 1105, 1141, 669, 1332, 1504, 569, 1037, 840
170370359, -6827, 8710, 10385, 6172, 5260, 142, 503, 1684, -238, -105, 1105, 1141, 669, 1332, 1504, 569, 1037, 840
170371289, -6861, 8570, 10431, 6252, 4030, 1806, -1346, 573, 433, 93, 1105, 1141, 669, 1332, 1504, 569, 1037, 840
170372110, -6861, 8570, 10431, 6252, 4030, 1806, -1346, 573, 433, 93, 1029, 1202, 620, 1398, 1500, 574, 1148, 964
170372934, -6861, 8570, 10431, 6252, 4030, 1806, -1346, 573, 433, 93, 1029, 1202, 620, 1398, 1500, 574, 1148, 964
170377939, -6861, 8570, 10431, 6252, 4030, 1806, -1346, 573, 433, 93, 1029, 1202, 620, 1398, 1500, 574, 1148, 964
170378759, -6861, 8570, 10431, 6252, 4030, 1806, -1346, 573, 433, 93, 1029, 1202, 620, 1398, 1500, 574, 1148, 964
170380522, -6861, 8570, 10431, 6252, 4030, 1806, -1346, 573, 433, 93, 1029, 1202, 620, 1398, 1500, 574, 1148, 964
170380529, -6861, 8570, 10431, 6252, 4030, 1806, -1346, 573, 433, 93, 1029, 1202, 620, 1398, 1500, 574, 1148, 964
170385355, -6861, 8570, 10431, 6252, 4030, 1806, -1346, 573, 433, 93, 1029, 1202, 620, 1398, 1500, 574, 1148, 964
170386142, -6861, 8570, 10431, 6252, 4030, 1806, -1346, 573, 433, 93, 1029, 1202, 620, 1398, 1500, 574, 1148, 964
170386961, -6861, 8570, 10431, 6252, 4030, 1806, -1346, 573, 433, 93, 1029, 1202, 620, 1398, 1500, 574, 1148, 964
170387764, -6861, 8570, 10431, 6252, 4030, 1806, -1346, 573, 433, 93, 1029, 1202, 620, 1398, 1500, 574, 1148, 964
170392845, -6861, 8570, 10431, 6252, 4030, 1806, -1346, 573, 433, 93, 1029, 1202, 620, 1398, 1500, 574, 1148, 964
170393762, -6458, 8850, 10232, 6610, 3299, -592, -2064, -3589, -425, -233, 1029, 1202, 620, 1398, 1500, 574, 1148, 964
170394606, -6458, 8850, 10232, 6610, 3299, -592, -2064, -3589, -425, -233, 994, 1185, 639, 1340, 1364, 635, 1120, 994
170395384, -6458, 8850, 10232, 6610, 3299, -592, -2064, -3589, -425, -233, 994, 1185, 639, 1340, 1364, 635, 1120, 994
170400423, -6458, 8850, 10232, 6610, 3299, -592, -2064, -3589, -425, -233, 994, 1185, 639, 1340, 1364, 635, 1120, 994
170401225, -6458, 8850, 10232, 6610, 3299, -592, -2064, -3589, -425, -233, 994, 1185, 639, 1340, 1364, 635, 1120, 994
170402050, -6458, 8850, 10232, 6610, 3299, -592, -2064, -3589, -425, -233, 994, 1185, 639, 1340, 1364, 635, 1120, 994
170402856, -6458, 8850, 10232, 6610, 3299, -592, -2064, -3589, -425, -233, 994, 1185, 639, 1340, 1364, 635, 1120, 994
170408181, -6458, 8850, 10232, 6610, 3299, -592, -2064, -3589, -425, -233, 994, 1185, 639, 1340, 1364, 635, 1120, 994
170408190, -6458, 8850, 10232, 6610, 3299, -592, -2064, -3589, -425, -233, 994, 1185, 639, 1340, 1364, 635, 1120, 994
170409479, -6458, 8850, 10232, 6610, 3299, -592, -2064, -3589, -425, -233, 994, 1185, 639, 1340, 1364, 635, 1120, 994
170414357, -6458, 8850, 10232, 6610, 3299, -592, -2064, -3589, -425, -233, 994, 1185, 639, 1340, 1364, 635, 1120, 994
170415022, -6458, 8850, 10232, 6610, 3299, -592, -2064, -3589, -425, -233, 994, 1185, 639, 1340, 1364, 635, 1120, 994
170423031, -6530, 8946, 10138, 6555, 4179, -1573, -910, -365, -307, -68, 994, 1185, 639, 1340, 1364, 635, 1120, 994
170428660, -6530, 8946, 10138, 6555, 4179, -1573, -910, -365, -307, -68, 997, 1170, 597, 1305, 1282, 658, 1165, 946
170428666, -6530, 8946, 10138, 6555, 4179, -1573, -910, -365, -307, -68, 997, 1170, 597, 1305, 1282, 658, 1165, 946
170428669, -6530, 8946, 10138, 6555, 4179, -1573, -910, -365, -307, -68, 997, 1170, 597, 1305, 1282, 658, 1165, 946
170430380, -6530, 8946, 10138, 6555, 4179, -1573, -910, -365, -307, -68, 997, 1170, 597, 1305, 1282, 658, 1165, 946
170431139, -6530, 8946, 10138, 6555, 4179, -1573, -910, -365, -307, -68, 997, 1170, 597, 1305, 1282, 658, 1165, 946
170431960, -6530, 8946, 10138, 6555, 4179, -1573, -910, -365, -307, -68, 997, 1170, 597, 1305, 1282, 658, 1165, 946
170432759, -6530, 8946, 10138, 6555, 4179, -1573, -910, -365, -307, -68, 997, 1170, 597, 1305, 1282, 658, 1165, 946
170437859, -6530, 8946, 10138, 6555, 4179, -1573, -910, -365, -307, -68, 997, 1170, 597, 1305, 1282, 658, 1165, 946
170438804, -6665, 8688, 10415, 6328, 3521, 74, -1757, 2384, -218, -950, 997, 1170, 597, 1305, 1282, 658, 1165, 946
170439612, -6665, 8688, 10415, 6328, 3521, 74, -1757, 2384, -218, -950, 951, 1040, 549, 1178, 1041, 614, 1002, 915
170440421, -6665, 8688, 10415, 6328, 3521, 74, -1757, 2384, -218, -950, 951, 1040, 549, 1178, 1041, 614, 1002, 915
170445421, -6665, 8688, 10415, 6328, 3521, 74, -1757, 2384, -218, -950, 951, 1040, 549, 1178, 1041, 614, 1002, 915
170446253, -6665, 8688, 10415, 6328, 3521, 74, -1757, 2384, -218, -950, 951, 1040, 549, 1178, 1041, 614, 1002, 915
170447037, -6665, 8688, 10415, 6328, 3521, 74, -1757, 2384, -218, -950, 951, 1040, 549, 1178, 1041, 614, 1002, 915
170447859, -6665, 8688, 10415, 6328, 3521, 74, -1757, 2384, -218, -950, 951, 1040, 549, 1178, 1041, 614, 1002, 915
170452821, -6665, 8688, 10415, 6328, 3521, 74, -1757, 2384, -218, -950, 951, 1040, 549, 1178, 1041, 614, 1002, 915
170453615, -6665, 8688, 10415, 6328, 3521, 74, -1757, 2384, -218, -950, 951, 1040, 549, 1178, 1041, 614, 1002, 915
170454439, -6665, 8688, 10415, 6328, 3521, 74, -1757, 2384, -218, -950, 951, 1040, 549, 1178, 1041, 614, 1002, 915
170455259, -6665, 8688, 10415, 6328, 3521, 74, -1757, 2384, -218, -950, 951, 1040, 549, 1178, 1041, 614, 1002, 915
170460385, -6665, 8688, 10415, 6328, 3521, 74, -1757, 2384, -218, -950, 951, 1040, 549, 1178, 1041, 614, 1002, 915
170461311, -6689, 8515, 10610, 6212, 4387, 1123, -1740, 1472, -372, -457, 951, 1040, 549, 1178, 1041, 614, 1002, 915
170462130, -6689, 8515, 10610, 6212, 4387, 1123, -1740, 1472, -372, -457, 891, 928, 527, 977, 661, 609, 909, 800
170462936, -6689, 8515, 10610, 6212, 4387, 1123, -1740, 1472, -372, -457, 891, 928, 527, 977, 661, 609, 909, 800
170467967, -6689, 8515, 10610, 6212, 4387, 1123, -1740, 1472, -372, -457, 891, 928, 527, 977, 661, 609, 909, 800
170468760, -6689, 8515, 10610, 6212, 4387, 1123, -1740, 1472, -372, -457, 891, 928, 527, 977, 661, 609, 909, 800
170469609, -6689, 8515, 10610, 6212, 4387, 1123, -1740, 1472, -372, -457, 891, 928, 527, 977, 661, 609, 909, 800
170470386, -6689, 8515, 10610, 6212, 4387, 1123, -1740, 1472, -372, -457, 891, 928, 527, 977, 661, 609, 909, 800
170475347, -6689, 8515, 10610, 6212, 4387, 1123, -1740, 1472, -372, -457, 891, 928, 527, 977, 661, 609, 909, 800
170476155, -6689, 8515, 10610, 6212, 4387, 1123, -1740, 1472, -372, -457, 891, 928, 527, 977, 661, 609, 909, 800
170476955, -6689, 8515, 10610, 6212, 4387, 1123, -1740, 1472, -372, -457, 891, 928, 527, 977, 661, 609, 909, 800
170477779, -6689, 8515, 10610, 6212, 4387, 1123, -1740, 1472, -372, -457, 891, 928, 527, 977, 661, 609, 909, 800
170482881, -6689, 8515, 10610, 6212, 4387, 1123, -1740, 1472, -372, -457, 891, 928, 527, 977, 661, 609, 909, 800
170483789, -6574, 8501, 10645, 6295, 4120, 653, -1740, -467, -210, -434, 891, 928, 527, 977, 661, 609, 909, 800
170484603, -6574, 8501, 10645, 6295, 4120, 653, -1740, -467, -210, -434, 908, 819, 594, 753, 467, 716, 831, 742
170485404, -6574, 8501, 10645, 6295, 4120, 653, -1740, -467, -210, -434, 908, 819, 594, 753, 467, 716, 831, 742
170488917, -6574, 8501, 10645, 6295, 4120, 653, -1740, -467, -210, -434, 908, 819, 594, 753, 467, 716, 831, 742
170489712, -6574, 8501, 10645, 6295, 4120, 653, -1740, -467, -210, -434, 908, 819, 594, 753, 467, 716, 831, 742
170497599, -6574, 8501, 10645, 6295, 4120, 653, -1740, -467, -210, -434, 908, 819, 594, 753, 467, 716, 831, 742
170497604, -6574, 8501, 10645, 6295, 4120, 653, -1740, -467, -210, -434, 908, 819, 594, 753, 467, 716, 831, 742
170505320, -6574, 8501, 10645, 6295, 4120, 653, -1740, -467, -210, -434, 908, 819, 594, 753, 467, 716, 831, 742
170506141, -6574, 8501, 10645, 6295, 4120, 653, -1740, -467, -210, -434, 908, 819, 594, 753, 467, 716, 831, 742
170507554, -6574, 8501, 10645, 6295, 4120, 653, -1740, -467, -210, -434, 908, 819, 594, 753, 467, 716, 831, 742
170507805, -6574, 8501, 10645, 6295, 4120, 653, -1740, -467, -210, -434, 908, 819, 594, 753, 467, 716, 831, 742
170512845, -6574, 8501, 10645, 6295, 4120, 653, -1740, -467, -210, -434, 908, 819, 594, 753, 467, 716, 831, 742
170513756, -6574, 8501, 10645, 6295, 4120, 653, -1740, -467, -210, -434, 878, 745, 687, 385, 396, 713, 889, 689
170514604, -6574, 8501, 10645, 6295, 4120, 653, -1740, -467, -210, -434, 878, 745, 687, 385, 396, 713, 889, 689
170515382, -6574, 8501, 10645, 6295, 4120, 653, -1740, -467, -210, -434, 878, 745, 687, 385, 396, 713, 889, 689
170520639, -6574, 8501, 10645, 6295, 4120, 653, -1740, -467, -210, -434, 878, 745, 687, 385, 396, 713, 889, 689
170521285, -6574, 8501, 10645, 6295, 4120, 653, -1740, -467, -210, -434, 878, 745, 687, 385, 396, 713, 889, 689
170522093, -6574, 8501, 10645, 6295, 4120, 653, -1740, -467, -210, -434, 878, 745, 687, 385, 396, 713, 889, 689
170522895, -6574, 8501, 10645, 6295, 4120, 653, -1740, -467, -210, -434, 878, 745, 687, 385, 396, 713, 889, 689
170527870, -6574, 8501, 10645, 6295, 4120, 653, -1740, -467, -210, -434, 878, 745, 687, 385, 396, 713, 889, 689
170528676, -6574, 8501, 10645, 6295, 4120, 653, -1740, -467, -210, -434, 878, 745, 687, 385, 396, 713, 889, 689
170529471, -6574, 8501, 10645, 6295, 4120, 653, -1740, -467, -210, -434, 878, 745, 687, 385, 396, 713, 889, 689
170530293, -6574, 8501, 10645, 6295, 4120, 653, -1740, -467, -210, -434, 878, 745, 687, 385, 396, 713, 889, 689
170535507, -6513, 8549, 10503, 6526, 4175, 492, -1212, -588, 229, -15, 878, 745, 687, 385, 396, 713, 889, 689
170536286, -6513, 8549, 10503, 6526, 4175, 492, -1212, -588, 229, -15, 822, 613, 723, 422, 316, 740, 839, 899
170537122, -6513, 8549, 10503, 6526, 4175, 492, -1212, -588, 229, -15, 822, 613, 723, 422, 316, 740, 839, 899
170537909, -6513, 8549, 10503, 6526, 4175, 492, -1212, -588, 229, -15, 822, 613, 723, 422, 316, 740, 839, 899
170542809, -6513, 8549, 10503, 6526, 4175, 492, -1212, -588, 229, -15, 822, 613, 723, 422, 316, 740, 839, 899
170543603, -6513, 8549, 10503, 6526, 4175, 492, -1212, -588, 229, -15, 822, 613, 723, 422, 316, 740, 839, 899
170544428, -6513, 8549, 10503, 6526, 4175, 492, -1212, -588, 229, -15, 822, 613, 723, 422, 316, 740, 839, 899
170545250, -6513, 8549, 10503, 6526, 4175, 492, -1212, -588, 229, -15, 822, 613, 723, 422, 316, 740, 839, 899
170550397, -6513, 8549, 10503, 6526, 4175, 492, -1212, -588, 229, -15, 822, 613, 723, 422, 316, 740, 839, 899
170551309, -6510, 8599, 10378, 6663, 4239, 374, -1140, -881, 304, 194, 822, 613, 723, 422, 316, 740, 839, 899
170552129, -6510, 8599, 10378, 6663, 4239, 374, -1140, -881, 304, 194, 928, 464, 809, 532, 309, 706, 825, 937
170552929, -6510, 8599, 10378, 6663, 4239, 374, -1140, -881, 304, 194, 928, 464, 809, 532, 309, 706, 825, 937
170557960, -6510, 8599, 10378, 6663, 4239, 374, -1140, -881, 304, 194, 928, 464, 809, 532, 309, 706, 825, 937
170558786, -6510, 8599, 10378, 6663, 4239, 374, -1140, -881, 304, 194, 928, 464, 809, 532, 309, 706, 825, 937
170559618, -6510, 8599, 10378, 6663, 4239, 374, -1140, -881, 304, 194, 928, 464, 809, 532, 309, 706, 825, 937
170560389, -6510, 8599, 10378, 6663, 4239, 374, -1140, -881, 304, 194, 928, 464, 809, 532, 309, 706, 825, 937
170563133, -6510, 8599, 10378, 6663, 4239, 374, -1140, -881, 304, 194, 928, 464, 809, 532, 309, 706, 825, 937
170572835, -6510, 8599, 10378, 6663, 4239, 374, -1140, -881, 304, 194, 928, 464, 809, 532, 309, 706, 825, 937
170573662, -6510, 8599, 10378, 6663, 4239, 374, -1140, -881, 304, 194, 928, 464, 809, 532, 309, 706, 825, 937
170574462, -6510, 8599, 10378, 6663, 4239, 374, -1140, -881, 304, 194, 928, 464, 809, 532, 309, 706, 825, 937
170575280, -6510, 8599, 10378, 6663, 4239, 374, -1140, -881, 304, 194, 928, 464, 809, 532, 309, 706, 825, 937
170580490, -6502, 8665, 10217, 6832, 4244, 197, -1209, -1167, 505, 175, 928, 464, 809, 532, 309, 706, 825, 937
170581285, -6502, 8665, 10217, 6832, 4244, 197, -1209, -1167, 505, 175, 898, 397, 881, 646, 273, 678, 864, 993
170582103, -6502, 8665, 10217, 6832, 4244, 197, -1209, -1167, 505, 175, 898, 397, 881, 646, 273, 678, 864, 993
170582915, -6502, 8665, 10217, 6832, 4244, 197, -1209, -1167, 505, 175, 898, 397, 881, 646, 273, 678, 864, 993
170587850, -6502, 8665, 10217, 6832, 4244, 197, -1209, -1167, 505, 175, 898, 397, 881, 646, 273, 678, 864, 993
170588659, -6502, 8665, 10217, 6832, 4244, 197, -1209, -1167, 505, 175, 898, 397, 881, 646, 273, 678, 864, 993
170589445, -6502, 8665, 10217, 6832, 4244, 197, -1209, -1167, 505, 175, 898, 397, 881, 646, 273, 678, 864, 993
170590259, -6502, 8665, 10217, 6832, 4244, 197, -1209, -1167, 505, 175, 898, 397, 881, 646, 273, 678, 864, 993
170595339, -6502, 8665, 10217, 6832, 4244, 197, -1209, -1167, 505, 175, 898, 397, 881, 646, 273, 678, 864, 993
170596261, -6524, 8715, 10062, 6975, 4136, 146, -1349, -958, 694, 214, 898, 397, 881, 646, 273, 678, 864, 993
170597076, -6524, 8715, 10062, 6975, 4136, 146, -1349, -958, 694, 214, 909, 394, 913, 649, 226, 649, 777, 1003
170597875, -6524, 8715, 10062, 6975, 4136, 146, -1349, -958, 694, 214, 909, 394, 913, 649, 226, 649, 777, 1003
170602953, -6524, 8715, 10062, 6975, 4136, 146, -1349, -958, 694, 214, 909, 394, 913, 649, 226, 649, 777, 1003
170603751, -6524, 8715, 10062, 6975, 4136, 146, -1349, -958, 694, 214, 909, 394, 913, 649, 226, 649, 777, 1003
170604601, -6524, 8715, 10062, 6975, 4136, 146, -1349, -958, 694, 214, 909, 394, 913, 649, 226, 649, 777, 1003
170605378, -6524, 8715, 10062, 6975, 4136, 146, -1349, -958, 694, 214, 909, 394, 913, 649, 226, 649, 777, 1003
170610384, -6524, 8715, 10062, 6975, 4136, 146, -1349, -958, 694, 214, 909, 394, 913, 649, 226, 649, 777, 1003
170611183, -6524, 8715, 10062, 6975, 4136, 146, -1349, -958, 694, 214, 909, 394, 913, 649, 226, 649, 777, 1003
170611989, -6524, 8715, 10062, 6975, 4136, 146, -1349, -958, 694, 214, 909, 394, 913, 649, 226, 649, 777, 1003
170612780, -6524, 8715, 10062, 6975, 4136, 146, -1349, -958, 694, 214, 909, 394, 913, 649, 226, 649, 777, 1003
170616312, -6524, 8715, 10062, 6975, 4136, 146, -1349, -958, 694, 214, 909, 394, 913, 649, 226, 649, 777, 1003
170617236, -6590, 8673, 9974, 7092, 4033, 494, -1036, -295, 739, 52, 909, 394, 913, 649, 226, 649, 777, 1003
170625431, -6590, 8673, 9974, 7092, 4033, 494, -1036, -295, 739, 52, 842, 367, 937, 702, 203, 582, 689, 924
170626235, -6590, 8673, 9974, 7092, 4033, 494, -1036, -295, 739, 52, 842, 367, 937, 702, 203, 582, 689, 924
170627056, -6590, 8673, 9974, 7092, 4033, 494, -1036, -295, 739, 52, 842, 367, 937, 702, 203, 582, 689, 924
170627882, -6590, 8673, 9974, 7092, 4033, 494, -1036, -295, 739, 52, 842, 367, 937, 702, 203, 582, 689, 924
170632804, -6590, 8673, 9974, 7092, 4033, 494, -1036, -295, 739, 52, 842, 367, 937, 702, 203, 582, 689, 924
170633626, -6590, 8673, 9974, 7092, 4033, 494, -1036, -295, 739, 52, 842, 367, 937, 702, 203, 582, 689, 924
170634453, -6590, 8673, 9974, 7092, 4033, 494, -1036, -295, 739, 52, 842, 367, 937, 702, 203, 582, 689, 924
170635250, -6590, 8673, 9974, 7092, 4033, 494, -1036, -295, 739, 52, 842, 367, 937, 702, 203, 582, 689, 924
170640334, -6590, 8673, 9974, 7092, 4033, 494, -1036, -295, 739, 52, 842, 367, 937, 702, 203, 582, 689, 924
170641255, -6595, 8705, 9823, 7257, 4019, 443, -1099, -978, 717, 202, 842, 367, 937, 702, 203, 582, 689, 924
170642075, -6595, 8705, 9823, 7257, 4019, 443, -1099, -978, 717, 202, 792, 392, 1006, 668, 163, 518, 568, 685
170642899, -6595, 8705, 9823, 7257, 4019, 443, -1099, -978, 717, 202, 792, 392, 1006, 668, 163, 518, 568, 685
170647901, -6595, 8705, 9823, 7257, 4019, 443, -1099, -978, 717, 202, 792, 392, 1006, 668, 163, 518, 568, 685
170648700, -6595, 8705, 9823, 7257, 4019, 443, -1099, -978, 717, 202, 792, 392, 1006, 668, 163, 518, 568, 685
170649611, -6595, 8705, 9823, 7257, 4019, 443, -1099, -978, 717, 202, 792, 392, 1006, 668, 163, 518, 568, 685
170650290, -6595, 8705, 9823, 7257, 4019, 443, -1099, -978, 717, 202, 792, 392, 1006, 668, 163, 518, 568, 685
170655305, -6595, 8705, 9823, 7257, 4019, 443, -1099, -978, 717, 202, 792, 392, 1006, 668, 163, 518, 568, 685
170656119, -6595, 8705, 9823, 7257, 4019, 443, -1099, -978, 717, 202, 792, 392, 1006, 668, 163, 518, 568, 685
170656942, -6595, 8705, 9823, 7257, 4019, 443, -1099, -978, 717, 202, 792, 392, 1006, 668, 163, 518, 568, 685
170657735, -6595, 8705, 9823, 7257, 4019, 443, -1099, -978, 717, 202, 792, 392, 1006, 668, 163, 518, 568, 685
170662860, -6595, 8705, 9823, 7257, 4019, 443, -1099, -978, 717, 202, 792, 392, 1006, 668, 163, 518, 568, 685
170663810, -6551, 8781, 9639, 7448, 3861, 354, -1111, -1411, 664, 218, 792, 392, 1006, 668, 163, 518, 568, 685
170664613, -6551, 8781, 9639, 7448, 3861, 354, -1111, -1411, 664, 218, 593, 362, 988, 628, 184, 520, 467, 627
170665441, -6551, 8781, 9639, 7448, 3861, 354, -1111, -1411, 664, 218, 593, 362, 988, 628, 184, 520, 467, 627
170670435, -6551, 8781, 9639, 7448, 3861, 354, -1111, -1411, 664, 218, 593, 362, 988, 628, 184, 520, 467, 627
170671261, -6551, 8781, 9639, 7448, 3861, 354, -1111, -1411, 664, 218, 593, 362, 988, 628, 184, 520, 467, 627
170672059, -6551, 8781, 9639, 7448, 3861, 354, -1111, -1411, 664, 218, 593, 362, 988, 628, 184, 520, 467, 627
170672884, -6551, 8781, 9639, 7448, 3861, 354, -1111, -1411, 664, 218, 593, 362, 988, 628, 184, 520, 467, 627
170676284, -6551, 8781, 9639, 7448, 3861, 354, -1111, -1411, 664, 218, 593, 362, 988, 628, 184, 520, 467, 627
170677083, -6551, 8781, 9639, 7448, 3861, 354, -1111, -1411, 664, 218, 593, 362, 988, 628, 184, 520, 467, 627
170683828, -6551, 8781, 9639, 7448, 3861, 354, -1111, -1411, 664, 218, 593, 362, 988, 628, 184, 520, 467, 627
170684621, -6551, 8781, 9639, 7448, 3861, 354, -1111, -1411, 664, 218, 593, 362, 988, 628, 184, 520, 467, 627
170692844, -6551, 8781, 9639, 7448, 3861, 354, -1111, -1411, 664, 218, 593, 362, 988, 628, 184, 520, 467, 627
170693787, -6434, 8919, 9519, 7539, 3748, 69, -1614, -1355, 104, 121, 593, 362, 988, 628, 184, 520, 467, 627
170694609, -6434, 8919, 9519, 7539, 3748, 69, -1614, -1355, 104, 121, 545, 372, 948, 548, 217, 464, 361, 522
170695411, -6434, 8919, 9519, 7539, 3748, 69, -1614, -1355, 104, 121, 545, 372, 948, 548, 217, 464, 361, 522
170700420, -6434, 8919, 9519, 7539, 3748, 69, -1614, -1355, 104, 121, 545, 372, 948, 548, 217, 464, 361, 522
170701236, -6434, 8919, 9519, 7539, 3748, 69, -1614, -1355, 104, 121, 545, 372, 948, 548, 217, 464, 361, 522
170702031, -6434, 8919, 9519, 7539, 3748, 69, -1614, -1355, 104, 121, 545, 372, 948, 548, 217, 464, 361, 522
170702857, -6434, 8919, 9519, 7539, 3748, 69, -1614, -1355, 104, 121, 545, 372, 948, 548, 217, 464, 361, 522
170707812, -6434, 8919, 9519, 7539, 3748, 69, -1614, -1355, 104, 121, 545, 372, 948, 548, 217, 464, 361, 522
170708626, -6434, 8919, 9519, 7539, 3748, 69, -1614, -1355, 104, 121, 545, 372, 948, 548, 217, 464, 361, 522
170709438, -6434, 8919, 9519, 7539, 3748, 69, -1614, -1355, 104, 121, 545, 372, 948, 548, 217, 464, 361, 522
170710254, -6434, 8919, 9519, 7539, 3748, 69, -1614, -1355, 104, 121, 545, 372, 948, 548, 217, 464, 361, 522
170715346, -6434, 8919, 9519, 7539, 3748, 69, -1614, -1355, 104, 121, 545, 372, 948, 548, 217, 464, 361, 522
170716256, -6303, 9106, 9419, 7553, 3943, -583, -1932, -1315, -231, -4, 545, 372, 948, 548, 217, 464, 361, 522
170717051, -6303, 9106, 9419, 7553, 3943, -583, -1932, -1315, -231, -4, 439, 387, 863, 538, 240, 276, 347, 323
170717875, -6303, 9106, 9419, 7553, 3943, -583, -1932, -1315, -231, -4, 439, 387, 863, 538, 240, 276, 347, 323
170722882, -6303, 9106, 9419, 7553, 3943, -583, -1932, -1315, -231, -4, 439, 387, 863, 538, 240, 276, 347, 323
170723701, -6303, 9106, 9419, 7553, 3943, -583, -1932, -1315, -231, -4, 439, 387, 863, 538, 240, 276, 347, 323
170724504, -6303, 9106, 9419, 7553, 3943, -583, -1932, -1315, -231, -4, 439, 387, 863, 538, 240, 276, 347, 323
170725325, -6303, 9106, 9419, 7553, 3943, -583, -1932, -1315, -231, -4, 439, 387, 863, 538, 240, 276, 347, 323
170730329, -6303, 9106, 9419, 7553, 3943, -583, -1932, -1315, -231, -4, 439, 387, 863, 538, 240, 276, 347, 323
170731154, -6303, 9106, 9419, 7553, 3943, -583, -1932, -1315, -231, -4, 439, 387, 863, 538, 240, 276, 347, 323
170731976, -6303, 9106, 9419, 7553, 3943, -583, -1932, -1315, -231, -4, 439, 387, 863, 538, 240, 276, 347, 323
170732775, -6303, 9106, 9419, 7553, 3943, -583, -1932, -1315, -231, -4, 439, 387, 863, 538, 240, 276, 347, 323
170737880, -6303, 9106, 9419, 7553, 3943, -583, -1932, -1315, -231, -4, 439, 387, 863, 538, 240, 276, 347, 323
170738790, -6404, 9119, 9415, 7458, 4098, -716, -1431, 395, 129, -75, 439, 387, 863, 538, 240, 276, 347, 323
170739631, -6404, 9119, 9415, 7458, 4098, -716, -1431, 395, 129, -75, 517, 416, 769, 561, 253, 260, 338, 326
170740422, -6404, 9119, 9415, 7458, 4098, -716, -1431, 395, 129, -75, 517, 416, 769, 561, 253, 260, 338, 326
170745442, -6404, 9119, 9415, 7458, 4098, -716, -1431, 395, 129, -75, 517, 416, 769, 561, 253, 260, 338, 326
170746398, -6404, 9119, 9415, 7458, 4098, -716, -1431, 395, 129, -75, 517, 416, 769, 561, 253, 260, 338, 326
170747081, -6404, 9119, 9415, 7458, 4098, -716, -1431, 395, 129, -75, 517, 416, 769, 561, 253, 260, 338, 326
170747887, -6404, 9119, 9415, 7458, 4098, -716, -1431, 395, 129, -75, 517, 416, 769, 561, 253, 260, 338, 326
170752847, -6404, 9119, 9415, 7458, 4098, -716, -1431, 395, 129, -75, 517, 416, 769, 561, 253, 260, 338, 326
170753635, -6404, 9119, 9415, 7458, 4098, -716, -1431, 395, 129, -75, 517, 416, 769, 561, 253, 260, 338, 326
170754462, -6404, 9119, 9415, 7458, 4098, -716, -1431, 395, 129, -75, 517, 416, 769, 561, 253, 260, 338, 326
170755259, -6404, 9119, 9415, 7458, 4098, -716, -1431, 395, 129, -75, 517, 416, 769, 561, 253, 260, 338, 326
170760342, -6404, 9119, 9415, 7458, 4098, -716, -1431, 395, 129, -75, 517, 416, 769, 561, 253, 260, 338, 326
170761285, -6628, 8974, 9568, 7238, 3813, -56, -1524, 2092, 125, 68, 517, 416, 769, 561, 253, 260, 338, 326
170762084, -6628, 8974, 9568, 7238, 3813, -56, -1524, 2092, 125, 68, 681, 455, 773, 745, 410, 252, 346, 354
170762909, -6628, 8974, 9568, 7238, 3813, -56, -1524, 2092, 125, 68, 681, 455, 773, 745, 410, 252, 346, 354
170767008, -6628, 8974, 9568, 7238, 3813, -56, -1524, 2092, 125, 68, 681, 455, 773, 745, 410, 252, 346, 354
170767831, -6628, 8974, 9568, 7238, 3813, -56, -1524, 2092, 125, 68, 681, 455, 773, 745, 410, 252, 346, 354
170768640, -6628, 8974, 9568, 7238, 3813, -56, -1524, 2092, 125, 68, 681, 455, 773, 745, 410, 252, 346, 354
170782846, -6628, 8974, 9568, 7238, 3813, -56, -1524, 2092, 125, 68, 681, 455, 773, 745, 410, 252, 346, 354
170783655, -6628, 8974, 9568, 7238, 3813, -56, -1524, 2092, 125, 68, 681, 455, 773, 745, 410, 252, 346, 354
170784454, -6628, 8974, 9568, 7238, 3813, -56, -1524, 2092, 125, 68, 681, 455, 773, 745, 410, 252, 346, 354
170785276, -6628, 8974, 9568, 7238, 3813, -56, -1524, 2092, 125, 68, 681, 455, 773, 745, 410, 252, 346, 354
170790335, -6628, 8974, 9568, 7238, 3813, -56, -1524, 2092, 125, 68, 681, 455, 773, 745, 410, 252, 346, 354
170791162, -6628, 8974, 9568, 7238, 3813, -56, -1524, 2092, 125, 68, 681, 455, 773, 745, 410, 252, 346, 354
170792109, -6767, 8845, 9743, 7034, 3796, 516, -1509, 1827, -205, -120, 681, 455, 773, 745, 410, 252, 346, 354
170792910, -6767, 8845, 9743, 7034, 3796, 516, -1509, 1827, -205, -120, 823, 574, 737, 809, 568, 192, 465, 370
170797905, -6767, 8845, 9743, 7034, 3796, 516, -1509, 1827, -205, -120, 823, 574, 737, 809, 568, 192, 465, 370
170798730, -6767, 8845, 9743, 7034, 3796, 516, -1509, 1827, -205, -120, 823, 574, 737, 809, 568, 192, 465, 370
170799604, -6767, 8845, 9743, 7034, 3796, 516, -1509, 1827, -205, -120, 823, 574, 737, 809, 568, 192, 465, 370
170800361, -6767, 8845, 9743, 7034, 3796, 516, -1509, 1827, -205, -120, 823, 574, 737, 809, 568, 192, 465, 370
170805390, -6767, 8845, 9743, 7034, 3796, 516, -1509, 1827, -205, -120, 823, 574, 737, 809, 568, 192, 465, 370
170806149, -6767, 8845, 9743, 7034, 3796, 516, -1509, 1827, -205, -120, 823, 574, 737, 809, 568, 192, 465, 370
170806930, -6767, 8845, 9743, 7034, 3796, 516, -1509, 1827, -205, -120, 823, 574, 737, 809, 568, 192, 465, 370
170807753, -6767, 8845, 9743, 7034, 3796, 516, -1509, 1827, -205, -120, 823, 574, 737, 809, 568, 192, 465, 370
170812842, -6767, 8845, 9743, 7034, 3796, 516, -1509, 1827, -205, -120, 823, 574, 737, 809, 568, 192, 465, 370
170813759, -6806, 8766, 9909, 6860, 3689, 401, -1435, 1292, -454, -182, 823, 574, 737, 809, 568, 192, 465, 370
170814606, -6806, 8766, 9909, 6860, 3689, 401, -1435, 1292, -454, -182, 1021, 693, 709, 871, 727, 227, 569, 505
170815383, -6806, 8766, 9909, 6860, 3689, 401, -1435, 1292, -454, -182, 1021, 693, 709, 871, 727, 227, 569, 505
170820388, -6806, 8766, 9909, 6860, 3689, 401, -1435, 1292, -454, -182, 1021, 693, 709, 871, 727, 227, 569, 505
170821210, -6806, 8766, 9909, 6860, 3689, 401, -1435, 1292, -454, -182, 1021, 693, 709, 871, 727, 227, 569, 505
170822033, -6806, 8766, 9909, 6860, 3689, 401, -1435, 1292, -454, -182, 1021, 693, 709, 871, 727, 227, 569, 505
170822831, -6806, 8766, 9909, 6860, 3689, 401, -1435, 1292, -454, -182, 1021, 693, 709, 871, 727, 227, 569, 505
170827859, -6806, 8766, 9909, 6860, 3689, 401, -1435, 1292, -454, -182, 1021, 693, 709, 871, 727, 227, 569, 505
170828660, -6806, 8766, 9909, 6860, 3689, 401, -1435, 1292, -454, -182, 1021, 693, 709, 871, 727, 227, 569, 505
170829484, -6806, 8766, 9909, 6860, 3689, 401, -1435, 1292, -454, -182, 1021, 693, 709, 871, 727, 227, 569, 505
170830284, -6806, 8766, 9909, 6860, 3689, 401, -1435, 1292, -454, -182, 1021, 693, 709, 871, 727, 227, 569, 505
170835363, -6806, 8766, 9909, 6860, 3689, 401, -1435, 1292, -454, -182, 1021, 693, 709, 871, 727, 227, 569, 505
170836286, -6816, 8718, 10091, 6643, 3709, 116, -1559, 1278, -780, -237, 1021, 693, 709, 871, 727, 227, 569, 505
170837107, -6816, 8718, 10091, 6643, 3709, 116, -1559, 1278, -780, -237, 1187, 761, 769, 995, 780, 232, 706, 530
170837933, -6816, 8718, 10091, 6643, 3709, 116, -1559, 1278, -780, -237, 1187, 761, 769, 995, 780, 232, 706, 530
170842935, -6816, 8718, 10091, 6643, 3709, 116, -1559, 1278, -780, -237, 1187, 761, 769, 995, 780, 232, 706, 530
170843757, -6816, 8718, 10091, 6643, 3709, 116, -1559, 1278, -780, -237, 1187, 761, 769, 995, 780, 232, 706, 530
170844607, -6816, 8718, 10091, 6643, 3709, 116, -1559, 1278, -780, -237, 1187, 761, 769, 995, 780, 232, 706, 530
170845385, -6816, 8718, 10091, 6643, 3709, 116, -1559, 1278, -780, -237, 1187, 761, 769, 995, 780, 232, 706, 530
170849530, -6816, 8718, 10091, 6643, 3709, 116, -1559, 1278, -780, -237, 1187, 761, 769, 995, 780, 232, 706, 530
170850267, -6816, 8718, 10091, 6643, 3709, 116, -1559, 1278, -780, -237, 1187, 761, 769, 995, 780, 232, 706, 530
170851446, -6816, 8718, 10091, 6643, 3709, 116, -1559, 1278, -780, -237, 1187, 761, 769, 995, 780, 232, 706, 530
170858043, -6816, 8718, 10091, 6643, 3709, 116, -1559, 1278, -780, -237, 1187, 761, 769, 995, 780, 232, 706, 530
170858678, -6816, 8718, 10091, 6643, 3709, 116, -1559, 1278, -780, -237, 1187, 761, 769, 995, 780, 232, 706, 530
170859643, -6868, 8610, 10327, 6362, 3835, 189, -1244, 1910, -981, -304, 1187, 761, 769, 995, 780, 232, 706, 530
170860406, -6868, 8610, 10327, 6362, 3835, 189, -1244, 1910, -981, -304, 1210, 1001, 823, 1020, 859, 313, 931, 607
170865426, -6868, 8610, 10327, 6362, 3835, 189, -1244, 1910, -981, -304, 1210, 1001, 823, 1020, 859, 313, 931, 607
170866208, -6868, 8610, 10327, 6362, 3835, 189, -1244, 1910, -981, -304, 1210, 1001, 823, 1020, 859, 313, 931, 607
170867049, -6868, 8610, 10327, 6362, 3835, 189, -1244, 1910, -981, -304, 1210, 1001, 823, 1020, 859, 313, 931, 607
170867860, -6868, 8610, 10327, 6362, 3835, 189, -1244, 1910, -981, -304, 1210, 1001, 823, 1020, 859, 313, 931, 607
170872813, -6868, 8610, 10327, 6362, 3835, 189, -1244, 1910, -981, -304, 1210, 1001, 823, 1020, 859, 313, 931, 607
170873791, -6868, 8610, 10327, 6362, 3835, 189, -1244, 1910, -981, -304, 1210, 1001, 823, 1020, 859, 313, 931, 607
170874446, -6868, 8610, 10327, 6362, 3835, 189, -1244, 1910, -981, -304, 1210, 1001, 823, 1020, 859, 313, 931, 607
170875229, -6868, 8610, 10327, 6362, 3835, 189, -1244, 1910, -981, -304, 1210, 1001, 823, 1020, 859, 313, 931, 607
170880354, -6868, 8610, 10327, 6362, 3835, 189, -1244, 1910, -981, -304, 1210, 1001, 823, 1020, 859, 313, 931, 607
170881305, -6918, 8486, 10531, 6135, 4006, 565, -1252, 1701, -744, -350, 1210, 1001, 823, 1020, 859, 313, 931, 607
170882125, -6918, 8486, 10531, 6135, 4006, 565, -1252, 1701, -744, -350, 1260, 1031, 690, 1033, 945, 317, 998, 761
170882926, -6918, 8486, 10531, 6135, 4006, 565, -1252, 1701, -744, -350, 1260, 1031, 690, 1033, 945, 317, 998, 761
170887927, -6918, 8486, 10531, 6135, 4006, 565, -1252, 1701, -744, -350, 1260, 1031, 690, 1033, 945, 317, 998, 761
170888751, -6918, 8486, 10531, 6135, 4006, 565, -1252, 1701, -744, -350, 1260, 1031, 690, 1033, 945, 317, 998, 761
170889601, -6918, 8486, 10531, 6135, 4006, 565, -1252, 1701, -744, -350, 1260, 1031, 690, 1033, 945, 317, 998, 761
170890378, -6918, 8486, 10531, 6135, 4006, 565, -1252, 1701, -744, -350, 1260, 1031, 690, 1033, 945, 317, 998, 761
170895111, -6918, 8486, 10531, 6135, 4006, 565, -1252, 1701, -744, -350, 1260, 1031, 690, 1033, 945, 317, 998, 761
170895904, -6918, 8486, 10531, 6135, 4006, 565, -1252, 1701, -744, -350, 1260, 1031, 690, 1033, 945, 317, 998, 761
170896728, -6918, 8486, 10531, 6135, 4006, 565, -1252, 1701, -744, -350, 1260, 1031, 690, 1033, 945, 317, 998, 761
170897603, -6918, 8486, 10531, 6135, 4006, 565, -1252, 1701, -744, -350, 1260, 1031, 690, 1033, 945, 317, 998, 761
170902854, -6918, 8486, 10531, 6135, 4006, 565, -1252, 1701, -744, -350, 1260, 1031, 690, 1033, 945, 317, 998, 761
170903779, -6971, 8359, 10687, 5977, 5083, 1191, 426, 1349, -366, -425, 1260, 1031, 690, 1033, 945, 317, 998, 761
170904600, -6971, 8359, 10687, 5977, 5083, 1191, 426, 1349, -366, -425, 1340, 1085, 736, 1177, 973, 329, 1026, 898
170905408, -6971, 8359, 10687, 5977, 5083, 1191, 426, 1349, -366, -425, 1340, 1085, 736, 1177, 973, 329, 1026, 898
170910487, -6971, 8359, 10687, 5977, 5083, 1191, 426, 1349, -366, -425, 1340, 1085, 736, 1177, 973, 329, 1026, 898
170911263, -6971, 8359, 10687, 5977, 5083, 1191, 426, 1349, -366, -425, 1340, 1085, 736, 1177, 973, 329, 1026, 898
170912085, -6971, 8359, 10687, 5977, 5083, 1191, 426, 1349, -366, -425, 1340, 1085, 736, 1177, 973, 329, 1026, 898
170912887, -6971, 8359, 10687, 5977, 5083, 1191, 426, 1349, -366, -425, 1340, 1085, 736, 1177, 973, 329, 1026, 898
170929016, -6971, 8359, 10687, 5977, 5083, 1191, 426, 1349, -366, -425, 1340, 1085, 736, 1177, 973, 329, 1026, 898
170929888, -6971, 8359, 10687, 5977, 5083, 1191, 426, 1349, -366, -425, 1340, 1085, 736, 1177, 973, 329, 1026, 898
170929898, -6971, 8359, 10687, 5977, 5083, 1191, 426, 1349, -366, -425, 1340, 1085, 736, 1177, 973, 329, 1026, 898
170929901, -6971, 8359, 10687, 5977, 5083, 1191, 426, 1349, -366, -425, 1340, 1085, 736, 1177, 973, 329, 1026, 898
170929905, -6971, 8359, 10687, 5977, 5083, 1191, 426, 1349, -366, -425, 1340, 1085, 736, 1177, 973, 329, 1026, 898
170929908, -6907, 8400, 10634, 6089, 3945, 691, -1844, -706, 276, 156, 1340, 1085, 736, 1177, 973, 329, 1026, 898
170930565, -6907, 8400, 10634, 6089, 3945, 691, -1844, -706, 276, 156, 1277, 1126, 743, 1200, 927, 567, 1066, 1067
170930572, -6907, 8400, 10634, 6089, 3945, 691, -1844, -706, 276, 156, 1277, 1126, 743, 1200, 927, 567, 1066, 1067
170932953, -6907, 8400, 10634, 6089, 3945, 691, -1844, -706, 276, 156, 1277, 1126, 743, 1200, 927, 567, 1066, 1067
170933723, -6907, 8400, 10634, 6089, 3945, 691, -1844, -706, 276, 156, 1277, 1126, 743, 1200, 927, 567, 1066, 1067
170934606, -6907, 8400, 10634, 6089, 3945, 691, -1844, -706, 276, 156, 1277, 1126, 743, 1200, 927, 567, 1066, 1067
170935283, -6907, 8400, 10634, 6089, 3945, 691, -1844, -706, 276, 156, 1277, 1126, 743, 1200, 927, 567, 1066, 1067
170940283, -6907, 8400, 10634, 6089, 3945, 691, -1844, -706, 276, 156, 1277, 1126, 743, 1200, 927, 567, 1066, 1067
170941114, -6907, 8400, 10634, 6089, 3945, 691, -1844, -706, 276, 156, 1277, 1126, 743, 1200, 927, 567, 1066, 1067
170941937, -6907, 8400, 10634, 6089, 3945, 691, -1844, -706, 276, 156, 1277, 1126, 743, 1200, 927, 567, 1066, 1067
170942738, -6907, 8400, 10634, 6089, 3945, 691, -1844, -706, 276, 156, 1277, 1126, 743, 1200, 927, 567, 1066, 1067
170947862, -6907, 8400, 10634, 6089, 3945, 691, -1844, -706, 276, 156, 1277, 1126, 743, 1200, 927, 567, 1066, 1067
170948812, -6595, 8666, 10448, 6376, 3126, 18, -2104, -2974, -319, 142, 1277, 1126, 743, 1200, 927, 567, 1066, 1067
170949617, -6595, 8666, 10448, 6376, 3126, 18, -2104, -2974, -319, 142, 1197, 1197, 712, 1199, 1035, 635, 1023, 1268
170950438, -6595, 8666, 10448, 6376, 3126, 18, -2104, -2974, -319, 142, 1197, 1197, 712, 1199, 1035, 635, 1023, 1268
170955435, -6595, 8666, 10448, 6376, 3126, 18, -2104, -2974, -319, 142, 1197, 1197, 712, 1199, 1035, 635, 1023, 1268
170956260, -6595, 8666, 10448, 6376, 3126, 18, -2104, -2974, -319, 142, 1197, 1197, 712, 1199, 1035, 635, 1023, 1268
170957056, -6595, 8666, 10448, 6376, 3126, 18, -2104, -2974, -319, 142, 1197, 1197, 712, 1199, 1035, 635, 1023, 1268
170957880, -6595, 8666, 10448, 6376, 3126, 18, -2104, -2974, -319, 142, 1197, 1197, 712, 1199, 1035, 635, 1023, 1268
170962830, -6595, 8666, 10448, 6376, 3126, 18, -2104, -2974, -319, 142, 1197, 1197, 712, 1199, 1035, 635, 1023, 1268
170963630, -6595, 8666, 10448, 6376, 3126, 18, -2104, -2974, -319, 142, 1197, 1197, 712, 1199, 1035, 635, 1023, 1268
170964458, -6595, 8666, 10448, 6376, 3126, 18, -2104, -2974, -319, 142, 1197, 1197, 712, 1199, 1035, 635, 1023, 1268
170965283, -6595, 8666, 10448, 6376, 3126, 18, -2104, -2974, -319, 142, 1197, 1197, 712, 1199, 1035, 635, 1023, 1268
170970337, -6595, 8666, 10448, 6376, 3126, 18, -2104, -2974, -319, 142, 1197, 1197, 712, 1199, 1035, 635, 1023, 1268
170971286, -6674, 8713, 10381, 6340, 4409, -1467, -804, -219, -280, -299, 1197, 1197, 712, 1199, 1035, 635, 1023, 1268
170972084, -6674, 8713, 10381, 6340, 4409, -1467, -804, -219, -280, -299, 1206, 1157, 698, 1274, 1027, 685, 929, 1267
170972908, -6674, 8713, 10381, 6340, 4409, -1467, -804, -219, -280, -299, 1206, 1157, 698, 1274, 1027, 685, 929, 1267
170979185, -6674, 8713, 10381, 6340, 4409, -1467, -804, -219, -280, -299, 1206, 1157, 698, 1274, 1027, 685, 929, 1267
170979191, -6674, 8713, 10381, 6340, 4409, -1467, -804, -219, -280, -299, 1206, 1157, 698, 1274, 1027, 685, 929, 1267
170979623, -6674, 8713, 10381, 6340, 4409, -1467, -804, -219, -280, -299, 1206, 1157, 698, 1274, 1027, 685, 929, 1267
170980414, -6674, 8713, 10381, 6340, 4409, -1467, -804, -219, -280, -299, 1206, 1157, 698, 1274, 1027, 685, 929, 1267
170985337, -6674, 8713, 10381, 6340, 4409, -1467, -804, -219, -280, -299, 1206, 1157, 698, 1274, 1027, 685, 929, 1267
170986109, -6674, 8713, 10381, 6340, 4409, -1467, -804, -219, -280, -299, 1206, 1157, 698, 1274, 1027, 685, 929, 1267
170986933, -6674, 8713, 10381, 6340, 4409, -1467, -804, -219, -280, -299, 1206, 1157, 698, 1274, 1027, 685, 929, 1267
170987757, -6674, 8713, 10381, 6340, 4409, -1467, -804, -219, -280, -299, 1206, 1157, 698, 1274, 1027, 685, 929, 1267
170992811, -6674, 8713, 10381, 6340, 4409, -1467, -804, -219, -280, -299, 1206, 1157, 698, 1274, 1027, 685, 929, 1267
170993761, -6832, 8525, 10567, 6117, 3694, 500, -1627, 2107, -100, -327, 1206, 1157, 698, 1274, 1027, 685, 929, 1267
170994607, -6832, 8525, 10567, 6117, 3694, 500, -1627, 2107, -100, -327, 1165, 1176, 769, 1318, 1067, 781, 962, 1322
170995383, -6832, 8525, 10567, 6117, 3694, 500, -1627, 2107, -100, -327, 1165, 1176, 769, 1318, 1067, 781, 962, 1322
171000384, -6832, 8525, 10567, 6117, 3694, 500, -1627, 2107, -100, -327, 1165, 1176, 769, 1318, 1067, 781, 962, 1322
171001208, -6832, 8525, 10567, 6117, 3694, 500, -1627, 2107, -100, -327, 1165, 1176, 769, 1318, 1067, 781, 962, 1322
171002010, -6832, 8525, 10567, 6117, 3694, 500, -1627, 2107, -100, -327, 1165, 1176, 769, 1318, 1067, 781, 962, 1322
171002834, -6832, 8525, 10567, 6117, 3694, 500, -1627, 2107, -100, -327, 1165, 1176, 769, 1318, 1067, 781, 962, 1322
171007807, -6832, 8525, 10567, 6117, 3694, 500, -1627, 2107, -100, -327, 1165, 1176, 769, 1318, 1067, 781, 962, 1322
171008610, -6832, 8525, 10567, 6117, 3694, 500, -1627, 2107, -100, -327, 1165, 1176, 769, 1318, 1067, 781, 962, 1322
171009412, -6832, 8525, 10567, 6117, 3694, 500, -1627, 2107, -100, -327, 1165, 1176, 769, 1318, 1067, 781, 962, 1322
171010236, -6832, 8525, 10567, 6117, 3694, 500, -1627, 2107, -100, -327, 1165, 1176, 769, 1318, 1067, 781, 962, 1322
171014472, -6832, 8525, 10567, 6117, 3694, 500, -1627, 2107, -100, -327, 1165, 1176, 769, 1318, 1067, 781, 962, 1322
171015383, -6834, 8441, 10640, 6104, 4282, 1006, -1559, 565, -123, -85, 1165, 1176, 769, 1318, 1067, 781, 962, 1322
171016204, -6834, 8441, 10640, 6104, 4282, 1006, -1559, 565, -123, -85, 1102, 1127, 716, 1307, 1073, 835, 1011, 1445
171022966, -6834, 8441, 10640, 6104, 4282, 1006, -1559, 565, -123, -85, 1102, 1127, 716, 1307, 1073, 835, 1011, 1445
171027443, -6834, 8441, 10640, 6104, 4282, 1006, -1559, 565, -123, -85, 1102, 1127, 716, 1307, 1073, 835, 1011, 1445
171027449, -6834, 8441, 10640, 6104, 4282, 1006, -1559, 565, -123, -85, 1102, 1127, 716, 1307, 1073, 835, 1011, 1445
171027453, -6834, 8441, 10640, 6104, 4282, 1006, -1559, 565, -123, -85, 1102, 1127, 716, 1307, 1073, 835, 1011, 1445
171030363, -6834, 8441, 10640, 6104, 4282, 1006, -1559, 565, -123, -85, 1102, 1127, 716, 1307, 1073, 835, 1011, 1445
171031159, -6834, 8441, 10640, 6104, 4282, 1006, -1559, 565, -123, -85, 1102, 1127, 716, 1307, 1073, 835, 1011, 1445
171031966, -6834, 8441, 10640, 6104, 4282, 1006, -1559, 565, -123, -85, 1102, 1127, 716, 1307, 1073, 835, 1011, 1445
171032762, -6834, 8441, 10640, 6104, 4282, 1006, -1559, 565, -123, -85, 1102, 1127, 716, 1307, 1073, 835, 1011, 1445
171037964, -6784, 8473, 10622, 6148, 3866, 80, -1486, -449, -124, -124, 1102, 1127, 716, 1307, 1073, 835, 1011, 1445
171038756, -6784, 8473, 10622, 6148, 3866, 80, -1486, -449, -124, -124, 1088, 1085, 780, 1339, 1087, 743, 955, 1410
171039609, -6784, 8473, 10622, 6148, 3866, 80, -1486, -449, -124, -124, 1088, 1085, 780, 1339, 1087, 743, 955, 1410
171040379, -6784, 8473, 10622, 6148, 3866, 80, -1486, -449, -124, -124, 1088, 1085, 780, 1339, 1087, 743, 955, 1410
171051258, -6784, 8473, 10622, 6148, 3866, 80, -1486, -449, -124, -124, 1088, 1085, 780, 1339, 1087, 743, 955, 1410
171052080, -6784, 8473, 10622, 6148, 3866, 80, -1486, -449, -124, -124, 1088, 1085, 780, 1339, 1087, 743, 955, 1410
171060334, -6784, 8473, 10622, 6148, 3866, 80, -1486, -449, -124, -124, 1088, 1085, 780, 1339, 1087, 743, 955, 1410
171061131, -6784, 8473, 10622, 6148, 3866, 80, -1486, -449, -124, -124, 1088, 1085, 780, 1339, 1087, 743, 955, 1410
171061954, -6784, 8473, 10622, 6148, 3866, 80, -1486, -449, -124, -124, 1088, 1085, 780, 1339, 1087, 743, 955, 1410
171062881, -6862, 8413, 10656, 6083, 4010, 204, -1302, 673, -23, -16, 1088, 1085, 780, 1339, 1087, 743, 955, 1410
171067950, -6862, 8413, 10656, 6083, 4010, 204, -1302, 673, -23, -16, 1048, 992, 749, 1283, 960, 810, 1019, 1319
171068706, -6862, 8413, 10656, 6083, 4010, 204, -1302, 673, -23, -16, 1048, 992, 749, 1283, 960, 810, 1019, 1319
171069612, -6862, 8413, 10656, 6083, 4010, 204, -1302, 673, -23, -16, 1048, 992, 749, 1283, 960, 810, 1019, 1319
171070300, -6862, 8413, 10656, 6083, 4010, 204, -1302, 673, -23, -16, 1048, 992, 749, 1283, 960, 810, 1019, 1319
171090327, -6862, 8413, 10656, 6083, 4010, 204, -1302, 673, -23, -16, 1048, 992, 749, 1283, 960, 810, 1019, 1319
171091106, -6862, 8413, 10656, 6083, 4010, 204, -1302, 673, -23, -16, 1048, 992, 749, 1283, 960, 810, 1019, 1319
171091929, -6862, 8413, 10656, 6083, 4010, 204, -1302, 673, -23, -16, 1048, 992, 749, 1283, 960, 810, 1019, 1319
171092754, -6862, 8413, 10656, 6083, 4010, 204, -1302, 673, -23, -16, 1048, 992, 749, 1283, 960, 810, 1019, 1319
171097804, -6862, 8413, 10656, 6083, 4010, 204, -1302, 673, -23, -16, 1048, 992, 749, 1283, 960, 810, 1019, 1319
171098755, -6894, 8374, 10684, 6051, 3998, 509, -1451, 426, -44, 65, 1048, 992, 749, 1283, 960, 810, 1019, 1319
171099605, -6894, 8374, 10684, 6051, 3998, 509, -1451, 426, -44, 65, 1036, 861, 675, 1154, 902, 767, 977, 1316
171100385, -6894, 8374, 10684, 6051, 3998, 509, -1451, 426, -44, 65, 1036, 861, 675, 1154, 902, 767, 977, 1316
171105390, -6894, 8374, 10684, 6051, 3998, 509, -1451, 426, -44, 65, 1036, 861, 675, 1154, 902, 767, 977, 1316
171106205, -6894, 8374, 10684, 6051, 3998, 509, -1451, 426, -44, 65, 1036, 861, 675, 1154, 902, 767, 977, 1316
171107004, -6894, 8374, 10684, 6051, 3998, 509, -1451, 426, -44, 65, 1036, 861, 675, 1154, 902, 767, 977, 1316
171107828, -6894, 8374, 10684, 6051, 3998, 509, -1451, 426, -44, 65, 1036, 861, 675, 1154, 902, 767, 977, 1316
171112988, -6894, 8374, 10684, 6051, 3998, 509, -1451, 426, -44, 65, 1036, 861, 675, 1154, 902, 767, 977, 1316
171113610, -6894, 8374, 10684, 6051, 3998, 509, -1451, 426, -44, 65, 1036, 861, 675, 1154, 902, 767, 977, 1316
171114409, -6894, 8374, 10684, 6051, 3998, 509, -1451, 426, -44, 65, 1036, 861, 675, 1154, 902, 767, 977, 1316
171115229, -6894, 8374, 10684, 6051, 3998, 509, -1451, 426, -44, 65, 1036, 861, 675, 1154, 902, 767, 977, 1316
171120355, -6894, 8374, 10684, 6051, 3998, 509, -1451, 426, -44, 65, 1036, 861, 675, 1154, 902, 767, 977, 1316
171121281, -6929, 8381, 10677, 6014, 4009, 185, -1456, 206, -60, 197, 1036, 861, 675, 1154, 902, 767, 977, 1316
171122104, -6929, 8381, 10677, 6014, 4009, 185, -1456, 206, -60, 197, 956, 761, 660, 969, 699, 678, 902, 1198
171122905, -6929, 8381, 10677, 6014, 4009, 185, -1456, 206, -60, 197, 956, 761, 660, 969, 699, 678, 902, 1198
171127932, -6929, 8381, 10677, 6014, 4009, 185, -1456, 206, -60, 197, 956, 761, 660, 969, 699, 678, 902, 1198
171128729, -6929, 8381, 10677, 6014, 4009, 185, -1456, 206, -60, 197, 956, 761, 660, 969, 699, 678, 902, 1198
171129604, -6929, 8381, 10677, 6014, 4009, 185, -1456, 206, -60, 197, 956, 761, 660, 969, 699, 678, 902, 1198
171130357, -6929, 8381, 10677, 6014, 4009, 185, -1456, 206, -60, 197, 956, 761, 660, 969, 699, 678, 902, 1198
171135328, -6929, 8381, 10677, 6014, 4009, 185, -1456, 206, -60, 197, 956, 761, 660, 969, 699, 678, 902, 1198
171136134, -6929, 8381, 10677, 6014, 4009, 185, -1456, 206, -60, 197, 956, 761, 660, 969, 699, 678, 902, 1198
171136930, -6929, 8381, 10677, 6014, 4009, 185, -1456, 206, -60, 197, 956, 761, 660, 969, 699, 678, 902, 1198
171137751, -6929, 8381, 10677, 6014, 4009, 185, -1456, 206, -60, 197, 956, 761, 660, 969, 699, 678, 902, 1198
171142828, -6929, 8381, 10677, 6014, 4009, 185, -1456, 206, -60, 197, 956, 761, 660, 969, 699, 678, 902, 1198
171143755, -6983, 8371, 10677, 5965, 3992, 191, -1452, 362, 1, 208, 956, 761, 660, 969, 699, 678, 902, 1198
171144599, -6983, 8371, 10677, 5965, 3992, 191, -1452, 362, 1, 208, 895, 704, 729, 724, 511, 647, 800, 1086
171145377, -6983, 8371, 10677, 5965, 3992, 191, -1452, 362, 1, 208, 895, 704, 729, 724, 511, 647, 800, 1086
171150414, -6983, 8371, 10677, 5965, 3992, 191, -1452, 362, 1, 208, 895, 704, 729, 724, 511, 647, 800, 1086
171151214, -6983, 8371, 10677, 5965, 3992, 191, -1452, 362, 1, 208, 895, 704, 729, 724, 511, 647, 800, 1086
171152034, -6983, 8371, 10677, 5965, 3992, 191, -1452, 362, 1, 208, 895, 704, 729, 724, 511, 647, 800, 1086
171152857, -6983, 8371, 10677, 5965, 3992, 191, -1452, 362, 1, 208, 895, 704, 729, 724, 511, 647, 800, 1086
171155606, -6983, 8371, 10677, 5965, 3992, 191, -1452, 362, 1, 208, 895, 704, 729, 724, 511, 647, 800, 1086
171165356, -6983, 8371, 10677, 5965, 3992, 191, -1452, 362, 1, 208, 895, 704, 729, 724, 511, 647, 800, 1086
171166153, -6983, 8371, 10677, 5965, 3992, 191, -1452, 362, 1, 208, 895, 704, 729, 724, 511, 647, 800, 1086
171166975, -6983, 8371, 10677, 5965, 3992, 191, -1452, 362, 1, 208, 895, 704, 729, 724, 511, 647, 800, 1086
171167799, -6983, 8371, 10677, 5965, 3992, 191, -1452, 362, 1, 208, 895, 704, 729, 724, 511, 647, 800, 1086
171173015, -7048, 8328, 10690, 5925, 3988, 443, -1376, 527, 65, 183, 895, 704, 729, 724, 511, 647, 800, 1086
171173749, -7048, 8328, 10690, 5925, 3988, 443, -1376, 527, 65, 183, 915, 575, 753, 594, 320, 763, 798, 1131
171174604, -7048, 8328, 10690, 5925, 3988, 443, -1376, 527, 65, 183, 895, 704, 729, 724, 511, 647, 800, 1086
171175378, -7048, 8328, 10690, 5925, 3988, 443, -1376, 527, 65, 183, 915, 575, 753, 594, 320, 763, 798, 1131
171180340, -7048, 8328, 10690, 5925, 3988, 443, -1376, 527, 65, 183, 915, 575, 753, 594, 320, 763, 798, 1131
171181133, -7048, 8328, 10690, 5925, 3988, 443, -1376, 527, 65, 183, 915, 575, 753, 594, 320, 763, 798, 1131
171181972, -7048, 8328, 10690, 5925, 3988, 443, -1376, 527, 65, 183, 915, 575, 753, 594, 320, 763, 798, 1131
171182770, -7048, 8328, 10690, 5925, 3988, 443, -1376, 527, 65, 183, 915, 575, 753, 594, 320, 763, 798, 1131
