Timestamp, Orientation x, Orientation y, Orientation z, Orientation w, Acceleration x, Acceleration y, Acceleration z, Rotation x, Rotation y, Rotation z, EMG 0, EMG 1, EMG 2, EMG 3, EMG 4, EMG 5, EMG 6, EMG 7
231145788, -8570, 11318, 5857, 5706, 2715, -1275, -811, 826, -261, 882, 0, 0, 0, 0, 0, 0, 0, 0
231153193, -8670, 11323, 5846, 5556, 2794, -1223, -896, 751, -264, 874, 0, 0, 0, 0, 0, 0, 0, 0
231160716, -8754, 11332, 5836, 5413, 2794, -1200, -949, 691, -257, 863, 0, 0, 0, 0, 0, 0, 0, 0
231177365, -8820, 11346, 5831, 5282, 2808, -1167, -1029, 620, -243, 829, 0, 0, 0, 0, 0, 0, 0, 0
231198277, -8870, 11360, 5831, 5167, 2826, -1114, -1078, 560, -220, 785, 0, 0, 0, 0, 0, 0, 0, 0
231213838, -8870, 11360, 5831, 5167, 2826, -1114, -1078, 560, -220, 785, 23, 24, 25, 195, 80, 34, 27, 21
231214639, -8870, 11360, 5831, 5167, 2826, -1114, -1078, 560, -220, 785, 23, 24, 25, 195, 80, 34, 27, 21
231222185, -8902, 11379, 5834, 5066, 2804, -1100, -1115, 468, -199, 727, 23, 24, 25, 195, 80, 34, 27, 21
231237092, -8902, 11379, 5834, 5066, 2804, -1100, -1115, 468, -199, 727, 22, 26, 28, 215, 80, 35, 26, 26
231237857, -8902, 11379, 5834, 5066, 2804, -1100, -1115, 468, -199, 727, 22, 26, 28, 215, 80, 35, 26, 26
231238796, -8912, 11410, 5828, 4984, 2779, -1132, -1095, 286, -188, 681, 22, 26, 28, 215, 80, 35, 26, 26
231258650, -8912, 11410, 5828, 4984, 2779, -1132, -1095, 286, -188, 681, 22, 28, 28, 225, 85, 36, 26, 26
231266346, -8912, 11410, 5828, 4984, 2779, -1132, -1095, 286, -188, 681, 22, 28, 28, 225, 85, 36, 26, 26
231267284, -8918, 11441, 5819, 4911, 2749, -1144, -1035, 228, -183, 650, 22, 28, 28, 225, 85, 36, 26, 26
231275948, -8918, 11441, 5819, 4911, 2749, -1144, -1035, 228, -183, 650, 24, 31, 28, 229, 86, 35, 24, 25
231276763, -8918, 11441, 5819, 4911, 2749, -1144, -1035, 228, -183, 650, 24, 31, 28, 229, 86, 35, 24, 25
231277606, -8918, 11441, 5819, 4911, 2749, -1144, -1035, 228, -183, 650, 24, 31, 28, 229, 86, 35, 24, 25
231278385, -8918, 11441, 5819, 4911, 2749, -1144, -1035, 228, -183, 650, 24, 31, 28, 229, 86, 35, 24, 25
231283348, -8918, 11441, 5819, 4911, 2749, -1144, -1035, 228, -183, 650, 24, 31, 28, 229, 86, 35, 24, 25
231284131, -8918, 11441, 5819, 4911, 2749, -1144, -1035, 228, -183, 650, 24, 31, 28, 229, 86, 35, 24, 25
231284955, -8918, 11441, 5819, 4911, 2749, -1144, -1035, 228, -183, 650, 24, 31, 28, 229, 86, 35, 24, 25
231285780, -8918, 11441, 5819, 4911, 2749, -1144, -1035, 228, -183, 650, 24, 31, 28, 229, 86, 35, 24, 25
231288337, -8926, 11468, 5814, 4841, 2684, -1146, -1012, 238, -185, 617, 24, 31, 28, 229, 86, 35, 24, 25
231297046, -8926, 11468, 5814, 4841, 2684, -1146, -1012, 238, -185, 617, 22, 30, 28, 177, 82, 56, 23, 25
231297860, -8926, 11468, 5814, 4841, 2684, -1146, -1012, 238, -185, 617, 22, 30, 28, 177, 82, 56, 23, 25
231298789, -8914, 11508, 5801, 4783, 2711, -1196, -952, 65, -211, 601, 22, 30, 28, 177, 82, 56, 23, 25
231319526, -8914, 11508, 5801, 4783, 2711, -1196, -952, 65, -211, 601, 21, 29, 28, 181, 67, 58, 24, 26
231320338, -8914, 11508, 5801, 4783, 2711, -1196, -952, 65, -211, 601, 21, 29, 28, 181, 67, 58, 24, 26
231321262, -8888, 11556, 5779, 4742, 2698, -1317, -893, -109, -200, 527, 21, 29, 28, 181, 67, 58, 24, 26
231333848, -8888, 11556, 5779, 4742, 2698, -1317, -893, -109, -200, 527, 23, 29, 27, 198, 77, 57, 25, 21
231334660, -8888, 11556, 5779, 4742, 2698, -1317, -893, -109, -200, 527, 23, 29, 27, 198, 77, 57, 25, 21
231348323, -8858, 11601, 5762, 4710, 2610, -1357, -852, -138, -194, 428, 23, 29, 27, 198, 77, 57, 25, 21
231357016, -8858, 11601, 5762, 4710, 2610, -1357, -852, -138, -194, 428, 23, 26, 28, 183, 73, 67, 24, 21
231357835, -8858, 11601, 5762, 4710, 2610, -1357, -852, -138, -194, 428, 23, 26, 28, 183, 73, 67, 24, 21
231358762, -8818, 11651, 5746, 4680, 2476, -1357, -819, -215, -229, 375, 23, 26, 28, 183, 73, 67, 24, 21
231379559, -8818, 11651, 5746, 4680, 2476, -1357, -819, -215, -229, 375, 24, 27, 31, 226, 140, 70, 26, 23
231380360, -8818, 11651, 5746, 4680, 2476, -1357, -819, -215, -229, 375, 24, 27, 31, 226, 140, 70, 26, 23
231381283, -8776, 11711, 5720, 4642, 2354, -1340, -746, -281, -278, 430, 24, 27, 31, 226, 140, 70, 26, 23
231393812, -8776, 11711, 5720, 4642, 2354, -1340, -746, -281, -278, 430, 24, 28, 32, 244, 147, 58, 29, 22
231394634, -8776, 11711, 5720, 4642, 2354, -1340, -746, -281, -278, 430, 24, 28, 32, 244, 147, 58, 29, 22
231400767, -8738, 11776, 5681, 4596, 2264, -1386, -695, -305, -286, 484, 24, 28, 32, 244, 147, 58, 29, 22
231417020, -8738, 11776, 5681, 4596, 2264, -1386, -695, -305, -286, 484, 24, 28, 46, 241, 148, 56, 52, 27
231417827, -8738, 11776, 5681, 4596, 2264, -1386, -695, -305, -286, 484, 24, 28, 46, 241, 148, 56, 52, 27
231418753, -8721, 11833, 5630, 4545, 2159, -1485, -657, -242, -238, 502, 24, 28, 46, 241, 148, 56, 52, 27
231439608, -8721, 11833, 5630, 4545, 2159, -1485, -657, -242, -238, 502, 29, 30, 53, 232, 151, 61, 57, 28
231440303, -8721, 11833, 5630, 4545, 2159, -1485, -657, -242, -238, 502, 29, 30, 53, 232, 151, 61, 57, 28
231441320, -8728, 11877, 5571, 4490, 2048, -1589, -606, -140, -164, 497, 29, 30, 53, 232, 151, 61, 57, 28
231453810, -8728, 11877, 5571, 4490, 2048, -1589, -606, -140, -164, 497, 33, 32, 72, 287, 179, 67, 59, 29
231454631, -8728, 11877, 5571, 4490, 2048, -1589, -606, -140, -164, 497, 33, 32, 72, 287, 179, 67, 59, 29
231460789, -8764, 11906, 5501, 4427, 1965, -1579, -565, 14, -94, 570, 33, 32, 72, 287, 179, 67, 59, 29
231477046, -8764, 11906, 5501, 4427, 1965, -1579, -565, 14, -94, 570, 31, 35, 81, 352, 168, 78, 62, 30
231477847, -8764, 11906, 5501, 4427, 1965, -1579, -565, 14, -94, 570, 31, 35, 81, 352, 168, 78, 62, 30
231478806, -8816, 11937, 5413, 4349, 1978, -1580, -625, 93, -55, 746, 31, 35, 81, 352, 168, 78, 62, 30
231499527, -8816, 11937, 5413, 4349, 1978, -1580, -625, 93, -55, 746, 33, 42, 111, 384, 169, 87, 61, 31
231500311, -8816, 11937, 5413, 4349, 1978, -1580, -625, 93, -55, 746, 33, 42, 111, 384, 169, 87, 61, 31
231501261, -8860, 11982, 5303, 4269, 2014, -1668, -669, 5, -21, 854, 33, 42, 111, 384, 169, 87, 61, 31
231513845, -8860, 11982, 5303, 4269, 2014, -1668, -669, 5, -21, 854, 33, 43, 136, 405, 185, 112, 73, 51
231514640, -8860, 11982, 5303, 4269, 2014, -1668, -669, 5, -21, 854, 33, 43, 136, 405, 185, 112, 73, 51
231520788, -8915, 12030, 5161, 4194, 2151, -1843, -701, -32, 97, 1005, 33, 43, 136, 405, 185, 112, 73, 51
231537039, -8915, 12030, 5161, 4194, 2151, -1843, -701, -32, 97, 1005, 32, 43, 174, 475, 185, 135, 148, 88
231537863, -8915, 12030, 5161, 4194, 2151, -1843, -701, -32, 97, 1005, 32, 43, 174, 475, 185, 135, 148, 88
231538787, -9003, 12052, 5008, 4127, 2285, -1874, -783, 201, 284, 1092, 32, 43, 174, 475, 185, 135, 148, 88
231559527, -9003, 12052, 5008, 4127, 2285, -1874, -783, 201, 284, 1092, 39, 45, 171, 461, 162, 137, 213, 120
231560332, -9003, 12052, 5008, 4127, 2285, -1874, -783, 201, 284, 1092, 39, 45, 171, 461, 162, 137, 213, 120
231561264, -9116, 12052, 4851, 4068, 2312, -1769, -890, 424, 442, 1164, 39, 45, 171, 461, 162, 137, 213, 120
231574151, -9116, 12052, 4851, 4068, 2312, -1769, -890, 424, 442, 1164, 41, 45, 189, 434, 132, 134, 240, 138
231574675, -9116, 12052, 4851, 4068, 2312, -1769, -890, 424, 442, 1164, 41, 45, 189, 434, 132, 134, 240, 138
231580848, -9247, 12034, 4684, 4021, 2269, -1602, -887, 563, 597, 1248, 41, 45, 189, 434, 132, 134, 240, 138
231596989, -9247, 12034, 4684, 4021, 2269, -1602, -887, 563, 597, 1248, 42, 45, 211, 502, 144, 175, 298, 191
231597830, -9247, 12034, 4684, 4021, 2269, -1602, -887, 563, 597, 1248, 42, 45, 211, 502, 144, 175, 298, 191
231598741, -9360, 12028, 4498, 3990, 2132, -1481, -953, 466, 732, 1289, 42, 45, 211, 502, 144, 175, 298, 191
231619548, -9360, 12028, 4498, 3990, 2132, -1481, -953, 466, 732, 1289, 225, 149, 277, 635, 145, 179, 324, 224
231620339, -9360, 12028, 4498, 3990, 2132, -1481, -953, 466, 732, 1289, 225, 149, 277, 635, 145, 179, 324, 224
231621258, -9450, 12035, 4303, 3970, 2108, -1452, -1076, 367, 814, 1312, 225, 149, 277, 635, 145, 179, 324, 224
231633861, -9450, 12035, 4303, 3970, 2108, -1452, -1076, 367, 814, 1312, 252, 201, 266, 611, 148, 184, 448, 318
231634659, -9450, 12035, 4303, 3970, 2108, -1452, -1076, 367, 814, 1312, 252, 201, 266, 611, 148, 184, 448, 318
231640811, -9537, 12044, 4101, 3947, 2036, -1542, -1137, 376, 849, 1309, 252, 201, 266, 611, 148, 184, 448, 318
231657002, -9537, 12044, 4101, 3947, 2036, -1542, -1137, 376, 849, 1309, 303, 256, 302, 679, 158, 195, 467, 378
231657821, -9537, 12044, 4101, 3947, 2036, -1542, -1137, 376, 849, 1309, 303, 256, 302, 679, 158, 195, 467, 378
231658765, -9669, 12016, 3890, 3925, 2093, -1547, -1072, 666, 978, 1407, 303, 256, 302, 679, 158, 195, 467, 378
231683194, -9669, 12016, 3890, 3925, 2093, -1547, -1072, 666, 978, 1407, 330, 322, 341, 729, 168, 198, 461, 405
231683199, -9669, 12016, 3890, 3925, 2093, -1547, -1072, 666, 978, 1407, 330, 322, 341, 729, 168, 198, 461, 405
231683203, -9808, 11970, 3685, 3919, 1974, -1492, -1161, 807, 1115, 1310, 330, 322, 341, 729, 168, 198, 461, 405
231693863, -9808, 11970, 3685, 3919, 1974, -1492, -1161, 807, 1115, 1310, 375, 373, 366, 725, 165, 177, 427, 406
231694624, -9808, 11970, 3685, 3919, 1974, -1492, -1161, 807, 1115, 1310, 375, 373, 366, 725, 165, 177, 427, 406
231700777, -9922, 11920, 3504, 3952, 1886, -1344, -1103, 717, 1170, 1074, 375, 373, 366, 725, 165, 177, 427, 406
231717018, -9922, 11920, 3504, 3952, 1886, -1344, -1103, 717, 1170, 1074, 359, 444, 362, 709, 181, 165, 461, 447
231717829, -9922, 11920, 3504, 3952, 1886, -1344, -1103, 717, 1170, 1074, 359, 444, 362, 709, 181, 165, 461, 447
231718767, -10010, 11888, 3321, 3985, 1829, -1457, -1045, 525, 1111, 1025, 359, 444, 362, 709, 181, 165, 461, 447
231739551, -10010, 11888, 3321, 3985, 1829, -1457, -1045, 525, 1111, 1025, 356, 460, 387, 751, 187, 154, 402, 419
231740360, -10010, 11888, 3321, 3985, 1829, -1457, -1045, 525, 1111, 1025, 356, 460, 387, 751, 187, 154, 402, 419
231741283, -10060, 11874, 3170, 4024, 1801, -1347, -1168, 422, 1012, 876, 356, 460, 387, 751, 187, 154, 402, 419
231753852, -10060, 11874, 3170, 4024, 1801, -1347, -1168, 422, 1012, 876, 412, 486, 449, 800, 215, 244, 403, 463
231754644, -10060, 11874, 3170, 4024, 1801, -1347, -1168, 422, 1012, 876, 412, 486, 449, 800, 215, 244, 403, 463
231760790, -10075, 11872, 3052, 4084, 1703, -1230, -1086, 238, 908, 637, 412, 486, 449, 800, 215, 244, 403, 463
231784550, -10075, 11872, 3052, 4084, 1703, -1230, -1086, 238, 908, 637, 408, 569, 455, 818, 216, 248, 420, 552
231785340, -10075, 11872, 3052, 4084, 1703, -1230, -1086, 238, 908, 637, 408, 569, 455, 818, 216, 248, 420, 552
231786261, -10044, 11892, 2968, 4161, 1714, -1272, -1049, -9, 772, 387, 408, 569, 455, 818, 216, 248, 420, 552
231799496, -10044, 11892, 2968, 4161, 1714, -1272, -1049, -9, 772, 387, 391, 611, 482, 795, 215, 251, 429, 569
231800315, -10044, 11892, 2968, 4161, 1714, -1272, -1049, -9, 772, 387, 391, 611, 482, 795, 215, 251, 429, 569
231801233, -9987, 11911, 2953, 4255, 1698, -1304, -1056, -41, 584, -12, 391, 611, 482, 795, 215, 251, 429, 569
231813214, -9987, 11911, 2953, 4255, 1698, -1304, -1056, -41, 584, -12, 447, 554, 468, 711, 190, 286, 437, 535
231828912, -9987, 11911, 2953, 4255, 1698, -1304, -1056, -41, 584, -12, 447, 554, 468, 711, 190, 286, 437, 535
231829794, -9916, 11919, 2995, 4368, 1785, -1094, -1054, 11, 456, -252, 447, 554, 468, 711, 190, 286, 437, 535
231838386, -9916, 11919, 2995, 4368, 1785, -1094, -1054, 11, 456, -252, 462, 573, 480, 716, 185, 304, 474, 576
231839208, -9916, 11919, 2995, 4368, 1785, -1094, -1054, 11, 456, -252, 462, 573, 480, 716, 185, 304, 474, 576
231840032, -9916, 11919, 2995, 4368, 1785, -1094, -1054, 11, 456, -252, 462, 573, 480, 716, 185, 304, 474, 576
231840834, -9916, 11919, 2995, 4368, 1785, -1094, -1054, 11, 456, -252, 462, 573, 480, 716, 185, 304, 474, 576
231845836, -9916, 11919, 2995, 4368, 1785, -1094, -1054, 11, 456, -252, 462, 573, 480, 716, 185, 304, 474, 576
231846658, -9916, 11919, 2995, 4368, 1785, -1094, -1054, 11, 456, -252, 462, 573, 480, 716, 185, 304, 474, 576
231847485, -9916, 11919, 2995, 4368, 1785, -1094, -1054, 11, 456, -252, 462, 573, 480, 716, 185, 304, 474, 576
231848282, -9916, 11919, 2995, 4368, 1785, -1094, -1054, 11, 456, -252, 462, 573, 480, 716, 185, 304, 474, 576
231850799, -9836, 11926, 3059, 4483, 1908, -1083, -1002, -20, 367, -322, 462, 573, 480, 716, 185, 304, 474, 576
231859486, -9836, 11926, 3059, 4483, 1908, -1083, -1002, -20, 367, -322, 419, 589, 513, 672, 149, 246, 451, 530
231860308, -9836, 11926, 3059, 4483, 1908, -1083, -1002, -20, 367, -322, 419, 589, 513, 672, 149, 246, 451, 530
231861236, -9751, 11940, 3111, 4593, 1880, -1167, -910, -133, 341, -319, 419, 589, 513, 672, 149, 246, 451, 530
231873165, -9751, 11940, 3111, 4593, 1880, -1167, -910, -133, 341, -319, 440, 505, 506, 633, 140, 253, 440, 422
231881344, -9751, 11940, 3111, 4593, 1880, -1167, -910, -133, 341, -319, 440, 505, 506, 633, 140, 253, 440, 422
231882288, -9672, 11956, 3144, 4695, 1845, -1243, -808, -194, 342, -260, 440, 505, 506, 633, 140, 253, 440, 422
231898428, -9672, 11956, 3144, 4695, 1845, -1243, -808, -194, 342, -260, 444, 456, 536, 729, 202, 247, 441, 443
231899237, -9672, 11956, 3144, 4695, 1845, -1243, -808, -194, 342, -260, 444, 456, 536, 729, 202, 247, 441, 443
231900061, -9672, 11956, 3144, 4695, 1845, -1243, -808, -194, 342, -260, 444, 456, 536, 729, 202, 247, 441, 443
231900860, -9672, 11956, 3144, 4695, 1845, -1243, -808, -194, 342, -260, 444, 456, 536, 729, 202, 247, 441, 443
231905815, -9672, 11956, 3144, 4695, 1845, -1243, -808, -194, 342, -260, 444, 456, 536, 729, 202, 247, 441, 443
231906635, -9672, 11956, 3144, 4695, 1845, -1243, -808, -194, 342, -260, 444, 456, 536, 729, 202, 247, 441, 443
231907452, -9672, 11956, 3144, 4695, 1845, -1243, -808, -194, 342, -260, 444, 456, 536, 729, 202, 247, 441, 443
231908268, -9672, 11956, 3144, 4695, 1845, -1243, -808, -194, 342, -260, 444, 456, 536, 729, 202, 247, 441, 443
231910862, -9590, 11980, 3167, 4786, 1699, -1271, -816, -240, 332, -261, 444, 456, 536, 729, 202, 247, 441, 443
231928787, -9590, 11980, 3167, 4786, 1699, -1271, -816, -240, 332, -261, 357, 473, 575, 822, 218, 216, 388, 465
231928793, -9590, 11980, 3167, 4786, 1699, -1271, -816, -240, 332, -261, 357, 473, 575, 822, 218, 216, 388, 465
231928796, -9524, 12002, 3185, 4852, 1576, -1325, -803, -164, 263, -218, 357, 473, 575, 822, 218, 216, 388, 465
231942028, -9524, 12002, 3185, 4852, 1576, -1325, -803, -164, 263, -218, 327, 431, 555, 810, 242, 185, 312, 429
231942817, -9524, 12002, 3185, 4852, 1576, -1325, -803, -164, 263, -218, 327, 431, 555, 810, 242, 185, 312, 429
231943736, -9497, 11999, 3204, 4897, 1593, -1383, -756, 74, 244, -135, 327, 431, 555, 810, 242, 185, 312, 429
231956984, -9497, 11999, 3204, 4897, 1593, -1383, -756, 74, 244, -135, 285, 455, 527, 800, 281, 162, 307, 460
231957805, -9497, 11999, 3204, 4897, 1593, -1383, -756, 74, 244, -135, 285, 455, 527, 800, 281, 162, 307, 460
231958731, -9490, 11985, 3225, 4931, 1569, -1422, -748, 198, 231, -117, 285, 455, 527, 800, 281, 162, 307, 460
231979558, -9490, 11985, 3225, 4931, 1569, -1422, -748, 198, 231, -117, 238, 534, 590, 893, 372, 180, 345, 491
231980405, -9490, 11985, 3225, 4931, 1569, -1422, -748, 198, 231, -117, 238, 534, 590, 893, 372, 180, 345, 491
231981267, -9486, 11968, 3253, 4962, 1543, -1305, -684, 221, 192, -111, 238, 534, 590, 893, 372, 180, 345, 491
232002021, -9486, 11968, 3253, 4962, 1543, -1305, -684, 221, 192, -111, 214, 526, 549, 926, 487, 210, 363, 462
232002807, -9486, 11968, 3253, 4962, 1543, -1305, -684, 221, 192, -111, 214, 526, 549, 926, 487, 210, 363, 462
232003728, -9447, 11979, 3272, 4998, 1477, -1290, -657, -50, 146, -140, 214, 526, 549, 926, 487, 210, 363, 462
232016333, -9447, 11979, 3272, 4998, 1477, -1290, -657, -50, 146, -140, 229, 628, 577, 920, 503, 243, 454, 515
232017132, -9447, 11979, 3272, 4998, 1477, -1290, -657, -50, 146, -140, 229, 628, 577, 920, 503, 243, 454, 515
232023279, -9373, 12019, 3277, 5037, 1454, -1285, -702, -300, 131, -137, 229, 628, 577, 920, 503, 243, 454, 515
232039501, -9373, 12019, 3277, 5037, 1454, -1285, -702, -300, 131, -137, 274, 629, 587, 923, 498, 323, 559, 539
232040326, -9373, 12019, 3277, 5037, 1454, -1285, -702, -300, 131, -137, 274, 629, 587, 923, 498, 323, 559, 539
232041257, -9291, 12075, 3273, 5059, 1348, -1272, -706, -388, 50, -82, 274, 629, 587, 923, 498, 323, 559, 539
232061985, -9291, 12075, 3273, 5059, 1348, -1272, -706, -388, 50, -82, 332, 622, 547, 958, 484, 357, 582, 571
232062805, -9291, 12075, 3273, 5059, 1348, -1272, -706, -388, 50, -82, 332, 622, 547, 958, 484, 357, 582, 571
232063728, -9273, 12090, 3257, 5065, 1395, -1371, -564, -60, 116, 63, 332, 622, 547, 958, 484, 357, 582, 571
232076488, -9273, 12090, 3257, 5065, 1395, -1371, -564, -60, 116, 63, 360, 557, 506, 912, 424, 396, 674, 600
232077142, -9273, 12090, 3257, 5065, 1395, -1371, -564, -60, 116, 63, 360, 557, 506, 912, 424, 396, 674, 600
232083279, -9288, 12059, 3298, 5085, 1638, -1266, -637, 340, 111, -73, 360, 557, 506, 912, 424, 396, 674, 600
232099480, -9288, 12059, 3298, 5085, 1638, -1266, -637, 340, 111, -73, 381, 567, 541, 903, 260, 432, 744, 615
232100276, -9288, 12059, 3298, 5085, 1638, -1266, -637, 340, 111, -73, 381, 567, 541, 903, 260, 432, 744, 615
232101228, -9316, 12020, 3325, 5108, 1407, -1098, -500, 362, 175, -53, 381, 567, 541, 903, 260, 432, 744, 615
232122010, -9316, 12020, 3325, 5108, 1407, -1098, -500, 362, 175, -53, 389, 436, 476, 939, 239, 422, 708, 567
232122801, -9316, 12020, 3325, 5108, 1407, -1098, -500, 362, 175, -53, 389, 436, 476, 939, 239, 422, 708, 567
232123753, -9279, 12024, 3335, 5159, 1576, -1117, -542, -98, 194, -76, 389, 436, 476, 939, 239, 422, 708, 567
