Timestamp, Orientation x, Orientation y, Orientation z, Orientation w, Acceleration x, Acceleration y, Acceleration z, Rotation x, Rotation y, Rotation z, EMG 0, EMG 1, EMG 2, EMG 3, EMG 4, EMG 5, EMG 6, EMG 7
354246712, -9752, 9323, 5993, 7105, 2852, -534, -373, 358, 98, 200, 0, 0, 0, 0, 0, 0, 0, 0
354254237, -9731, 9321, 6055, 7084, 2782, -356, -582, 263, 110, 183, 0, 0, 0, 0, 0, 0, 0, 0
354261678, -9642, 9373, 6102, 7097, 2821, -184, -595, -245, -9, 158, 0, 0, 0, 0, 0, 0, 0, 0
354276654, -9525, 9472, 6140, 7090, 2635, -210, -567, -482, -261, 218, 0, 0, 0, 0, 0, 0, 0, 0
354299222, -9393, 9597, 6204, 7044, 2357, -451, -627, -457, -577, 100, 0, 0, 0, 0, 0, 0, 0, 0
354314835, -9393, 9597, 6204, 7044, 2357, -451, -627, -457, -577, 100, 19, 51, 122, 381, 280, 61, 27, 48
354315625, -9393, 9597, 6204, 7044, 2357, -451, -627, -457, -577, 100, 19, 51, 122, 381, 280, 61, 27, 48
354321761, -9252, 9705, 6320, 6978, 2593, -603, -458, -301, -907, -105, 19, 51, 122, 381, 280, 61, 27, 48
354337936, -9252, 9705, 6320, 6978, 2593, -603, -458, -301, -907, -105, 20, 56, 129, 403, 306, 68, 30, 31
354338755, -9252, 9705, 6320, 6978, 2593, -603, -458, -301, -907, -105, 20, 56, 129, 403, 306, 68, 30, 31
354339709, -9135, 9773, 6479, 6891, 2548, -715, -395, 23, -1033, -290, 20, 56, 129, 403, 306, 68, 30, 31
354360502, -9135, 9773, 6479, 6891, 2548, -715, -395, 23, -1033, -290, 24, 61, 137, 461, 319, 78, 30, 32
354361293, -9135, 9773, 6479, 6891, 2548, -715, -395, 23, -1033, -290, 24, 61, 137, 461, 319, 78, 30, 32
354362236, -9028, 9808, 6657, 6813, 2368, -813, -172, 132, -1110, -527, 24, 61, 137, 461, 319, 78, 30, 32
354374830, -9028, 9808, 6657, 6813, 2368, -813, -172, 132, -1110, -527, 26, 62, 143, 583, 418, 100, 34, 35
354375610, -9028, 9808, 6657, 6813, 2368, -813, -172, 132, -1110, -527, 26, 62, 143, 583, 418, 100, 34, 35
354381771, -8897, 9836, 6846, 6755, 2256, -665, 58, 9, -1257, -661, 26, 62, 143, 583, 418, 100, 34, 35
354397967, -8897, 9836, 6846, 6755, 2256, -665, 58, 9, -1257, -661, 28, 64, 147, 615, 448, 137, 37, 37
354398759, -8897, 9836, 6846, 6755, 2256, -665, 58, 9, -1257, -661, 28, 64, 147, 615, 448, 137, 37, 37
354399711, -8725, 9905, 7007, 6715, 2181, -893, 49, -377, -1326, -767, 28, 64, 147, 615, 448, 137, 37, 37
354420530, -8725, 9905, 7007, 6715, 2181, -893, 49, -377, -1326, -767, 27, 44, 91, 510, 371, 128, 34, 39
354421308, -8725, 9905, 7007, 6715, 2181, -893, 49, -377, -1326, -767, 27, 44, 91, 510, 371, 128, 34, 39
354422238, -8562, 9988, 7084, 6722, 2455, -1289, 372, -782, -1146, -754, 27, 44, 91, 510, 371, 128, 34, 39
354434778, -8562, 9988, 7084, 6722, 2455, -1289, 372, -782, -1146, -754, 26, 39, 83, 514, 354, 129, 32, 37
354435611, -8562, 9988, 7084, 6722, 2455, -1289, 372, -782, -1146, -754, 26, 39, 83, 514, 354, 129, 32, 37
354441738, -8482, 10040, 7093, 6736, 2732, -1600, 479, -624, -738, -557, 26, 39, 83, 514, 354, 129, 32, 37
354457964, -8482, 10040, 7093, 6736, 2732, -1600, 479, -624, -738, -557, 27, 38, 73, 482, 370, 125, 33, 36
354458784, -8482, 10040, 7093, 6736, 2732, -1600, 479, -624, -738, -557, 27, 38, 73, 482, 370, 125, 33, 36
354459708, -8515, 10017, 7105, 6715, 2712, -1589, 452, 75, -401, -380, 27, 38, 73, 482, 370, 125, 33, 36
354480931, -8515, 10017, 7105, 6715, 2712, -1589, 452, 75, -401, -380, 29, 38, 64, 358, 266, 110, 33, 33
354481745, -8515, 10017, 7105, 6715, 2712, -1589, 452, 75, -401, -380, 29, 38, 64, 358, 266, 110, 33, 33
354482657, -8591, 9964, 7121, 6680, 2774, -1262, 393, 393, -250, -142, 29, 38, 64, 358, 266, 110, 33, 33
354494762, -8591, 9964, 7121, 6680, 2774, -1262, 393, 393, -250, -142, 29, 36, 55, 301, 211, 59, 27, 30
354495610, -8591, 9964, 7121, 6680, 2774, -1262, 393, 393, -250, -142, 29, 36, 55, 301, 211, 59, 27, 30
354501742, -8647, 9939, 7080, 6688, 2865, -1156, 415, 13, -54, 35, 29, 36, 55, 301, 211, 59, 27, 30
354517985, -8647, 9939, 7080, 6688, 2865, -1156, 415, 13, -54, 35, 33, 46, 99, 377, 214, 66, 31, 27
354518777, -8647, 9939, 7080, 6688, 2865, -1156, 415, 13, -54, 35, 33, 46, 99, 377, 214, 66, 31, 27
354519727, -8707, 9944, 6977, 6712, 2750, -1236, 456, -250, 127, 225, 33, 46, 99, 377, 214, 66, 31, 27
354540448, -8707, 9944, 6977, 6712, 2750, -1236, 456, -250, 127, 225, 37, 74, 169, 392, 213, 65, 46, 27
354541261, -8707, 9944, 6977, 6712, 2750, -1236, 456, -250, 127, 225, 37, 74, 169, 392, 213, 65, 46, 27
354542186, -8791, 9943, 6860, 6724, 2721, -1307, 411, -135, 238, 331, 37, 74, 169, 392, 213, 65, 46, 27
354554793, -8791, 9943, 6860, 6724, 2721, -1307, 411, -135, 238, 331, 128, 106, 356, 470, 175, 162, 128, 81
354555612, -8791, 9943, 6860, 6724, 2721, -1307, 411, -135, 238, 331, 128, 106, 356, 470, 175, 162, 128, 81
354561738, -8900, 9926, 6757, 6710, 2711, -1387, 260, 111, 305, 355, 128, 106, 356, 470, 175, 162, 128, 81
354577980, -8900, 9926, 6757, 6710, 2711, -1387, 260, 111, 305, 355, 186, 195, 547, 503, 150, 245, 196, 151
354578825, -8900, 9926, 6757, 6710, 2711, -1387, 260, 111, 305, 355, 186, 195, 547, 503, 150, 245, 196, 151
354579733, -9026, 9885, 6670, 6689, 2822, -1381, 143, 326, 412, 351, 186, 195, 547, 503, 150, 245, 196, 151
354600489, -9026, 9885, 6670, 6689, 2822, -1381, 143, 326, 412, 351, 280, 222, 633, 588, 166, 287, 323, 238
354601266, -9026, 9885, 6670, 6689, 2822, -1381, 143, 326, 412, 351, 280, 222, 633, 588, 166, 287, 323, 238
354602213, -9206, 9779, 6604, 6666, 2921, -1311, 73, 793, 678, 332, 280, 222, 633, 588, 166, 287, 323, 238
354614815, -9206, 9779, 6604, 6666, 2921, -1311, 73, 793, 678, 332, 341, 259, 759, 582, 171, 354, 375, 270
354615622, -9206, 9779, 6604, 6666, 2921, -1311, 73, 793, 678, 332, 341, 259, 759, 582, 171, 354, 375, 270
354621762, -9370, 9653, 6569, 6655, 2917, -919, -110, 904, 757, 330, 341, 259, 759, 582, 171, 354, 375, 270
354637946, -9370, 9653, 6569, 6655, 2917, -919, -110, 904, 757, 330, 414, 274, 787, 781, 200, 382, 406, 296
354638767, -9370, 9653, 6569, 6655, 2917, -919, -110, 904, 757, 330, 414, 274, 787, 781, 200, 382, 406, 296
354639687, -9457, 9586, 6501, 6696, 2918, -664, -262, 304, 838, 363, 414, 274, 787, 781, 200, 382, 406, 296
354660489, -9457, 9586, 6501, 6696, 2918, -664, -262, 304, 838, 363, 423, 276, 864, 811, 193, 368, 416, 299
354661289, -9457, 9586, 6501, 6696, 2918, -664, -262, 304, 838, 363, 423, 276, 864, 811, 193, 368, 416, 299
354662211, -9474, 9601, 6376, 6769, 2794, -752, -233, -387, 783, 409, 423, 276, 864, 811, 193, 368, 416, 299
354674787, -9474, 9601, 6376, 6769, 2794, -752, -233, -387, 783, 409, 430, 242, 884, 828, 193, 352, 406, 290
354675624, -9474, 9601, 6376, 6769, 2794, -752, -233, -387, 783, 409, 430, 242, 884, 828, 193, 352, 406, 290
354681769, -9434, 9684, 6230, 6843, 2848, -1122, -489, -792, 711, 319, 430, 242, 884, 828, 193, 352, 406, 290
354697953, -9434, 9684, 6230, 6843, 2848, -1122, -489, -792, 711, 319, 421, 229, 943, 846, 189, 355, 326, 249
354698760, -9434, 9684, 6230, 6843, 2848, -1122, -489, -792, 711, 319, 421, 229, 943, 846, 189, 355, 326, 249
354699709, -9398, 9759, 6120, 6886, 3146, -1117, -766, -548, 666, 365, 421, 229, 943, 846, 189, 355, 326, 249
354720529, -9398, 9759, 6120, 6886, 3146, -1117, -766, -548, 666, 365, 387, 190, 877, 869, 176, 308, 279, 225
354721305, -9398, 9759, 6120, 6886, 3146, -1117, -766, -548, 666, 365, 387, 190, 877, 869, 176, 308, 279, 225
354722248, -9439, 9782, 6050, 6859, 3079, -1135, -836, 137, 622, 524, 387, 190, 877, 869, 176, 308, 279, 225
354759325, -9439, 9782, 6050, 6859, 3079, -1135, -836, 137, 622, 524, 331, 181, 864, 710, 148, 307, 263, 203
354760105, -9439, 9782, 6050, 6859, 3079, -1135, -836, 137, 622, 524, 331, 181, 864, 710, 148, 307, 263, 203
354761048, -9496, 9755, 6032, 6833, 3130, -763, -736, 455, 566, 501, 331, 181, 864, 710, 148, 307, 263, 203
354761830, -9496, 9755, 6032, 6833, 3130, -763, -736, 455, 566, 501, 305, 170, 760, 686, 151, 294, 231, 192
354766829, -9496, 9755, 6032, 6833, 3130, -763, -736, 455, 566, 501, 305, 170, 760, 686, 151, 294, 231, 192
354767654, -9496, 9755, 6032, 6833, 3130, -763, -736, 455, 566, 501, 305, 170, 760, 686, 151, 294, 231, 192
354768482, -9496, 9755, 6032, 6833, 3130, -763, -736, 455, 566, 501, 305, 170, 760, 686, 151, 294, 231, 192
354769278, -9496, 9755, 6032, 6833, 3130, -763, -736, 455, 566, 501, 305, 170, 760, 686, 151, 294, 231, 192
354774236, -9496, 9755, 6032, 6833, 3130, -763, -736, 455, 566, 501, 305, 170, 760, 686, 151, 294, 231, 192
354775059, -9496, 9755, 6032, 6833, 3130, -763, -736, 455, 566, 501, 305, 170, 760, 686, 151, 294, 231, 192
354775854, -9496, 9755, 6032, 6833, 3130, -763, -736, 455, 566, 501, 305, 170, 760, 686, 151, 294, 231, 192
354776680, -9496, 9755, 6032, 6833, 3130, -763, -736, 455, 566, 501, 305, 170, 760, 686, 151, 294, 231, 192
354781771, -9496, 9755, 6032, 6833, 3130, -763, -736, 455, 566, 501, 305, 170, 760, 686, 151, 294, 231, 192
354782683, -9530, 9730, 6036, 6818, 3223, -527, -838, 421, 537, 483, 305, 170, 760, 686, 151, 294, 231, 192
354783484, -9530, 9730, 6036, 6818, 3223, -527, -838, 421, 537, 483, 335, 168, 676, 752, 166, 271, 228, 175
354784303, -9530, 9730, 6036, 6818, 3223, -527, -838, 421, 537, 483, 335, 168, 676, 752, 166, 271, 228, 175
354789338, -9530, 9730, 6036, 6818, 3223, -527, -838, 421, 537, 483, 335, 168, 676, 752, 166, 271, 228, 175
354790126, -9530, 9730, 6036, 6818, 3223, -527, -838, 421, 537, 483, 335, 168, 676, 752, 166, 271, 228, 175
354790952, -9530, 9730, 6036, 6818, 3223, -527, -838, 421, 537, 483, 335, 168, 676, 752, 166, 271, 228, 175
354791751, -9530, 9730, 6036, 6818, 3223, -527, -838, 421, 537, 483, 335, 168, 676, 752, 166, 271, 228, 175
354796905, -9530, 9730, 6036, 6818, 3223, -527, -838, 421, 537, 483, 335, 168, 676, 752, 166, 271, 228, 175
354797612, -9530, 9730, 6036, 6818, 3223, -527, -838, 421, 537, 483, 335, 168, 676, 752, 166, 271, 228, 175
354798407, -9530, 9730, 6036, 6818, 3223, -527, -838, 421, 537, 483, 335, 168, 676, 752, 166, 271, 228, 175
354799203, -9530, 9730, 6036, 6818, 3223, -527, -838, 421, 537, 483, 335, 168, 676, 752, 166, 271, 228, 175
354804276, -9530, 9730, 6036, 6818, 3223, -527, -838, 421, 537, 483, 335, 168, 676, 752, 166, 271, 228, 175
354805231, -9509, 9769, 6004, 6821, 3184, -410, -780, -105, 419, 604, 335, 168, 676, 752, 166, 271, 228, 175
354806998, -9509, 9769, 6004, 6821, 3184, -410, -780, -105, 419, 604, 308, 233, 514, 720, 157, 231, 223, 164
354807004, -9509, 9769, 6004, 6821, 3184, -410, -780, -105, 419, 604, 308, 233, 514, 720, 157, 231, 223, 164
354811884, -9509, 9769, 6004, 6821, 3184, -410, -780, -105, 419, 604, 308, 233, 514, 720, 157, 231, 223, 164
354812689, -9509, 9769, 6004, 6821, 3184, -410, -780, -105, 419, 604, 308, 233, 514, 720, 157, 231, 223, 164
354813496, -9509, 9769, 6004, 6821, 3184, -410, -780, -105, 419, 604, 308, 233, 514, 720, 157, 231, 223, 164
354814321, -9509, 9769, 6004, 6821, 3184, -410, -780, -105, 419, 604, 308, 233, 514, 720, 157, 231, 223, 164
354819268, -9509, 9769, 6004, 6821, 3184, -410, -780, -105, 419, 604, 308, 233, 514, 720, 157, 231, 223, 164
354820068, -9509, 9769, 6004, 6821, 3184, -410, -780, -105, 419, 604, 308, 233, 514, 720, 157, 231, 223, 164
354820893, -9509, 9769, 6004, 6821, 3184, -410, -780, -105, 419, 604, 308, 233, 514, 720, 157, 231, 223, 164
354821701, -9509, 9769, 6004, 6821, 3184, -410, -780, -105, 419, 604, 308, 233, 514, 720, 157, 231, 223, 164
354826825, -9509, 9769, 6004, 6821, 3184, -410, -780, -105, 419, 604, 308, 233, 514, 720, 157, 231, 223, 164
354827777, -9468, 9863, 5921, 6815, 2967, -586, -719, -462, 336, 742, 308, 233, 514, 720, 157, 231, 223, 164
354828622, -9407, 9968, 5842, 6815, 3102, -579, -742, -567, 281, 733, 308, 233, 514, 720, 157, 231, 223, 164
354829430, -9407, 9968, 5842, 6815, 3102, -579, -742, -567, 281, 733, 471, 258, 481, 713, 182, 207, 220, 153
354834371, -9407, 9968, 5842, 6815, 3102, -579, -742, -567, 281, 733, 471, 258, 481, 713, 182, 207, 220, 153
354835158, -9407, 9968, 5842, 6815, 3102, -579, -742, -567, 281, 733, 471, 258, 481, 713, 182, 207, 220, 153
354835985, -9407, 9968, 5842, 6815, 3102, -579, -742, -567, 281, 733, 471, 258, 481, 713, 182, 207, 220, 153
354836786, -9407, 9968, 5842, 6815, 3102, -579, -742, -567, 281, 733, 471, 258, 481, 713, 182, 207, 220, 153
354841736, -9407, 9968, 5842, 6815, 3102, -579, -742, -567, 281, 733, 471, 258, 481, 713, 182, 207, 220, 153
354842601, -9407, 9968, 5842, 6815, 3102, -579, -742, -567, 281, 733, 471, 258, 481, 713, 182, 207, 220, 153
354843353, -9407, 9968, 5842, 6815, 3102, -579, -742, -567, 281, 733, 471, 258, 481, 713, 182, 207, 220, 153
354844175, -9407, 9968, 5842, 6815, 3102, -579, -742, -567, 281, 733, 471, 258, 481, 713, 182, 207, 220, 153
354849252, -9407, 9968, 5842, 6815, 3102, -579, -742, -567, 281, 733, 471, 258, 481, 713, 182, 207, 220, 153
354850190, -9338, 10094, 5755, 6797, 2983, -593, -784, -632, 177, 824, 471, 258, 481, 713, 182, 207, 220, 153
354851001, -9338, 10094, 5755, 6797, 2983, -593, -784, -632, 177, 824, 645, 430, 508, 741, 354, 164, 194, 163
354851801, -9338, 10094, 5755, 6797, 2983, -593, -784, -632, 177, 824, 645, 430, 508, 741, 354, 164, 194, 163
354860426, -9338, 10094, 5755, 6797, 2983, -593, -784, -632, 177, 824, 645, 430, 508, 741, 354, 164, 194, 163
354860430, -9338, 10094, 5755, 6797, 2983, -593, -784, -632, 177, 824, 645, 430, 508, 741, 354, 164, 194, 163
354860433, -9338, 10094, 5755, 6797, 2983, -593, -784, -632, 177, 824, 645, 430, 508, 741, 354, 164, 194, 163
354860436, -9338, 10094, 5755, 6797, 2983, -593, -784, -632, 177, 824, 645, 430, 508, 741, 354, 164, 194, 163
354864227, -9338, 10094, 5755, 6797, 2983, -593, -784, -632, 177, 824, 645, 430, 508, 741, 354, 164, 194, 163
354865058, -9338, 10094, 5755, 6797, 2983, -593, -784, -632, 177, 824, 645, 430, 508, 741, 354, 164, 194, 163
354865863, -9338, 10094, 5755, 6797, 2983, -593, -784, -632, 177, 824, 645, 430, 508, 741, 354, 164, 194, 163
354866655, -9338, 10094, 5755, 6797, 2983, -593, -784, -632, 177, 824, 645, 430, 508, 741, 354, 164, 194, 163
354871791, -9338, 10094, 5755, 6797, 2983, -593, -784, -632, 177, 824, 645, 430, 508, 741, 354, 164, 194, 163
354872732, -9240, 10261, 5665, 6757, 2950, -634, -865, -813, -29, 908, 645, 430, 508, 741, 354, 164, 194, 163
354873619, -9240, 10261, 5665, 6757, 2950, -634, -865, -813, -29, 908, 756, 597, 510, 819, 513, 246, 304, 192
354874314, -9240, 10261, 5665, 6757, 2950, -634, -865, -813, -29, 908, 756, 597, 510, 819, 513, 246, 304, 192
354879373, -9240, 10261, 5665, 6757, 2950, -634, -865, -813, -29, 908, 756, 597, 510, 819, 513, 246, 304, 192
354880191, -9240, 10261, 5665, 6757, 2950, -634, -865, -813, -29, 908, 756, 597, 510, 819, 513, 246, 304, 192
354880985, -9240, 10261, 5665, 6757, 2950, -634, -865, -813, -29, 908, 756, 597, 510, 819, 513, 246, 304, 192
354881808, -9240, 10261, 5665, 6757, 2950, -634, -865, -813, -29, 908, 756, 597, 510, 819, 513, 246, 304, 192
354886765, -9240, 10261, 5665, 6757, 2950, -634, -865, -813, -29, 908, 756, 597, 510, 819, 513, 246, 304, 192
354887610, -9240, 10261, 5665, 6757, 2950, -634, -865, -813, -29, 908, 756, 597, 510, 819, 513, 246, 304, 192
354888387, -9240, 10261, 5665, 6757, 2950, -634, -865, -813, -29, 908, 756, 597, 510, 819, 513, 246, 304, 192
354889209, -9240, 10261, 5665, 6757, 2950, -634, -865, -813, -29, 908, 756, 597, 510, 819, 513, 246, 304, 192
354894265, -9240, 10261, 5665, 6757, 2950, -634, -865, -813, -29, 908, 756, 597, 510, 819, 513, 246, 304, 192
354895215, -9134, 10443, 5562, 6709, 2934, -868, -923, -891, -71, 885, 756, 597, 510, 819, 513, 246, 304, 192
354896034, -9134, 10443, 5562, 6709, 2934, -868, -923, -891, -71, 885, 873, 818, 569, 758, 546, 254, 326, 257
354896834, -9134, 10443, 5562, 6709, 2934, -868, -923, -891, -71, 885, 873, 818, 569, 758, 546, 254, 326, 257
354901834, -9134, 10443, 5562, 6709, 2934, -868, -923, -891, -71, 885, 873, 818, 569, 758, 546, 254, 326, 257
354902658, -9134, 10443, 5562, 6709, 2934, -868, -923, -891, -71, 885, 873, 818, 569, 758, 546, 254, 326, 257
354903462, -9134, 10443, 5562, 6709, 2934, -868, -923, -891, -71, 885, 873, 818, 569, 758, 546, 254, 326, 257
354904287, -9134, 10443, 5562, 6709, 2934, -868, -923, -891, -71, 885, 873, 818, 569, 758, 546, 254, 326, 257
354909240, -9134, 10443, 5562, 6709, 2934, -868, -923, -891, -71, 885, 873, 818, 569, 758, 546, 254, 326, 257
354910059, -9134, 10443, 5562, 6709, 2934, -868, -923, -891, -71, 885, 873, 818, 569, 758, 546, 254, 326, 257
354910863, -9134, 10443, 5562, 6709, 2934, -868, -923, -891, -71, 885, 873, 818, 569, 758, 546, 254, 326, 257
354911685, -9134, 10443, 5562, 6709, 2934, -868, -923, -891, -71, 885, 873, 818, 569, 758, 546, 254, 326, 257
354916761, -9134, 10443, 5562, 6709, 2934, -868, -923, -891, -71, 885, 873, 818, 569, 758, 546, 254, 326, 257
354917686, -9057, 10612, 5468, 6624, 2891, -1138, -899, -675, -193, 896, 873, 818, 569, 758, 546, 254, 326, 257
354918488, -9057, 10612, 5468, 6624, 2891, -1138, -899, -675, -193, 896, 966, 1067, 628, 726, 574, 311, 628, 289
354919324, -9057, 10612, 5468, 6624, 2891, -1138, -899, -675, -193, 896, 966, 1067, 628, 726, 574, 311, 628, 289
354924309, -9057, 10612, 5468, 6624, 2891, -1138, -899, -675, -193, 896, 966, 1067, 628, 726, 574, 311, 628, 289
354925130, -9057, 10612, 5468, 6624, 2891, -1138, -899, -675, -193, 896, 966, 1067, 628, 726, 574, 311, 628, 289
354925960, -9057, 10612, 5468, 6624, 2891, -1138, -899, -675, -193, 896, 966, 1067, 628, 726, 574, 311, 628, 289
354926759, -9057, 10612, 5468, 6624, 2891, -1138, -899, -675, -193, 896, 966, 1067, 628, 726, 574, 311, 628, 289
354931783, -9057, 10612, 5468, 6624, 2891, -1138, -899, -675, -193, 896, 966, 1067, 628, 726, 574, 311, 628, 289
354932605, -9057, 10612, 5468, 6624, 2891, -1138, -899, -675, -193, 896, 966, 1067, 628, 726, 574, 311, 628, 289
354933408, -9057, 10612, 5468, 6624, 2891, -1138, -899, -675, -193, 896, 966, 1067, 628, 726, 574, 311, 628, 289
354934208, -9057, 10612, 5468, 6624, 2891, -1138, -899, -675, -193, 896, 966, 1067, 628, 726, 574, 311, 628, 289
354939282, -9057, 10612, 5468, 6624, 2891, -1138, -899, -675, -193, 896, 966, 1067, 628, 726, 574, 311, 628, 289
354940211, -9057, 10749, 5412, 6446, 2776, -1206, -1076, 4, -375, 1137, 966, 1067, 628, 726, 574, 311, 628, 289
354941030, -9057, 10749, 5412, 6446, 2776, -1206, -1076, 4, -375, 1137, 1050, 1175, 645, 717, 631, 508, 877, 386
354941857, -9057, 10749, 5412, 6446, 2776, -1206, -1076, 4, -375, 1137, 1050, 1175, 645, 717, 631, 508, 877, 386
354946856, -9057, 10749, 5412, 6446, 2776, -1206, -1076, 4, -375, 1137, 1050, 1175, 645, 717, 631, 508, 877, 386
354947656, -9057, 10749, 5412, 6446, 2776, -1206, -1076, 4, -375, 1137, 1050, 1175, 645, 717, 631, 508, 877, 386
354948482, -9057, 10749, 5412, 6446, 2776, -1206, -1076, 4, -375, 1137, 1050, 1175, 645, 717, 631, 508, 877, 386
354949307, -9057, 10749, 5412, 6446, 2776, -1206, -1076, 4, -375, 1137, 1050, 1175, 645, 717, 631, 508, 877, 386
354954258, -9057, 10749, 5412, 6446, 2776, -1206, -1076, 4, -375, 1137, 1050, 1175, 645, 717, 631, 508, 877, 386
354955057, -9057, 10749, 5412, 6446, 2776, -1206, -1076, 4, -375, 1137, 1050, 1175, 645, 717, 631, 508, 877, 386
354955880, -9057, 10749, 5412, 6446, 2776, -1206, -1076, 4, -375, 1137, 1050, 1175, 645, 717, 631, 508, 877, 386
354956682, -9057, 10749, 5412, 6446, 2776, -1206, -1076, 4, -375, 1137, 1050, 1175, 645, 717, 631, 508, 877, 386
354961760, -9057, 10749, 5412, 6446, 2776, -1206, -1076, 4, -375, 1137, 1050, 1175, 645, 717, 631, 508, 877, 386
354962682, -9085, 10828, 5420, 6265, 2868, -865, -998, 426, -474, 1087, 1050, 1175, 645, 717, 631, 508, 877, 386
354963505, -9085, 10828, 5420, 6265, 2868, -865, -998, 426, -474, 1087, 1085, 1264, 695, 681, 561, 554, 1111, 580
354964325, -9085, 10828, 5420, 6265, 2868, -865, -998, 426, -474, 1087, 1085, 1264, 695, 681, 561, 554, 1111, 580
354969326, -9085, 10828, 5420, 6265, 2868, -865, -998, 426, -474, 1087, 1085, 1264, 695, 681, 561, 554, 1111, 580
354970151, -9085, 10828, 5420, 6265, 2868, -865, -998, 426, -474, 1087, 1085, 1264, 695, 681, 561, 554, 1111, 580
354970950, -9085, 10828, 5420, 6265, 2868, -865, -998, 426, -474, 1087, 1085, 1264, 695, 681, 561, 554, 1111, 580
354971774, -9085, 10828, 5420, 6265, 2868, -865, -998, 426, -474, 1087, 1085, 1264, 695, 681, 561, 554, 1111, 580
354976804, -9085, 10828, 5420, 6265, 2868, -865, -998, 426, -474, 1087, 1085, 1264, 695, 681, 561, 554, 1111, 580
354977827, -9085, 10828, 5420, 6265, 2868, -865, -998, 426, -474, 1087, 1085, 1264, 695, 681, 561, 554, 1111, 580
354978334, -9085, 10828, 5420, 6265, 2868, -865, -998, 426, -474, 1087, 1085, 1264, 695, 681, 561, 554, 1111, 580
354980561, -9085, 10828, 5420, 6265, 2868, -865, -998, 426, -474, 1087, 1085, 1264, 695, 681, 561, 554, 1111, 580
354984323, -9085, 10828, 5420, 6265, 2868, -865, -998, 426, -474, 1087, 1085, 1264, 695, 681, 561, 554, 1111, 580
354985241, -9092, 10899, 5430, 6123, 2874, -732, -922, 288, -421, 988, 1085, 1264, 695, 681, 561, 554, 1111, 580
354986056, -9092, 10899, 5430, 6123, 2874, -732, -922, 288, -421, 988, 1151, 1292, 692, 609, 486, 573, 1159, 714
354986859, -9092, 10899, 5430, 6123, 2874, -732, -922, 288, -421, 988, 1151, 1292, 692, 609, 486, 573, 1159, 714
354999395, -9092, 10899, 5430, 6123, 2874, -732, -922, 288, -421, 988, 1151, 1292, 692, 609, 486, 573, 1159, 714
355000321, -9092, 10899, 5430, 6123, 2874, -732, -922, 288, -421, 988, 1151, 1292, 692, 609, 486, 573, 1159, 714
355001014, -9092, 10899, 5430, 6123, 2874, -732, -922, 288, -421, 988, 1151, 1292, 692, 609, 486, 573, 1159, 714
355001808, -9092, 10899, 5430, 6123, 2874, -732, -922, 288, -421, 988, 1151, 1292, 692, 609, 486, 573, 1159, 714
355006794, -9092, 10899, 5430, 6123, 2874, -732, -922, 288, -421, 988, 1151, 1292, 692, 609, 486, 573, 1159, 714
355007613, -9092, 10899, 5430, 6123, 2874, -732, -922, 288, -421, 988, 1151, 1292, 692, 609, 486, 573, 1159, 714
355008381, -9092, 10899, 5430, 6123, 2874, -732, -922, 288, -421, 988, 1151, 1292, 692, 609, 486, 573, 1159, 714
355009200, -9092, 10899, 5430, 6123, 2874, -732, -922, 288, -421, 988, 1151, 1292, 692, 609, 486, 573, 1159, 714
355014289, -9092, 10899, 5430, 6123, 2874, -732, -922, 288, -421, 988, 1151, 1292, 692, 609, 486, 573, 1159, 714
355015212, -9186, 10867, 5428, 6040, 2780, -62, -363, 696, -49, 1137, 1151, 1292, 692, 609, 486, 573, 1159, 714
355016032, -9186, 10867, 5428, 6040, 2780, -62, -363, 696, -49, 1137, 1129, 1266, 633, 641, 496, 623, 1279, 889
355016840, -9186, 10867, 5428, 6040, 2780, -62, -363, 696, -49, 1137, 1129, 1266, 633, 641, 496, 623, 1279, 889
355019635, -9186, 10867, 5428, 6040, 2780, -62, -363, 696, -49, 1137, 1129, 1266, 633, 641, 496, 623, 1279, 889
355029237, -9186, 10867, 5428, 6040, 2780, -62, -363, 696, -49, 1137, 1129, 1266, 633, 641, 496, 623, 1279, 889
355030034, -9186, 10867, 5428, 6040, 2780, -62, -363, 696, -49, 1137, 1129, 1266, 633, 641, 496, 623, 1279, 889
355030860, -9186, 10867, 5428, 6040, 2780, -62, -363, 696, -49, 1137, 1129, 1266, 633, 641, 496, 623, 1279, 889
355031684, -9186, 10867, 5428, 6040, 2780, -62, -363, 696, -49, 1137, 1129, 1266, 633, 641, 496, 623, 1279, 889
355036736, -9186, 10867, 5428, 6040, 2780, -62, -363, 696, -49, 1137, 1129, 1266, 633, 641, 496, 623, 1279, 889
355037608, -9186, 10867, 5428, 6040, 2780, -62, -363, 696, -49, 1137, 1129, 1266, 633, 641, 496, 623, 1279, 889
355038361, -9186, 10867, 5428, 6040, 2780, -62, -363, 696, -49, 1137, 1129, 1266, 633, 641, 496, 623, 1279, 889
355039184, -9186, 10867, 5428, 6040, 2780, -62, -363, 696, -49, 1137, 1129, 1266, 633, 641, 496, 623, 1279, 889
355044367, -9186, 10867, 5428, 6040, 2780, -62, -363, 696, -49, 1137, 1155, 1134, 579, 645, 474, 664, 1317, 1047
355045184, -9186, 10867, 5428, 6040, 2780, -62, -363, 696, -49, 1137, 1155, 1134, 579, 645, 474, 664, 1317, 1047
355045984, -9186, 10867, 5428, 6040, 2780, -62, -363, 696, -49, 1137, 1155, 1134, 579, 645, 474, 664, 1317, 1047
355046808, -9186, 10867, 5428, 6040, 2780, -62, -363, 696, -49, 1137, 1155, 1134, 579, 645, 474, 664, 1317, 1047
355051755, -9186, 10867, 5428, 6040, 2780, -62, -363, 696, -49, 1137, 1155, 1134, 579, 645, 474, 664, 1317, 1047
355052605, -9186, 10867, 5428, 6040, 2780, -62, -363, 696, -49, 1137, 1155, 1134, 579, 645, 474, 664, 1317, 1047
355053383, -9186, 10867, 5428, 6040, 2780, -62, -363, 696, -49, 1137, 1155, 1134, 579, 645, 474, 664, 1317, 1047
355054205, -9186, 10867, 5428, 6040, 2780, -62, -363, 696, -49, 1137, 1155, 1134, 579, 645, 474, 664, 1317, 1047
355059259, -9186, 10867, 5428, 6040, 2780, -62, -363, 696, -49, 1137, 1155, 1134, 579, 645, 474, 664, 1317, 1047
355060208, -8937, 11081, 5301, 6137, 3326, 11, -806, -1763, 175, 889, 1155, 1134, 579, 645, 474, 664, 1317, 1047
355061007, -8937, 11081, 5301, 6137, 3326, 11, -806, -1763, 175, 889, 1115, 1078, 565, 696, 462, 585, 1284, 1058
355061840, -8937, 11081, 5301, 6137, 3326, 11, -806, -1763, 175, 889, 1115, 1078, 565, 696, 462, 585, 1284, 1058
355066836, -8937, 11081, 5301, 6137, 3326, 11, -806, -1763, 175, 889, 1115, 1078, 565, 696, 462, 585, 1284, 1058
355067659, -8937, 11081, 5301, 6137, 3326, 11, -806, -1763, 175, 889, 1115, 1078, 565, 696, 462, 585, 1284, 1058
355068461, -8937, 11081, 5301, 6137, 3326, 11, -806, -1763, 175, 889, 1115, 1078, 565, 696, 462, 585, 1284, 1058
355069284, -8937, 11081, 5301, 6137, 3326, 11, -806, -1763, 175, 889, 1115, 1078, 565, 696, 462, 585, 1284, 1058
355074545, -8937, 11081, 5301, 6137, 3326, 11, -806, -1763, 175, 889, 1115, 1078, 565, 696, 462, 585, 1284, 1058
355075050, -8937, 11081, 5301, 6137, 3326, 11, -806, -1763, 175, 889, 1115, 1078, 565, 696, 462, 585, 1284, 1058
355075866, -8937, 11081, 5301, 6137, 3326, 11, -806, -1763, 175, 889, 1115, 1078, 565, 696, 462, 585, 1284, 1058
355076682, -8937, 11081, 5301, 6137, 3326, 11, -806, -1763, 175, 889, 1115, 1078, 565, 696, 462, 585, 1284, 1058
355081830, -8937, 11081, 5301, 6137, 3326, 11, -806, -1763, 175, 889, 1115, 1078, 565, 696, 462, 585, 1284, 1058
355082697, -8724, 11406, 5021, 6083, 2447, -1247, -1843, -2191, -252, 1390, 1115, 1078, 565, 696, 462, 585, 1284, 1058
355083490, -8724, 11406, 5021, 6083, 2447, -1247, -1843, -2191, -252, 1390, 1083, 943, 471, 790, 577, 616, 1212, 993
355084309, -8724, 11406, 5021, 6083, 2447, -1247, -1843, -2191, -252, 1390, 1083, 943, 471, 790, 577, 616, 1212, 993
355089310, -8724, 11406, 5021, 6083, 2447, -1247, -1843, -2191, -252, 1390, 1083, 943, 471, 790, 577, 616, 1212, 993
355090134, -8724, 11406, 5021, 6083, 2447, -1247, -1843, -2191, -252, 1390, 1083, 943, 471, 790, 577, 616, 1212, 993
355090934, -8724, 11406, 5021, 6083, 2447, -1247, -1843, -2191, -252, 1390, 1083, 943, 471, 790, 577, 616, 1212, 993
355091757, -8724, 11406, 5021, 6083, 2447, -1247, -1843, -2191, -252, 1390, 1083, 943, 471, 790, 577, 616, 1212, 993
355096767, -8724, 11406, 5021, 6083, 2447, -1247, -1843, -2191, -252, 1390, 1083, 943, 471, 790, 577, 616, 1212, 993
355097606, -8724, 11406, 5021, 6083, 2447, -1247, -1843, -2191, -252, 1390, 1083, 943, 471, 790, 577, 616, 1212, 993
355098382, -8724, 11406, 5021, 6083, 2447, -1247, -1843, -2191, -252, 1390, 1083, 943, 471, 790, 577, 616, 1212, 993
355099205, -8724, 11406, 5021, 6083, 2447, -1247, -1843, -2191, -252, 1390, 1083, 943, 471, 790, 577, 616, 1212, 993
355104034, -8724, 11406, 5021, 6083, 2447, -1247, -1843, -2191, -252, 1390, 1083, 943, 471, 790, 577, 616, 1212, 993
355104986, -8767, 11608, 4704, 5891, 2963, -1566, -730, -743, -138, 2289, 1083, 943, 471, 790, 577, 616, 1212, 993
355105782, -8767, 11608, 4704, 5891, 2963, -1566, -730, -743, -138, 2289, 1117, 984, 482, 792, 567, 614, 1249, 984
355106622, -8767, 11608, 4704, 5891, 2963, -1566, -730, -743, -138, 2289, 1083, 943, 471, 790, 577, 616, 1212, 993
355111870, -8767, 11608, 4704, 5891, 2963, -1566, -730, -743, -138, 2289, 1117, 984, 482, 792, 567, 614, 1249, 984
355112665, -8767, 11608, 4704, 5891, 2963, -1566, -730, -743, -138, 2289, 1117, 984, 482, 792, 567, 614, 1249, 984
355113466, -8767, 11608, 4704, 5891, 2963, -1566, -730, -743, -138, 2289, 1117, 984, 482, 792, 567, 614, 1249, 984
355114424, -8767, 11608, 4704, 5891, 2963, -1566, -730, -743, -138, 2289, 1117, 984, 482, 792, 567, 614, 1249, 984
355119243, -8767, 11608, 4704, 5891, 2963, -1566, -730, -743, -138, 2289, 1117, 984, 482, 792, 567, 614, 1249, 984
355120054, -8767, 11608, 4704, 5891, 2963, -1566, -730, -743, -138, 2289, 1117, 984, 482, 792, 567, 614, 1249, 984
355120878, -8767, 11608, 4704, 5891, 2963, -1566, -730, -743, -138, 2289, 1117, 984, 482, 792, 567, 614, 1249, 984
355121678, -8767, 11608, 4704, 5891, 2963, -1566, -730, -743, -138, 2289, 1117, 984, 482, 792, 567, 614, 1249, 984
355126760, -8767, 11608, 4704, 5891, 2963, -1566, -730, -743, -138, 2289, 1117, 984, 482, 792, 567, 614, 1249, 984
355127682, -9032, 11604, 4493, 5657, 3172, -320, -1137, 1095, 191, 2287, 1117, 984, 482, 792, 567, 614, 1249, 984
355128509, -9032, 11604, 4493, 5657, 3172, -320, -1137, 1095, 191, 2287, 1112, 899, 449, 876, 549, 684, 1289, 1041
355129355, -9032, 11604, 4493, 5657, 3172, -320, -1137, 1095, 191, 2287, 1112, 899, 449, 876, 549, 684, 1289, 1041
355134376, -9032, 11604, 4493, 5657, 3172, -320, -1137, 1095, 191, 2287, 1112, 899, 449, 876, 549, 684, 1289, 1041
355135144, -9032, 11604, 4493, 5657, 3172, -320, -1137, 1095, 191, 2287, 1112, 899, 449, 876, 549, 684, 1289, 1041
355135961, -9032, 11604, 4493, 5657, 3172, -320, -1137, 1095, 191, 2287, 1112, 899, 449, 876, 549, 684, 1289, 1041
355136784, -9032, 11604, 4493, 5657, 3172, -320, -1137, 1095, 191, 2287, 1112, 899, 449, 876, 549, 684, 1289, 1041
355141535, -9032, 11604, 4493, 5657, 3172, -320, -1137, 1095, 191, 2287, 1112, 899, 449, 876, 549, 684, 1289, 1041
355142360, -9032, 11604, 4493, 5657, 3172, -320, -1137, 1095, 191, 2287, 1112, 899, 449, 876, 549, 684, 1289, 1041
355143186, -9032, 11604, 4493, 5657, 3172, -320, -1137, 1095, 191, 2287, 1112, 899, 449, 876, 549, 684, 1289, 1041
355143984, -9032, 11604, 4493, 5657, 3172, -320, -1137, 1095, 191, 2287, 1112, 899, 449, 876, 549, 684, 1289, 1041
355149234, -9032, 11604, 4493, 5657, 3172, -320, -1137, 1095, 191, 2287, 1112, 899, 449, 876, 549, 684, 1289, 1041
355150162, -9103, 11747, 4158, 5504, 2847, -528, -1000, -497, 308, 2342, 1112, 899, 449, 876, 549, 684, 1289, 1041
355150984, -9103, 11747, 4158, 5504, 2847, -528, -1000, -497, 308, 2342, 1076, 849, 440, 903, 554, 720, 1328, 944
355151809, -9103, 11747, 4158, 5504, 2847, -528, -1000, -497, 308, 2342, 1076, 849, 440, 903, 554, 720, 1328, 944
355156831, -9103, 11747, 4158, 5504, 2847, -528, -1000, -497, 308, 2342, 1076, 849, 440, 903, 554, 720, 1328, 944
355157637, -9103, 11747, 4158, 5504, 2847, -528, -1000, -497, 308, 2342, 1076, 849, 440, 903, 554, 720, 1328, 944
355158437, -9103, 11747, 4158, 5504, 2847, -528, -1000, -497, 308, 2342, 1076, 849, 440, 903, 554, 720, 1328, 944
355159258, -9103, 11747, 4158, 5504, 2847, -528, -1000, -497, 308, 2342, 1076, 849, 440, 903, 554, 720, 1328, 944
355164270, -9103, 11747, 4158, 5504, 2847, -528, -1000, -497, 308, 2342, 1076, 849, 440, 903, 554, 720, 1328, 944
355165085, -9103, 11747, 4158, 5504, 2847, -528, -1000, -497, 308, 2342, 1076, 849, 440, 903, 554, 720, 1328, 944
355165883, -9103, 11747, 4158, 5504, 2847, -528, -1000, -497, 308, 2342, 1076, 849, 440, 903, 554, 720, 1328, 944
355166708, -9103, 11747, 4158, 5504, 2847, -528, -1000, -497, 308, 2342, 1076, 849, 440, 903, 554, 720, 1328, 944
355171785, -9103, 11747, 4158, 5504, 2847, -528, -1000, -497, 308, 2342, 1076, 849, 440, 903, 554, 720, 1328, 944
355172713, -9027, 12010, 3730, 5366, 2548, -1039, -594, -1704, 175, 2500, 1076, 849, 440, 903, 554, 720, 1328, 944
355173514, -9027, 12010, 3730, 5366, 2548, -1039, -594, -1704, 175, 2500, 1095, 927, 547, 1000, 625, 746, 1372, 1030
355174334, -9027, 12010, 3730, 5366, 2548, -1039, -594, -1704, 175, 2500, 1095, 927, 547, 1000, 625, 746, 1372, 1030
355179339, -9027, 12010, 3730, 5366, 2548, -1039, -594, -1704, 175, 2500, 1095, 927, 547, 1000, 625, 746, 1372, 1030
355180158, -9027, 12010, 3730, 5366, 2548, -1039, -594, -1704, 175, 2500, 1095, 927, 547, 1000, 625, 746, 1372, 1030
355180983, -9027, 12010, 3730, 5366, 2548, -1039, -594, -1704, 175, 2500, 1095, 927, 547, 1000, 625, 746, 1372, 1030
355181934, -9027, 12010, 3730, 5366, 2548, -1039, -594, -1704, 175, 2500, 1095, 927, 547, 1000, 625, 746, 1372, 1030
355186736, -9027, 12010, 3730, 5366, 2548, -1039, -594, -1704, 175, 2500, 1095, 927, 547, 1000, 625, 746, 1372, 1030
355187603, -9027, 12010, 3730, 5366, 2548, -1039, -594, -1704, 175, 2500, 1095, 927, 547, 1000, 625, 746, 1372, 1030
355188357, -9027, 12010, 3730, 5366, 2548, -1039, -594, -1704, 175, 2500, 1095, 927, 547, 1000, 625, 746, 1372, 1030
355189177, -9027, 12010, 3730, 5366, 2548, -1039, -594, -1704, 175, 2500, 1095, 927, 547, 1000, 625, 746, 1372, 1030
355194266, -9027, 12010, 3730, 5366, 2548, -1039, -594, -1704, 175, 2500, 1095, 927, 547, 1000, 625, 746, 1372, 1030
355195187, -9022, 12190, 3367, 5207, 2277, -1407, -536, -1027, 120, 2281, 1095, 927, 547, 1000, 625, 746, 1372, 1030
355196009, -9022, 12190, 3367, 5207, 2277, -1407, -536, -1027, 120, 2281, 1155, 1050, 545, 1044, 573, 718, 1418, 1206
355196810, -9022, 12190, 3367, 5207, 2277, -1407, -536, -1027, 120, 2281, 1155, 1050, 545, 1044, 573, 718, 1418, 1206
355201844, -9022, 12190, 3367, 5207, 2277, -1407, -536, -1027, 120, 2281, 1155, 1050, 545, 1044, 573, 718, 1418, 1206
355202674, -9022, 12190, 3367, 5207, 2277, -1407, -536, -1027, 120, 2281, 1155, 1050, 545, 1044, 573, 718, 1418, 1206
355203464, -9022, 12190, 3367, 5207, 2277, -1407, -536, -1027, 120, 2281, 1155, 1050, 545, 1044, 573, 718, 1418, 1206
355204257, -9022, 12190, 3367, 5207, 2277, -1407, -536, -1027, 120, 2281, 1155, 1050, 545, 1044, 573, 718, 1418, 1206
355209210, -9022, 12190, 3367, 5207, 2277, -1407, -536, -1027, 120, 2281, 1155, 1050, 545, 1044, 573, 718, 1418, 1206
355210043, -9022, 12190, 3367, 5207, 2277, -1407, -536, -1027, 120, 2281, 1155, 1050, 545, 1044, 573, 718, 1418, 1206
355210842, -9022, 12190, 3367, 5207, 2277, -1407, -536, -1027, 120, 2281, 1155, 1050, 545, 1044, 573, 718, 1418, 1206
355211655, -9022, 12190, 3367, 5207, 2277, -1407, -536, -1027, 120, 2281, 1155, 1050, 545, 1044, 573, 718, 1418, 1206
355214546, -9022, 12190, 3367, 5207, 2277, -1407, -536, -1027, 120, 2281, 1155, 1050, 545, 1044, 573, 718, 1418, 1206
355224380, -9144, 12254, 3085, 5012, 2490, -908, -575, 67, 72, 2228, 1155, 1050, 545, 1044, 573, 718, 1418, 1206
355226256, -9144, 12254, 3085, 5012, 2490, -908, -575, 67, 72, 2228, 1061, 978, 527, 1094, 593, 757, 1526, 1401
355226261, -9144, 12254, 3085, 5012, 2490, -908, -575, 67, 72, 2228, 1061, 978, 527, 1094, 593, 757, 1526, 1401
355226781, -9144, 12254, 3085, 5012, 2490, -908, -575, 67, 72, 2228, 1061, 978, 527, 1094, 593, 757, 1526, 1401
355231730, -9144, 12254, 3085, 5012, 2490, -908, -575, 67, 72, 2228, 1061, 978, 527, 1094, 593, 757, 1526, 1401
355232603, -9144, 12254, 3085, 5012, 2490, -908, -575, 67, 72, 2228, 1061, 978, 527, 1094, 593, 757, 1526, 1401
355233357, -9144, 12254, 3085, 5012, 2490, -908, -575, 67, 72, 2228, 1061, 978, 527, 1094, 593, 757, 1526, 1401
355234179, -9144, 12254, 3085, 5012, 2490, -908, -575, 67, 72, 2228, 1061, 978, 527, 1094, 593, 757, 1526, 1401
355239255, -9144, 12254, 3085, 5012, 2490, -908, -575, 67, 72, 2228, 1061, 978, 527, 1094, 593, 757, 1526, 1401
355240181, -9228, 12335, 2829, 4809, 2674, -996, -760, -76, -102, 2114, 1061, 978, 527, 1094, 593, 757, 1526, 1401
355241008, -9228, 12335, 2829, 4809, 2674, -996, -760, -76, -102, 2114, 1136, 1039, 538, 1129, 658, 691, 1427, 1308
355243434, -9228, 12335, 2829, 4809, 2674, -996, -760, -76, -102, 2114, 1136, 1039, 538, 1129, 658, 691, 1427, 1308
355248000, -9228, 12335, 2829, 4809, 2674, -996, -760, -76, -102, 2114, 1136, 1039, 538, 1129, 658, 691, 1427, 1308
355248005, -9228, 12335, 2829, 4809, 2674, -996, -760, -76, -102, 2114, 1136, 1039, 538, 1129, 658, 691, 1427, 1308
355248476, -9228, 12335, 2829, 4809, 2674, -996, -760, -76, -102, 2114, 1136, 1039, 538, 1129, 658, 691, 1427, 1308
355249260, -9228, 12335, 2829, 4809, 2674, -996, -760, -76, -102, 2114, 1136, 1039, 538, 1129, 658, 691, 1427, 1308
355254206, -9228, 12335, 2829, 4809, 2674, -996, -760, -76, -102, 2114, 1136, 1039, 538, 1129, 658, 691, 1427, 1308
355255048, -9228, 12335, 2829, 4809, 2674, -996, -760, -76, -102, 2114, 1136, 1039, 538, 1129, 658, 691, 1427, 1308
355255858, -9228, 12335, 2829, 4809, 2674, -996, -760, -76, -102, 2114, 1136, 1039, 538, 1129, 658, 691, 1427, 1308
355256672, -9228, 12335, 2829, 4809, 2674, -996, -760, -76, -102, 2114, 1136, 1039, 538, 1129, 658, 691, 1427, 1308
355261830, -9228, 12335, 2829, 4809, 2674, -996, -760, -76, -102, 2114, 1136, 1039, 538, 1129, 658, 691, 1427, 1308
355262737, -9232, 12471, 2551, 4602, 1929, -1511, -688, -638, -217, 2039, 1136, 1039, 538, 1129, 658, 691, 1427, 1308
355263606, -9232, 12471, 2551, 4602, 1929, -1511, -688, -638, -217, 2039, 1109, 1100, 601, 1189, 722, 681, 1367, 1373
355264282, -9232, 12471, 2551, 4602, 1929, -1511, -688, -638, -217, 2039, 1109, 1100, 601, 1189, 722, 681, 1367, 1373
355276917, -9232, 12471, 2551, 4602, 1929, -1511, -688, -638, -217, 2039, 1109, 1100, 601, 1189, 722, 681, 1367, 1373
355277718, -9232, 12471, 2551, 4602, 1929, -1511, -688, -638, -217, 2039, 1109, 1100, 601, 1189, 722, 681, 1367, 1373
355278492, -9232, 12471, 2551, 4602, 1929, -1511, -688, -638, -217, 2039, 1109, 1100, 601, 1189, 722, 681, 1367, 1373
355279317, -9232, 12471, 2551, 4602, 1929, -1511, -688, -638, -217, 2039, 1109, 1100, 601, 1189, 722, 681, 1367, 1373
355284256, -9232, 12471, 2551, 4602, 1929, -1511, -688, -638, -217, 2039, 1109, 1100, 601, 1189, 722, 681, 1367, 1373
355285055, -9232, 12471, 2551, 4602, 1929, -1511, -688, -638, -217, 2039, 1109, 1100, 601, 1189, 722, 681, 1367, 1373
355286041, -9232, 12471, 2551, 4602, 1929, -1511, -688, -638, -217, 2039, 1109, 1100, 601, 1189, 722, 681, 1367, 1373
355286713, -9232, 12471, 2551, 4602, 1929, -1511, -688, -638, -217, 2039, 1109, 1100, 601, 1189, 722, 681, 1367, 1373
355291815, -9232, 12471, 2551, 4602, 1929, -1511, -688, -638, -217, 2039, 1008, 1066, 493, 1167, 672, 640, 1380, 1418
355292630, -9232, 12471, 2551, 4602, 1929, -1511, -688, -638, -217, 2039, 1008, 1066, 493, 1167, 672, 640, 1380, 1418
355293432, -9232, 12471, 2551, 4602, 1929, -1511, -688, -638, -217, 2039, 1008, 1066, 493, 1167, 672, 640, 1380, 1418
355294253, -9232, 12471, 2551, 4602, 1929, -1511, -688, -638, -217, 2039, 1008, 1066, 493, 1167, 672, 640, 1380, 1418
355306773, -9232, 12471, 2551, 4602, 1929, -1511, -688, -638, -217, 2039, 1008, 1066, 493, 1167, 672, 640, 1380, 1418
355307617, -9232, 12471, 2551, 4602, 1929, -1511, -688, -638, -217, 2039, 1008, 1066, 493, 1167, 672, 640, 1380, 1418
355308363, -9232, 12471, 2551, 4602, 1929, -1511, -688, -638, -217, 2039, 1008, 1066, 493, 1167, 672, 640, 1380, 1418
355309183, -9232, 12471, 2551, 4602, 1929, -1511, -688, -638, -217, 2039, 1008, 1066, 493, 1167, 672, 640, 1380, 1418
355314273, -9232, 12471, 2551, 4602, 1929, -1511, -688, -638, -217, 2039, 1008, 1066, 493, 1167, 672, 640, 1380, 1418
355315201, -9190, 12696, 2200, 4234, 1185, -1320, -458, -424, -535, 1260, 1008, 1066, 493, 1167, 672, 640, 1380, 1418
355316010, -9190, 12696, 2200, 4234, 1185, -1320, -458, -424, -535, 1260, 914, 1055, 511, 1081, 693, 739, 1376, 1382
355316810, -9190, 12696, 2200, 4234, 1185, -1320, -458, -424, -535, 1260, 914, 1055, 511, 1081, 693, 739, 1376, 1382
355321837, -9190, 12696, 2200, 4234, 1185, -1320, -458, -424, -535, 1260, 914, 1055, 511, 1081, 693, 739, 1376, 1382
355322634, -9190, 12696, 2200, 4234, 1185, -1320, -458, -424, -535, 1260, 914, 1055, 511, 1081, 693, 739, 1376, 1382
355323463, -9190, 12696, 2200, 4234, 1185, -1320, -458, -424, -535, 1260, 914, 1055, 511, 1081, 693, 739, 1376, 1382
355324284, -9190, 12696, 2200, 4234, 1185, -1320, -458, -424, -535, 1260, 914, 1055, 511, 1081, 693, 739, 1376, 1382
355329219, -9190, 12696, 2200, 4234, 1185, -1320, -458, -424, -535, 1260, 914, 1055, 511, 1081, 693, 739, 1376, 1382
355330038, -9190, 12696, 2200, 4234, 1185, -1320, -458, -424, -535, 1260, 914, 1055, 511, 1081, 693, 739, 1376, 1382
355330860, -9190, 12696, 2200, 4234, 1185, -1320, -458, -424, -535, 1260, 914, 1055, 511, 1081, 693, 739, 1376, 1382
355331658, -9190, 12696, 2200, 4234, 1185, -1320, -458, -424, -535, 1260, 914, 1055, 511, 1081, 693, 739, 1376, 1382
355336741, -9190, 12696, 2200, 4234, 1185, -1320, -458, -424, -535, 1260, 914, 1055, 511, 1081, 693, 739, 1376, 1382
355337663, -9168, 12762, 2162, 4100, 1872, -1418, -499, -231, -681, 1015, 914, 1055, 511, 1081, 693, 739, 1376, 1382
355338490, -9168, 12762, 2162, 4100, 1872, -1418, -499, -231, -681, 1015, 965, 1087, 514, 1043, 661, 740, 1266, 1265
355339308, -9168, 12762, 2162, 4100, 1872, -1418, -499, -231, -681, 1015, 965, 1087, 514, 1043, 661, 740, 1266, 1265
355344367, -9168, 12762, 2162, 4100, 1872, -1418, -499, -231, -681, 1015, 965, 1087, 514, 1043, 661, 740, 1266, 1265
355345181, -9168, 12762, 2162, 4100, 1872, -1418, -499, -231, -681, 1015, 965, 1087, 514, 1043, 661, 740, 1266, 1265
355345980, -9168, 12762, 2162, 4100, 1872, -1418, -499, -231, -681, 1015, 965, 1087, 514, 1043, 661, 740, 1266, 1265
355346805, -9168, 12762, 2162, 4100, 1872, -1418, -499, -231, -681, 1015, 965, 1087, 514, 1043, 661, 740, 1266, 1265
355351761, -9168, 12762, 2162, 4100, 1872, -1418, -499, -231, -681, 1015, 965, 1087, 514, 1043, 661, 740, 1266, 1265
355352605, -9168, 12762, 2162, 4100, 1872, -1418, -499, -231, -681, 1015, 965, 1087, 514, 1043, 661, 740, 1266, 1265
355353378, -9168, 12762, 2162, 4100, 1872, -1418, -499, -231, -681, 1015, 965, 1087, 514, 1043, 661, 740, 1266, 1265
355354200, -9168, 12762, 2162, 4100, 1872, -1418, -499, -231, -681, 1015, 965, 1087, 514, 1043, 661, 740, 1266, 1265
355359251, -9168, 12762, 2162, 4100, 1872, -1418, -499, -231, -681, 1015, 965, 1087, 514, 1043, 661, 740, 1266, 1265
355360206, -9142, 12839, 2097, 3950, 1334, -1397, -599, -272, -595, 967, 965, 1087, 514, 1043, 661, 740, 1266, 1265
355361000, -9142, 12839, 2097, 3950, 1334, -1397, -599, -272, -595, 967, 899, 1092, 544, 915, 608, 783, 1358, 1371
355361833, -9142, 12839, 2097, 3950, 1334, -1397, -599, -272, -595, 967, 899, 1092, 544, 915, 608, 783, 1358, 1371
355366837, -9142, 12839, 2097, 3950, 1334, -1397, -599, -272, -595, 967, 899, 1092, 544, 915, 608, 783, 1358, 1371
355367665, -9142, 12839, 2097, 3950, 1334, -1397, -599, -272, -595, 967, 899, 1092, 544, 915, 608, 783, 1358, 1371
355368465, -9142, 12839, 2097, 3950, 1334, -1397, -599, -272, -595, 967, 899, 1092, 544, 915, 608, 783, 1358, 1371
355369284, -9142, 12839, 2097, 3950, 1334, -1397, -599, -272, -595, 967, 899, 1092, 544, 915, 608, 783, 1358, 1371
355374233, -9142, 12839, 2097, 3950, 1334, -1397, -599, -272, -595, 967, 899, 1092, 544, 915, 608, 783, 1358, 1371
355375074, -9142, 12839, 2097, 3950, 1334, -1397, -599, -272, -595, 967, 899, 1092, 544, 915, 608, 783, 1358, 1371
355375859, -9142, 12839, 2097, 3950, 1334, -1397, -599, -272, -595, 967, 899, 1092, 544, 915, 608, 783, 1358, 1371
355376684, -9142, 12839, 2097, 3950, 1334, -1397, -599, -272, -595, 967, 899, 1092, 544, 915, 608, 783, 1358, 1371
355381758, -9142, 12839, 2097, 3950, 1334, -1397, -599, -272, -595, 967, 899, 1092, 544, 915, 608, 783, 1358, 1371
355382706, -9054, 12961, 2009, 3799, 944, -1545, -600, -747, -596, 827, 899, 1092, 544, 915, 608, 783, 1358, 1371
355383499, -9054, 12961, 2009, 3799, 944, -1545, -600, -747, -596, 827, 966, 1111, 508, 988, 640, 732, 1387, 1381
355384313, -9054, 12961, 2009, 3799, 944, -1545, -600, -747, -596, 827, 966, 1111, 508, 988, 640, 732, 1387, 1381
355389306, -9054, 12961, 2009, 3799, 944, -1545, -600, -747, -596, 827, 966, 1111, 508, 988, 640, 732, 1387, 1381
355390130, -9054, 12961, 2009, 3799, 944, -1545, -600, -747, -596, 827, 966, 1111, 508, 988, 640, 732, 1387, 1381
355390940, -9054, 12961, 2009, 3799, 944, -1545, -600, -747, -596, 827, 966, 1111, 508, 988, 640, 732, 1387, 1381
355391759, -9054, 12961, 2009, 3799, 944, -1545, -600, -747, -596, 827, 966, 1111, 508, 988, 640, 732, 1387, 1381
355396712, -9054, 12961, 2009, 3799, 944, -1545, -600, -747, -596, 827, 966, 1111, 508, 988, 640, 732, 1387, 1381
355397612, -9054, 12961, 2009, 3799, 944, -1545, -600, -747, -596, 827, 966, 1111, 508, 988, 640, 732, 1387, 1381
355398288, -9054, 12961, 2009, 3799, 944, -1545, -600, -747, -596, 827, 966, 1111, 508, 988, 640, 732, 1387, 1381
355399158, -9054, 12961, 2009, 3799, 944, -1545, -600, -747, -596, 827, 966, 1111, 508, 988, 640, 732, 1387, 1381
355405070, -9054, 12961, 2009, 3799, 944, -1545, -600, -747, -596, 827, 966, 1111, 508, 988, 640, 732, 1387, 1381
355405215, -8954, 13065, 1979, 3693, 1705, -1680, -679, -707, -679, 717, 966, 1111, 508, 988, 640, 732, 1387, 1381
355406026, -8954, 13065, 1979, 3693, 1705, -1680, -679, -707, -679, 717, 1014, 1149, 549, 1101, 714, 728, 1376, 1303
355406851, -8954, 13065, 1979, 3693, 1705, -1680, -679, -707, -679, 717, 1014, 1149, 549, 1101, 714, 728, 1376, 1303
355411873, -8954, 13065, 1979, 3693, 1705, -1680, -679, -707, -679, 717, 1014, 1149, 549, 1101, 714, 728, 1376, 1303
355412662, -8954, 13065, 1979, 3693, 1705, -1680, -679, -707, -679, 717, 1014, 1149, 549, 1101, 714, 728, 1376, 1303
355413487, -8954, 13065, 1979, 3693, 1705, -1680, -679, -707, -679, 717, 1014, 1149, 549, 1101, 714, 728, 1376, 1303
355414307, -8954, 13065, 1979, 3693, 1705, -1680, -679, -707, -679, 717, 1014, 1149, 549, 1101, 714, 728, 1376, 1303
355419268, -8954, 13065, 1979, 3693, 1705, -1680, -679, -707, -679, 717, 1014, 1149, 549, 1101, 714, 728, 1376, 1303
355420061, -8954, 13065, 1979, 3693, 1705, -1680, -679, -707, -679, 717, 1014, 1149, 549, 1101, 714, 728, 1376, 1303
355420890, -8954, 13065, 1979, 3693, 1705, -1680, -679, -707, -679, 717, 1014, 1149, 549, 1101, 714, 728, 1376, 1303
355421697, -8954, 13065, 1979, 3693, 1705, -1680, -679, -707, -679, 717, 1014, 1149, 549, 1101, 714, 728, 1376, 1303
355426768, -8954, 13065, 1979, 3693, 1705, -1680, -679, -707, -679, 717, 1014, 1149, 549, 1101, 714, 728, 1376, 1303
355427705, -8866, 13141, 1978, 3635, 1885, -1597, -766, -521, -532, 546, 1014, 1149, 549, 1101, 714, 728, 1376, 1303
355428510, -8866, 13141, 1978, 3635, 1885, -1597, -766, -521, -532, 546, 1085, 1164, 624, 1214, 722, 625, 1426, 1293
355429325, -8866, 13141, 1978, 3635, 1885, -1597, -766, -521, -532, 546, 1085, 1164, 624, 1214, 722, 625, 1426, 1293
355434329, -8866, 13141, 1978, 3635, 1885, -1597, -766, -521, -532, 546, 1085, 1164, 624, 1214, 722, 625, 1426, 1293
355435150, -8866, 13141, 1978, 3635, 1885, -1597, -766, -521, -532, 546, 1085, 1164, 624, 1214, 722, 625, 1426, 1293
355435950, -8866, 13141, 1978, 3635, 1885, -1597, -766, -521, -532, 546, 1085, 1164, 624, 1214, 722, 625, 1426, 1293
355436775, -8866, 13141, 1978, 3635, 1885, -1597, -766, -521, -532, 546, 1085, 1164, 624, 1214, 722, 625, 1426, 1293
355441728, -8866, 13141, 1978, 3635, 1885, -1597, -766, -521, -532, 546, 1085, 1164, 624, 1214, 722, 625, 1426, 1293
355442603, -8866, 13141, 1978, 3635, 1885, -1597, -766, -521, -532, 546, 1085, 1164, 624, 1214, 722, 625, 1426, 1293
355443302, -8866, 13141, 1978, 3635, 1885, -1597, -766, -521, -532, 546, 1085, 1164, 624, 1214, 722, 625, 1426, 1293
355444175, -8866, 13141, 1978, 3635, 1885, -1597, -766, -521, -532, 546, 1085, 1164, 624, 1214, 722, 625, 1426, 1293
355449263, -8866, 13141, 1978, 3635, 1885, -1597, -766, -521, -532, 546, 1085, 1164, 624, 1214, 722, 625, 1426, 1293
355450199, -8758, 13233, 1947, 3583, 1481, -1535, -692, -740, -412, 478, 1085, 1164, 624, 1214, 722, 625, 1426, 1293
355450982, -8758, 13233, 1947, 3583, 1481, -1535, -692, -740, -412, 478, 1136, 1151, 693, 1221, 745, 560, 1369, 1230
355451804, -8758, 13233, 1947, 3583, 1481, -1535, -692, -740, -412, 478, 1136, 1151, 693, 1221, 745, 560, 1369, 1230
355464308, -8758, 13233, 1947, 3583, 1481, -1535, -692, -740, -412, 478, 1136, 1151, 693, 1221, 745, 560, 1369, 1230
355465129, -8758, 13233, 1947, 3583, 1481, -1535, -692, -740, -412, 478, 1136, 1151, 693, 1221, 745, 560, 1369, 1230
355465928, -8758, 13233, 1947, 3583, 1481, -1535, -692, -740, -412, 478, 1136, 1151, 693, 1221, 745, 560, 1369, 1230
355466753, -8758, 13233, 1947, 3583, 1481, -1535, -692, -740, -412, 478, 1136, 1151, 693, 1221, 745, 560, 1369, 1230
355472016, -8758, 13233, 1947, 3583, 1481, -1535, -692, -740, -412, 478, 1136, 1151, 693, 1221, 745, 560, 1369, 1230
355472517, -8758, 13233, 1947, 3583, 1481, -1535, -692, -740, -412, 478, 1136, 1151, 693, 1221, 745, 560, 1369, 1230
355473337, -8758, 13233, 1947, 3583, 1481, -1535, -692, -740, -412, 478, 1136, 1151, 693, 1221, 745, 560, 1369, 1230
355474164, -8758, 13233, 1947, 3583, 1481, -1535, -692, -740, -412, 478, 1136, 1151, 693, 1221, 745, 560, 1369, 1230
355479321, -8758, 13233, 1947, 3583, 1481, -1535, -692, -740, -412, 478, 1162, 1153, 667, 1267, 752, 458, 1395, 1236
355480156, -8758, 13233, 1947, 3583, 1481, -1535, -692, -740, -412, 478, 1162, 1153, 667, 1267, 752, 458, 1395, 1236
355480982, -8758, 13233, 1947, 3583, 1481, -1535, -692, -740, -412, 478, 1162, 1153, 667, 1267, 752, 458, 1395, 1236
355481767, -8758, 13233, 1947, 3583, 1481, -1535, -692, -740, -412, 478, 1162, 1153, 667, 1267, 752, 458, 1395, 1236
355486721, -8758, 13233, 1947, 3583, 1481, -1535, -692, -740, -412, 478, 1162, 1153, 667, 1267, 752, 458, 1395, 1236
355487608, -8758, 13233, 1947, 3583, 1481, -1535, -692, -740, -412, 478, 1162, 1153, 667, 1267, 752, 458, 1395, 1236
355488284, -8758, 13233, 1947, 3583, 1481, -1535, -692, -740, -412, 478, 1162, 1153, 667, 1267, 752, 458, 1395, 1236
355489155, -8758, 13233, 1947, 3583, 1481, -1535, -692, -740, -412, 478, 1162, 1153, 667, 1267, 752, 458, 1395, 1236
355494296, -8758, 13233, 1947, 3583, 1481, -1535, -692, -740, -412, 478, 1162, 1153, 667, 1267, 752, 458, 1395, 1236
355495167, -8543, 13416, 1861, 3464, 939, -1703, -560, -710, -355, 283, 1162, 1153, 667, 1267, 752, 458, 1395, 1236
355495984, -8543, 13416, 1861, 3464, 939, -1703, -560, -710, -355, 283, 1150, 1213, 682, 1158, 697, 447, 1439, 1217
355496787, -8543, 13416, 1861, 3464, 939, -1703, -560, -710, -355, 283, 1150, 1213, 682, 1158, 697, 447, 1439, 1217
355501793, -8543, 13416, 1861, 3464, 939, -1703, -560, -710, -355, 283, 1150, 1213, 682, 1158, 697, 447, 1439, 1217
355502614, -8543, 13416, 1861, 3464, 939, -1703, -560, -710, -355, 283, 1150, 1213, 682, 1158, 697, 447, 1439, 1217
355503435, -8543, 13416, 1861, 3464, 939, -1703, -560, -710, -355, 283, 1150, 1213, 682, 1158, 697, 447, 1439, 1217
355504241, -8543, 13416, 1861, 3464, 939, -1703, -560, -710, -355, 283, 1150, 1213, 682, 1158, 697, 447, 1439, 1217
355509257, -8543, 13416, 1861, 3464, 939, -1703, -560, -710, -355, 283, 1150, 1213, 682, 1158, 697, 447, 1439, 1217
355510052, -8543, 13416, 1861, 3464, 939, -1703, -560, -710, -355, 283, 1150, 1213, 682, 1158, 697, 447, 1439, 1217
355510876, -8543, 13416, 1861, 3464, 939, -1703, -560, -710, -355, 283, 1150, 1213, 682, 1158, 697, 447, 1439, 1217
355511681, -8543, 13416, 1861, 3464, 939, -1703, -560, -710, -355, 283, 1150, 1213, 682, 1158, 697, 447, 1439, 1217
355516765, -8543, 13416, 1861, 3464, 939, -1703, -560, -710, -355, 283, 1150, 1213, 682, 1158, 697, 447, 1439, 1217
355517687, -8464, 13472, 1864, 3437, 1126, -1556, -762, -495, -294, 107, 1150, 1213, 682, 1158, 697, 447, 1439, 1217
355518512, -8464, 13472, 1864, 3437, 1126, -1556, -762, -495, -294, 107, 1148, 1135, 659, 992, 602, 583, 1377, 1245
355519331, -8464, 13472, 1864, 3437, 1126, -1556, -762, -495, -294, 107, 1148, 1135, 659, 992, 602, 583, 1377, 1245
355524333, -8464, 13472, 1864, 3437, 1126, -1556, -762, -495, -294, 107, 1148, 1135, 659, 992, 602, 583, 1377, 1245
355525159, -8464, 13472, 1864, 3437, 1126, -1556, -762, -495, -294, 107, 1148, 1135, 659, 992, 602, 583, 1377, 1245
355525958, -8464, 13472, 1864, 3437, 1126, -1556, -762, -495, -294, 107, 1148, 1135, 659, 992, 602, 583, 1377, 1245
355526782, -8464, 13472, 1864, 3437, 1126, -1556, -762, -495, -294, 107, 1148, 1135, 659, 992, 602, 583, 1377, 1245
355531739, -8464, 13472, 1864, 3437, 1126, -1556, -762, -495, -294, 107, 1148, 1135, 659, 992, 602, 583, 1377, 1245
355532609, -8464, 13472, 1864, 3437, 1126, -1556, -762, -495, -294, 107, 1148, 1135, 659, 992, 602, 583, 1377, 1245
355533310, -8464, 13472, 1864, 3437, 1126, -1556, -762, -495, -294, 107, 1148, 1135, 659, 992, 602, 583, 1377, 1245
355534157, -8464, 13472, 1864, 3437, 1126, -1556, -762, -495, -294, 107, 1148, 1135, 659, 992, 602, 583, 1377, 1245
355539231, -8464, 13472, 1864, 3437, 1126, -1556, -762, -495, -294, 107, 1148, 1135, 659, 992, 602, 583, 1377, 1245
355540185, -8324, 13557, 1872, 3442, 1397, -1434, -948, -783, -247, 82, 1148, 1135, 659, 992, 602, 583, 1377, 1245
355540980, -8324, 13557, 1872, 3442, 1397, -1434, -948, -783, -247, 82, 1104, 1072, 601, 925, 557, 571, 1280, 1170
355541804, -8324, 13557, 1872, 3442, 1397, -1434, -948, -783, -247, 82, 1104, 1072, 601, 925, 557, 571, 1280, 1170
355545256, -8324, 13557, 1872, 3442, 1397, -1434, -948, -783, -247, 82, 1104, 1072, 601, 925, 557, 571, 1280, 1170
355546057, -8324, 13557, 1872, 3442, 1397, -1434, -948, -783, -247, 82, 1104, 1072, 601, 925, 557, 571, 1280, 1170
355554209, -8324, 13557, 1872, 3442, 1397, -1434, -948, -783, -247, 82, 1104, 1072, 601, 925, 557, 571, 1280, 1170
355555008, -8324, 13557, 1872, 3442, 1397, -1434, -948, -783, -247, 82, 1104, 1072, 601, 925, 557, 571, 1280, 1170
355555832, -8324, 13557, 1872, 3442, 1397, -1434, -948, -783, -247, 82, 1104, 1072, 601, 925, 557, 571, 1280, 1170
355556632, -8324, 13557, 1872, 3442, 1397, -1434, -948, -783, -247, 82, 1104, 1072, 601, 925, 557, 571, 1280, 1170
355561708, -8324, 13557, 1872, 3442, 1397, -1434, -948, -783, -247, 82, 1104, 1072, 601, 925, 557, 571, 1280, 1170
355562608, -8324, 13557, 1872, 3442, 1397, -1434, -948, -783, -247, 82, 1104, 1072, 601, 925, 557, 571, 1280, 1170
355563283, -8324, 13557, 1872, 3442, 1397, -1434, -948, -783, -247, 82, 1104, 1072, 601, 925, 557, 571, 1280, 1170
355564258, -8324, 13557, 1872, 3442, 1397, -1434, -948, -783, -247, 82, 978, 1050, 511, 875, 504, 587, 1274, 1109
355569333, -8324, 13557, 1872, 3442, 1397, -1434, -948, -783, -247, 82, 978, 1050, 511, 875, 504, 587, 1274, 1109
355570133, -8324, 13557, 1872, 3442, 1397, -1434, -948, -783, -247, 82, 978, 1050, 511, 875, 504, 587, 1274, 1109
355570955, -8324, 13557, 1872, 3442, 1397, -1434, -948, -783, -247, 82, 978, 1050, 511, 875, 504, 587, 1274, 1109
355571863, -8324, 13557, 1872, 3442, 1397, -1434, -948, -783, -247, 82, 978, 1050, 511, 875, 504, 587, 1274, 1109
355576717, -8324, 13557, 1872, 3442, 1397, -1434, -948, -783, -247, 82, 978, 1050, 511, 875, 504, 587, 1274, 1109
355577604, -8324, 13557, 1872, 3442, 1397, -1434, -948, -783, -247, 82, 978, 1050, 511, 875, 504, 587, 1274, 1109
355578291, -8324, 13557, 1872, 3442, 1397, -1434, -948, -783, -247, 82, 978, 1050, 511, 875, 504, 587, 1274, 1109
355579163, -8324, 13557, 1872, 3442, 1397, -1434, -948, -783, -247, 82, 978, 1050, 511, 875, 504, 587, 1274, 1109
355584237, -8324, 13557, 1872, 3442, 1397, -1434, -948, -783, -247, 82, 978, 1050, 511, 875, 504, 587, 1274, 1109
355585172, -8057, 13707, 1828, 3505, 1233, -1547, -851, -804, 2, 31, 978, 1050, 511, 875, 504, 587, 1274, 1109
355585987, -8057, 13707, 1828, 3505, 1233, -1547, -851, -804, 2, 31, 973, 994, 487, 814, 460, 578, 1247, 978
355586870, -8057, 13707, 1828, 3505, 1233, -1547, -851, -804, 2, 31, 973, 994, 487, 814, 460, 578, 1247, 978
355591814, -8057, 13707, 1828, 3505, 1233, -1547, -851, -804, 2, 31, 973, 994, 487, 814, 460, 578, 1247, 978
355592631, -8057, 13707, 1828, 3505, 1233, -1547, -851, -804, 2, 31, 973, 994, 487, 814, 460, 578, 1247, 978
355593433, -8057, 13707, 1828, 3505, 1233, -1547, -851, -804, 2, 31, 973, 994, 487, 814, 460, 578, 1247, 978
355594253, -8057, 13707, 1828, 3505, 1233, -1547, -851, -804, 2, 31, 973, 994, 487, 814, 460, 578, 1247, 978
355599211, -8057, 13707, 1828, 3505, 1233, -1547, -851, -804, 2, 31, 973, 994, 487, 814, 460, 578, 1247, 978
355600005, -8057, 13707, 1828, 3505, 1233, -1547, -851, -804, 2, 31, 973, 994, 487, 814, 460, 578, 1247, 978
355600828, -8057, 13707, 1828, 3505, 1233, -1547, -851, -804, 2, 31, 973, 994, 487, 814, 460, 578, 1247, 978
355601628, -8057, 13707, 1828, 3505, 1233, -1547, -851, -804, 2, 31, 973, 994, 487, 814, 460, 578, 1247, 978
355607142, -8057, 13707, 1828, 3505, 1233, -1547, -851, -804, 2, 31, 973, 994, 487, 814, 460, 578, 1247, 978
355607740, -7953, 13758, 1813, 3551, 1070, -1458, -913, -638, 114, -76, 973, 994, 487, 814, 460, 578, 1247, 978
355608516, -7953, 13758, 1813, 3551, 1070, -1458, -913, -638, 114, -76, 921, 819, 427, 793, 405, 644, 1061, 851
355609333, -7953, 13758, 1813, 3551, 1070, -1458, -913, -638, 114, -76, 921, 819, 427, 793, 405, 644, 1061, 851
355616224, -7953, 13758, 1813, 3551, 1070, -1458, -913, -638, 114, -76, 921, 819, 427, 793, 405, 644, 1061, 851
355621737, -7953, 13758, 1813, 3551, 1070, -1458, -913, -638, 114, -76, 921, 819, 427, 793, 405, 644, 1061, 851
355622605, -7953, 13758, 1813, 3551, 1070, -1458, -913, -638, 114, -76, 921, 819, 427, 793, 405, 644, 1061, 851
355623306, -7953, 13758, 1813, 3551, 1070, -1458, -913, -638, 114, -76, 921, 819, 427, 793, 405, 644, 1061, 851
355624153, -7953, 13758, 1813, 3551, 1070, -1458, -913, -638, 114, -76, 921, 819, 427, 793, 405, 644, 1061, 851
355629230, -7953, 13758, 1813, 3551, 1070, -1458, -913, -638, 114, -76, 921, 819, 427, 793, 405, 644, 1061, 851
355630050, -7953, 13758, 1813, 3551, 1070, -1458, -913, -638, 114, -76, 921, 819, 427, 793, 405, 644, 1061, 851
355630850, -7953, 13758, 1813, 3551, 1070, -1458, -913, -638, 114, -76, 921, 819, 427, 793, 405, 644, 1061, 851
355631775, -7953, 13758, 1813, 3551, 1070, -1458, -913, -638, 114, -76, 945, 826, 389, 797, 369, 526, 1074, 801
355636779, -7953, 13758, 1813, 3551, 1070, -1458, -913, -638, 114, -76, 945, 826, 389, 797, 369, 526, 1074, 801
355637600, -7953, 13758, 1813, 3551, 1070, -1458, -913, -638, 114, -76, 945, 826, 389, 797, 369, 526, 1074, 801
355638428, -7953, 13758, 1813, 3551, 1070, -1458, -913, -638, 114, -76, 945, 826, 389, 797, 369, 526, 1074, 801
355639225, -7953, 13758, 1813, 3551, 1070, -1458, -913, -638, 114, -76, 945, 826, 389, 797, 369, 526, 1074, 801
355644233, -7953, 13758, 1813, 3551, 1070, -1458, -913, -638, 114, -76, 945, 826, 389, 797, 369, 526, 1074, 801
355645055, -7953, 13758, 1813, 3551, 1070, -1458, -913, -638, 114, -76, 945, 826, 389, 797, 369, 526, 1074, 801
355645879, -7953, 13758, 1813, 3551, 1070, -1458, -913, -638, 114, -76, 945, 826, 389, 797, 369, 526, 1074, 801
355646680, -7953, 13758, 1813, 3551, 1070, -1458, -913, -638, 114, -76, 945, 826, 389, 797, 369, 526, 1074, 801
355650205, -7953, 13758, 1813, 3551, 1070, -1458, -913, -638, 114, -76, 945, 826, 389, 797, 369, 526, 1074, 801
355651132, -7692, 13859, 1813, 3729, 1184, -1460, -1016, -734, 312, -338, 945, 826, 389, 797, 369, 526, 1074, 801
355659347, -7692, 13859, 1813, 3729, 1184, -1460, -1016, -734, 312, -338, 894, 732, 304, 741, 319, 528, 1047, 753
355660127, -7692, 13859, 1813, 3729, 1184, -1460, -1016, -734, 312, -338, 894, 732, 304, 741, 319, 528, 1047, 753
355660950, -7692, 13859, 1813, 3729, 1184, -1460, -1016, -734, 312, -338, 894, 732, 304, 741, 319, 528, 1047, 753
355661750, -7692, 13859, 1813, 3729, 1184, -1460, -1016, -734, 312, -338, 894, 732, 304, 741, 319, 528, 1047, 753
355666039, -7692, 13859, 1813, 3729, 1184, -1460, -1016, -734, 312, -338, 894, 732, 304, 741, 319, 528, 1047, 753
355666853, -7692, 13859, 1813, 3729, 1184, -1460, -1016, -734, 312, -338, 894, 732, 304, 741, 319, 528, 1047, 753
355674230, -7692, 13859, 1813, 3729, 1184, -1460, -1016, -734, 312, -338, 894, 732, 304, 741, 319, 528, 1047, 753
355675026, -7692, 13859, 1813, 3729, 1184, -1460, -1016, -734, 312, -338, 894, 732, 304, 741, 319, 528, 1047, 753
355675996, -7579, 13893, 1816, 3829, 1102, -1435, -1084, -611, 366, -350, 894, 732, 304, 741, 319, 528, 1047, 753
355676777, -7579, 13893, 1816, 3829, 1102, -1435, -1084, -611, 366, -350, 875, 758, 265, 847, 350, 541, 1108, 785
355681801, -7579, 13893, 1816, 3829, 1102, -1435, -1084, -611, 366, -350, 875, 758, 265, 847, 350, 541, 1108, 785
355682601, -7579, 13893, 1816, 3829, 1102, -1435, -1084, -611, 366, -350, 875, 758, 265, 847, 350, 541, 1108, 785
355683438, -7579, 13893, 1816, 3829, 1102, -1435, -1084, -611, 366, -350, 875, 758, 265, 847, 350, 541, 1108, 785
355684236, -7579, 13893, 1816, 3829, 1102, -1435, -1084, -611, 366, -350, 875, 758, 265, 847, 350, 541, 1108, 785
355689247, -7579, 13893, 1816, 3829, 1102, -1435, -1084, -611, 366, -350, 875, 758, 265, 847, 350, 541, 1108, 785
355690059, -7579, 13893, 1816, 3829, 1102, -1435, -1084, -611, 366, -350, 875, 758, 265, 847, 350, 541, 1108, 785
355690883, -7579, 13893, 1816, 3829, 1102, -1435, -1084, -611, 366, -350, 875, 758, 265, 847, 350, 541, 1108, 785
355691684, -7579, 13893, 1816, 3829, 1102, -1435, -1084, -611, 366, -350, 875, 758, 265, 847, 350, 541, 1108, 785
355696760, -7579, 13893, 1816, 3829, 1102, -1435, -1084, -611, 366, -350, 875, 758, 265, 847, 350, 541, 1108, 785
355697705, -7469, 13928, 1820, 3919, 1052, -1455, -1104, -600, 339, -360, 875, 758, 265, 847, 350, 541, 1108, 785
355698509, -7469, 13928, 1820, 3919, 1052, -1455, -1104, -600, 339, -360, 793, 754, 251, 820, 337, 570, 1044, 705
355699327, -7469, 13928, 1820, 3919, 1052, -1455, -1104, -600, 339, -360, 793, 754, 251, 820, 337, 570, 1044, 705
355704329, -7469, 13928, 1820, 3919, 1052, -1455, -1104, -600, 339, -360, 793, 754, 251, 820, 337, 570, 1044, 705
355705154, -7469, 13928, 1820, 3919, 1052, -1455, -1104, -600, 339, -360, 793, 754, 251, 820, 337, 570, 1044, 705
355705953, -7469, 13928, 1820, 3919, 1052, -1455, -1104, -600, 339, -360, 793, 754, 251, 820, 337, 570, 1044, 705
355706788, -7469, 13928, 1820, 3919, 1052, -1455, -1104, -600, 339, -360, 793, 754, 251, 820, 337, 570, 1044, 705
355711740, -7469, 13928, 1820, 3919, 1052, -1455, -1104, -600, 339, -360, 793, 754, 251, 820, 337, 570, 1044, 705
355712612, -7469, 13928, 1820, 3919, 1052, -1455, -1104, -600, 339, -360, 793, 754, 251, 820, 337, 570, 1044, 705
355713315, -7469, 13928, 1820, 3919, 1052, -1455, -1104, -600, 339, -360, 793, 754, 251, 820, 337, 570, 1044, 705
355714186, -7469, 13928, 1820, 3919, 1052, -1455, -1104, -600, 339, -360, 793, 754, 251, 820, 337, 570, 1044, 705
355719237, -7469, 13928, 1820, 3919, 1052, -1455, -1104, -600, 339, -360, 793, 754, 251, 820, 337, 570, 1044, 705
355720186, -7367, 13952, 1830, 4018, 1178, -1472, -1100, -550, 352, -385, 793, 754, 251, 820, 337, 570, 1044, 705
355720983, -7367, 13952, 1830, 4018, 1178, -1472, -1100, -550, 352, -385, 755, 713, 276, 862, 331, 479, 1012, 686
355721809, -7367, 13952, 1830, 4018, 1178, -1472, -1100, -550, 352, -385, 755, 713, 276, 862, 331, 479, 1012, 686
355726812, -7367, 13952, 1830, 4018, 1178, -1472, -1100, -550, 352, -385, 755, 713, 276, 862, 331, 479, 1012, 686
355727635, -7367, 13952, 1830, 4018, 1178, -1472, -1100, -550, 352, -385, 755, 713, 276, 862, 331, 479, 1012, 686
355728436, -7367, 13952, 1830, 4018, 1178, -1472, -1100, -550, 352, -385, 755, 713, 276, 862, 331, 479, 1012, 686
355729258, -7367, 13952, 1830, 4018, 1178, -1472, -1100, -550, 352, -385, 755, 713, 276, 862, 331, 479, 1012, 686
355731989, -7367, 13952, 1830, 4018, 1178, -1472, -1100, -550, 352, -385, 755, 713, 276, 862, 331, 479, 1012, 686
355741769, -7367, 13952, 1830, 4018, 1178, -1472, -1100, -550, 352, -385, 755, 713, 276, 862, 331, 479, 1012, 686
355742612, -7367, 13952, 1830, 4018, 1178, -1472, -1100, -550, 352, -385, 755, 713, 276, 862, 331, 479, 1012, 686
355743399, -7367, 13952, 1830, 4018, 1178, -1472, -1100, -550, 352, -385, 755, 713, 276, 862, 331, 479, 1012, 686
355749360, -7283, 13966, 1854, 4109, 1135, -1483, -1129, -412, 333, -442, 755, 713, 276, 862, 331, 479, 1012, 686
355750179, -7283, 13966, 1854, 4109, 1135, -1483, -1129, -412, 333, -442, 683, 725, 324, 879, 324, 476, 911, 555
355750960, -7283, 13966, 1854, 4109, 1135, -1483, -1129, -412, 333, -442, 683, 725, 324, 879, 324, 476, 911, 555
355751783, -7283, 13966, 1854, 4109, 1135, -1483, -1129, -412, 333, -442, 683, 725, 324, 879, 324, 476, 911, 555
355756733, -7283, 13966, 1854, 4109, 1135, -1483, -1129, -412, 333, -442, 683, 725, 324, 879, 324, 476, 911, 555
355757619, -7283, 13966, 1854, 4109, 1135, -1483, -1129, -412, 333, -442, 683, 725, 324, 879, 324, 476, 911, 555
355758314, -7283, 13966, 1854, 4109, 1135, -1483, -1129, -412, 333, -442, 683, 725, 324, 879, 324, 476, 911, 555
355759185, -7283, 13966, 1854, 4109, 1135, -1483, -1129, -412, 333, -442, 683, 725, 324, 879, 324, 476, 911, 555
355764250, -7283, 13966, 1854, 4109, 1135, -1483, -1129, -412, 333, -442, 683, 725, 324, 879, 324, 476, 911, 555
355765188, -7204, 13984, 1866, 4182, 1045, -1481, -1114, -422, 290, -378, 683, 725, 324, 879, 324, 476, 911, 555
355765984, -7204, 13984, 1866, 4182, 1045, -1481, -1114, -422, 290, -378, 640, 767, 338, 910, 295, 490, 921, 556
355766809, -7204, 13984, 1866, 4182, 1045, -1481, -1114, -422, 290, -378, 640, 767, 338, 910, 295, 490, 921, 556
355771809, -7204, 13984, 1866, 4182, 1045, -1481, -1114, -422, 290, -378, 640, 767, 338, 910, 295, 490, 921, 556
355772634, -7204, 13984, 1866, 4182, 1045, -1481, -1114, -422, 290, -378, 640, 767, 338, 910, 295, 490, 921, 556
355773439, -7204, 13984, 1866, 4182, 1045, -1481, -1114, -422, 290, -378, 640, 767, 338, 910, 295, 490, 921, 556
355774259, -7204, 13984, 1866, 4182, 1045, -1481, -1114, -422, 290, -378, 640, 767, 338, 910, 295, 490, 921, 556
355777700, -7204, 13984, 1866, 4182, 1045, -1481, -1114, -422, 290, -378, 640, 767, 338, 910, 295, 490, 921, 556
355778477, -7204, 13984, 1866, 4182, 1045, -1481, -1114, -422, 290, -378, 640, 767, 338, 910, 295, 490, 921, 556
355786713, -7204, 13984, 1866, 4182, 1045, -1481, -1114, -422, 290, -378, 640, 767, 338, 910, 295, 490, 921, 556
355787609, -7204, 13984, 1866, 4182, 1045, -1481, -1114, -422, 290, -378, 640, 767, 338, 910, 295, 490, 921, 556
355788286, -7204, 13984, 1866, 4182, 1045, -1481, -1114, -422, 290, -378, 640, 767, 338, 910, 295, 490, 921, 556
355789285, -7128, 13997, 1888, 4260, 1236, -1520, -1087, -412, 248, -386, 640, 767, 338, 910, 295, 490, 921, 556
355794283, -7128, 13997, 1888, 4260, 1236, -1520, -1087, -412, 248, -386, 666, 642, 333, 808, 252, 439, 941, 582
355795108, -7128, 13997, 1888, 4260, 1236, -1520, -1087, -412, 248, -386, 666, 642, 333, 808, 252, 439, 941, 582
355795907, -7128, 13997, 1888, 4260, 1236, -1520, -1087, -412, 248, -386, 666, 642, 333, 808, 252, 439, 941, 582
355796732, -7128, 13997, 1888, 4260, 1236, -1520, -1087, -412, 248, -386, 666, 642, 333, 808, 252, 439, 941, 582
355801730, -7128, 13997, 1888, 4260, 1236, -1520, -1087, -412, 248, -386, 666, 642, 333, 808, 252, 439, 941, 582
355802605, -7128, 13997, 1888, 4260, 1236, -1520, -1087, -412, 248, -386, 666, 642, 333, 808, 252, 439, 941, 582
355803361, -7128, 13997, 1888, 4260, 1236, -1520, -1087, -412, 248, -386, 666, 642, 333, 808, 252, 439, 941, 582
355804183, -7128, 13997, 1888, 4260, 1236, -1520, -1087, -412, 248, -386, 666, 642, 333, 808, 252, 439, 941, 582
355809301, -7128, 13997, 1888, 4260, 1236, -1520, -1087, -412, 248, -386, 666, 642, 333, 808, 252, 439, 941, 582
355810221, -7079, 13995, 1918, 4333, 1310, -1539, -1098, -235, 230, -375, 666, 642, 333, 808, 252, 439, 941, 582
355811044, -7079, 13995, 1918, 4333, 1310, -1539, -1098, -235, 230, -375, 613, 596, 333, 829, 258, 400, 894, 593
355811839, -7079, 13995, 1918, 4333, 1310, -1539, -1098, -235, 230, -375, 613, 596, 333, 829, 258, 400, 894, 593
