Timestamp, Orientation x, Orientation y, Orientation z, Orientation w, Acceleration x, Acceleration y, Acceleration z, Rotation x, Rotation y, Rotation z, EMG 0, EMG 1, EMG 2, EMG 3, EMG 4, EMG 5, EMG 6, EMG 7
160709450, -10000, 8649, 8474, 4670, 2237, -878, -223, 267, 9, 18, 0, 0, 0, 0, 0, 0, 0, 0
160710240, -10023, 8629, 8476, 4655, 2144, -767, -240, 188, 66, 42, 0, 0, 0, 0, 0, 0, 0, 0
160711061, -10026, 8636, 8461, 4663, 2139, -847, -251, -56, 94, 23, 0, 0, 0, 0, 0, 0, 0, 0
160738017, -10027, 8647, 8443, 4672, 2179, -917, -260, -82, 103, 8, 0, 0, 0, 0, 0, 0, 0, 0
160753146, -10050, 8633, 8435, 4663, 2188, -948, -238, 132, 107, -12, 0, 0, 0, 0, 0, 0, 0, 0
160776644, -10099, 8591, 8427, 4650, 2289, -955, -141, 296, 167, -15, 0, 0, 0, 0, 0, 0, 0, 0
160783666, -10099, 8591, 8427, 4650, 2289, -955, -141, 296, 167, -15, 36, 140, 198, 288, 228, 73, 31, 48
160784456, -10099, 8591, 8427, 4650, 2289, -955, -141, 296, 167, -15, 36, 140, 198, 288, 228, 73, 31, 48
160792653, -10159, 8534, 8418, 4640, 2251, -861, -137, 380, 246, -15, 36, 140, 198, 288, 228, 73, 31, 48
160793456, -10159, 8534, 8418, 4640, 2251, -861, -137, 380, 246, -15, 37, 129, 231, 302, 243, 74, 34, 29
160794276, -10159, 8534, 8418, 4640, 2251, -861, -137, 380, 246, -15, 37, 129, 231, 302, 243, 74, 34, 29
160795100, -10159, 8534, 8418, 4640, 2251, -861, -137, 380, 246, -15, 37, 129, 231, 302, 243, 74, 34, 29
160799325, -10159, 8534, 8418, 4640, 2251, -861, -137, 380, 246, -15, 37, 129, 231, 302, 243, 74, 34, 29
160800125, -10159, 8534, 8418, 4640, 2251, -861, -137, 380, 246, -15, 37, 129, 231, 302, 243, 74, 34, 29
160800950, -10159, 8534, 8418, 4640, 2251, -861, -137, 380, 246, -15, 37, 129, 231, 302, 243, 74, 34, 29
160814403, -10204, 8492, 8408, 4637, 2142, -729, -153, 271, 226, 36, 37, 129, 231, 302, 243, 74, 34, 29
160815184, -10204, 8492, 8408, 4637, 2142, -729, -153, 271, 226, 36, 39, 123, 232, 282, 301, 85, 37, 29
160816006, -10204, 8492, 8408, 4637, 2142, -729, -153, 271, 226, 36, 39, 123, 232, 282, 301, 85, 37, 29
160828063, -10216, 8492, 8387, 4646, 2170, -755, -184, -9, 151, 89, 39, 123, 232, 282, 301, 85, 37, 29
160836159, -10216, 8492, 8387, 4646, 2170, -755, -184, -9, 151, 89, 35, 133, 239, 415, 312, 85, 35, 24
160836957, -10216, 8492, 8387, 4646, 2170, -755, -184, -9, 151, 89, 35, 133, 239, 415, 312, 85, 35, 24
160859337, -10218, 8507, 8372, 4643, 2137, -829, -267, -43, 92, 92, 35, 133, 239, 415, 312, 85, 35, 24
160860158, -10218, 8507, 8372, 4643, 2137, -829, -267, -43, 92, 92, 32, 144, 265, 452, 329, 86, 37, 23
160860955, -10218, 8507, 8372, 4643, 2137, -829, -267, -43, 92, 92, 32, 144, 265, 452, 329, 86, 37, 23
160874402, -10236, 8500, 8366, 4627, 2186, -876, -210, 129, 72, 69, 32, 144, 265, 452, 329, 86, 37, 23
160875207, -10236, 8500, 8366, 4627, 2186, -876, -210, 129, 72, 69, 34, 140, 277, 451, 320, 83, 39, 25
160876004, -10236, 8500, 8366, 4627, 2186, -876, -210, 129, 72, 69, 34, 140, 277, 451, 320, 83, 39, 25
160888058, -10273, 8470, 8364, 4603, 2173, -829, -137, 278, 94, 70, 34, 140, 277, 451, 320, 83, 39, 25
160896154, -10273, 8470, 8364, 4603, 2173, -829, -137, 278, 94, 70, 36, 141, 369, 501, 334, 90, 37, 28
160896978, -10273, 8470, 8364, 4603, 2173, -829, -137, 278, 94, 70, 36, 141, 369, 501, 334, 90, 37, 28
160912416, -10303, 8438, 8372, 4579, 2071, -742, -221, 302, 90, 48, 36, 141, 369, 501, 334, 90, 37, 28
160913229, -10303, 8438, 8372, 4579, 2071, -742, -221, 302, 90, 48, 44, 143, 433, 619, 329, 105, 38, 29
160914054, -10303, 8438, 8372, 4579, 2071, -742, -221, 302, 90, 48, 44, 143, 433, 619, 329, 105, 38, 29
160934368, -10325, 8422, 8375, 4555, 1955, -749, -191, 210, 50, 70, 44, 143, 433, 619, 329, 105, 38, 29
160935190, -10325, 8422, 8375, 4555, 1955, -749, -191, 210, 50, 70, 45, 130, 482, 572, 316, 114, 37, 30
160935976, -10325, 8422, 8375, 4555, 1955, -749, -191, 210, 50, 70, 45, 130, 482, 572, 316, 114, 37, 30
160948031, -10341, 8412, 8379, 4528, 1884, -803, -136, 169, -10, 50, 45, 130, 482, 572, 316, 114, 37, 30
160956127, -10341, 8412, 8379, 4528, 1884, -803, -136, 169, -10, 50, 50, 142, 537, 675, 356, 136, 39, 31
160956950, -10341, 8412, 8379, 4528, 1884, -803, -136, 169, -10, 50, 50, 142, 537, 675, 356, 136, 39, 31
160980340, -10370, 8389, 8388, 4489, 1949, -871, -123, 292, -14, 40, 50, 142, 537, 675, 356, 136, 39, 31
160980347, -10370, 8389, 8388, 4489, 1949, -871, -123, 292, -14, 40, 53, 170, 703, 714, 364, 146, 38, 33
160981086, -10370, 8389, 8388, 4489, 1949, -871, -123, 292, -14, 40, 53, 170, 703, 714, 364, 146, 38, 33
160994406, -10416, 8343, 8401, 4443, 1943, -756, -143, 459, 44, 74, 53, 170, 703, 714, 364, 146, 38, 33
160995186, -10416, 8343, 8401, 4443, 1943, -756, -143, 459, 44, 74, 57, 175, 786, 745, 345, 147, 41, 33
160996010, -10416, 8343, 8401, 4443, 1943, -756, -143, 459, 44, 74, 57, 175, 786, 745, 345, 147, 41, 33
161008067, -10464, 8300, 8411, 4390, 1840, -698, -135, 467, 46, 130, 57, 175, 786, 745, 345, 147, 41, 33
161015890, -10464, 8300, 8411, 4390, 1840, -698, -135, 467, 46, 130, 87, 286, 911, 790, 368, 180, 83, 45
161022978, -10464, 8300, 8411, 4390, 1840, -698, -135, 467, 46, 130, 87, 286, 911, 790, 368, 180, 83, 45
161031255, -10509, 8262, 8422, 4334, 1793, -713, -137, 454, 21, 132, 87, 286, 911, 790, 368, 180, 83, 45
161032080, -10509, 8262, 8422, 4334, 1793, -713, -137, 454, 21, 132, 128, 303, 957, 989, 380, 192, 104, 58
161039303, -10509, 8262, 8422, 4334, 1793, -713, -137, 454, 21, 132, 128, 303, 957, 989, 380, 192, 104, 58
161040127, -10509, 8262, 8422, 4334, 1793, -713, -137, 454, 21, 132, 128, 303, 957, 989, 380, 192, 104, 58
161040950, -10509, 8262, 8422, 4334, 1793, -713, -137, 454, 21, 132, 128, 303, 957, 989, 380, 192, 104, 58
161060932, -10568, 8211, 8431, 4271, 1775, -724, -49, 539, 26, 144, 128, 303, 957, 989, 380, 192, 104, 58
161069338, -10568, 8211, 8431, 4271, 1775, -724, -49, 539, 26, 144, 282, 327, 1023, 1216, 369, 236, 259, 89
161070156, -10568, 8211, 8431, 4271, 1775, -724, -49, 539, 26, 144, 282, 327, 1023, 1216, 369, 236, 259, 89
161071115, -10631, 8142, 8446, 4215, 1841, -660, 43, 592, 23, 99, 282, 327, 1023, 1216, 369, 236, 259, 89
161078254, -10631, 8142, 8446, 4215, 1841, -660, 43, 592, 23, 99, 388, 395, 972, 1313, 409, 364, 377, 131
161079031, -10631, 8142, 8446, 4215, 1841, -660, 43, 592, 23, 99, 388, 395, 972, 1313, 409, 364, 377, 131
161079854, -10631, 8142, 8446, 4215, 1841, -660, 43, 592, 23, 99, 388, 395, 972, 1313, 409, 364, 377, 131
161080653, -10631, 8142, 8446, 4215, 1841, -660, 43, 592, 23, 99, 388, 395, 972, 1313, 409, 364, 377, 131
161100508, -10631, 8142, 8446, 4215, 1841, -660, 43, 592, 23, 99, 388, 395, 972, 1313, 409, 364, 377, 131
161101329, -10631, 8142, 8446, 4215, 1841, -660, 43, 592, 23, 99, 388, 395, 972, 1313, 409, 364, 377, 131
161102154, -10631, 8142, 8446, 4215, 1841, -660, 43, 592, 23, 99, 388, 395, 972, 1313, 409, 364, 377, 131
161102953, -10631, 8142, 8446, 4215, 1841, -660, 43, 592, 23, 99, 388, 395, 972, 1313, 409, 364, 377, 131
161110561, -10675, 8090, 8459, 4181, 2091, -746, 41, 411, 16, 58, 388, 395, 972, 1313, 409, 364, 377, 131
161110567, -10675, 8090, 8459, 4181, 2091, -746, 41, 411, 16, 58, 470, 461, 1029, 1386, 477, 576, 547, 225
161110571, -10675, 8090, 8459, 4181, 2091, -746, 41, 411, 16, 58, 470, 461, 1029, 1386, 477, 576, 547, 225
161110725, -10675, 8090, 8459, 4181, 2091, -746, 41, 411, 16, 58, 470, 461, 1029, 1386, 477, 576, 547, 225
161115661, -10675, 8090, 8459, 4181, 2091, -746, 41, 411, 16, 58, 470, 461, 1029, 1386, 477, 576, 547, 225
161116478, -10675, 8090, 8459, 4181, 2091, -746, 41, 411, 16, 58, 470, 461, 1029, 1386, 477, 576, 547, 225
161117275, -10675, 8090, 8459, 4181, 2091, -746, 41, 411, 16, 58, 470, 461, 1029, 1386, 477, 576, 547, 225
161118100, -10675, 8090, 8459, 4181, 2091, -746, 41, 411, 16, 58, 470, 461, 1029, 1386, 477, 576, 547, 225
161123179, -10675, 8090, 8459, 4181, 2091, -746, 41, 411, 16, 58, 470, 461, 1029, 1386, 477, 576, 547, 225
161124105, -10734, 8038, 8461, 4123, 1957, -717, 72, 501, 22, 189, 470, 461, 1029, 1386, 477, 576, 547, 225
161124926, -10734, 8038, 8461, 4123, 1957, -717, 72, 501, 22, 189, 580, 464, 999, 1403, 438, 638, 596, 329
161125728, -10734, 8038, 8461, 4123, 1957, -717, 72, 501, 22, 189, 580, 464, 999, 1403, 438, 638, 596, 329
161145729, -10734, 8038, 8461, 4123, 1957, -717, 72, 501, 22, 189, 580, 464, 999, 1403, 438, 638, 596, 329
161146601, -10734, 8038, 8461, 4123, 1957, -717, 72, 501, 22, 189, 580, 464, 999, 1403, 438, 638, 596, 329
161147354, -10734, 8038, 8461, 4123, 1957, -717, 72, 501, 22, 189, 580, 464, 999, 1403, 438, 638, 596, 329
161148174, -10734, 8038, 8461, 4123, 1957, -717, 72, 501, 22, 189, 580, 464, 999, 1403, 438, 638, 596, 329
161153143, -10734, 8038, 8461, 4123, 1957, -717, 72, 501, 22, 189, 580, 464, 999, 1403, 438, 638, 596, 329
161153955, -10734, 8038, 8461, 4123, 1957, -717, 72, 501, 22, 189, 580, 464, 999, 1403, 438, 638, 596, 329
161154751, -10734, 8038, 8461, 4123, 1957, -717, 72, 501, 22, 189, 580, 464, 999, 1403, 438, 638, 596, 329
161155600, -10734, 8038, 8461, 4123, 1957, -717, 72, 501, 22, 189, 580, 464, 999, 1403, 438, 638, 596, 329
161160753, -10734, 8038, 8461, 4123, 1957, -717, 72, 501, 22, 189, 686, 512, 1109, 1367, 443, 712, 620, 355
161161599, -10734, 8038, 8461, 4123, 1957, -717, 72, 501, 22, 189, 686, 512, 1109, 1367, 443, 712, 620, 355
161162378, -10734, 8038, 8461, 4123, 1957, -717, 72, 501, 22, 189, 686, 512, 1109, 1367, 443, 712, 620, 355
161163200, -10734, 8038, 8461, 4123, 1957, -717, 72, 501, 22, 189, 686, 512, 1109, 1367, 443, 712, 620, 355
161168171, -10734, 8038, 8461, 4123, 1957, -717, 72, 501, 22, 189, 686, 512, 1109, 1367, 443, 712, 620, 355
161168953, -10734, 8038, 8461, 4123, 1957, -717, 72, 501, 22, 189, 686, 512, 1109, 1367, 443, 712, 620, 355
161169777, -10734, 8038, 8461, 4123, 1957, -717, 72, 501, 22, 189, 686, 512, 1109, 1367, 443, 712, 620, 355
161170600, -10734, 8038, 8461, 4123, 1957, -717, 72, 501, 22, 189, 686, 512, 1109, 1367, 443, 712, 620, 355
161183145, -10734, 8038, 8461, 4123, 1957, -717, 72, 501, 22, 189, 686, 512, 1109, 1367, 443, 712, 620, 355
161184083, -10844, 7977, 8430, 4016, 1628, -588, -98, 380, 54, 226, 686, 512, 1109, 1367, 443, 712, 620, 355
161184879, -10844, 7977, 8430, 4016, 1628, -588, -98, 380, 54, 226, 722, 563, 1135, 1209, 509, 726, 582, 420
161185703, -10844, 7977, 8430, 4016, 1628, -588, -98, 380, 54, 226, 722, 563, 1135, 1209, 509, 726, 582, 420
161190707, -10844, 7977, 8430, 4016, 1628, -588, -98, 380, 54, 226, 722, 563, 1135, 1209, 509, 726, 582, 420
161191605, -10844, 7977, 8430, 4016, 1628, -588, -98, 380, 54, 226, 722, 563, 1135, 1209, 509, 726, 582, 420
161192282, -10844, 7977, 8430, 4016, 1628, -588, -98, 380, 54, 226, 722, 563, 1135, 1209, 509, 726, 582, 420
161193159, -10844, 7977, 8430, 4016, 1628, -588, -98, 380, 54, 226, 722, 563, 1135, 1209, 509, 726, 582, 420
161198156, -10844, 7977, 8430, 4016, 1628, -588, -98, 380, 54, 226, 722, 563, 1135, 1209, 509, 726, 582, 420
161198979, -10844, 7977, 8430, 4016, 1628, -588, -98, 380, 54, 226, 722, 563, 1135, 1209, 509, 726, 582, 420
161199778, -10844, 7977, 8430, 4016, 1628, -588, -98, 380, 54, 226, 722, 563, 1135, 1209, 509, 726, 582, 420
161200605, -10844, 7977, 8430, 4016, 1628, -588, -98, 380, 54, 226, 722, 563, 1135, 1209, 509, 726, 582, 420
161217886, -10919, 7888, 8442, 3964, 1882, -830, 80, 681, 116, -6, 722, 563, 1135, 1209, 509, 726, 582, 420
161217891, -10919, 7888, 8442, 3964, 1882, -830, 80, 681, 116, -6, 677, 551, 1144, 1244, 514, 719, 568, 425
161217895, -10919, 7888, 8442, 3964, 1882, -830, 80, 681, 116, -6, 677, 551, 1144, 1244, 514, 719, 568, 425
161217898, -10919, 7888, 8442, 3964, 1882, -830, 80, 681, 116, -6, 677, 551, 1144, 1244, 514, 719, 568, 425
161217901, -10919, 7888, 8442, 3964, 1882, -830, 80, 681, 116, -6, 677, 551, 1144, 1244, 514, 719, 568, 425
161217904, -10919, 7888, 8442, 3964, 1882, -830, 80, 681, 116, -6, 677, 551, 1144, 1244, 514, 719, 568, 425
161217908, -10919, 7888, 8442, 3964, 1882, -830, 80, 681, 116, -6, 677, 551, 1144, 1244, 514, 719, 568, 425
161217911, -10919, 7888, 8442, 3964, 1882, -830, 80, 681, 116, -6, 677, 551, 1144, 1244, 514, 719, 568, 425
161220683, -10919, 7888, 8442, 3964, 1882, -830, 80, 681, 116, -6, 677, 551, 1144, 1244, 514, 719, 568, 425
161221682, -10982, 7784, 8480, 3916, 1962, -588, -19, 759, 71, -15, 677, 551, 1144, 1244, 514, 719, 568, 425
161222439, -10982, 7784, 8480, 3916, 1962, -588, -19, 759, 71, -15, 677, 531, 1074, 1267, 494, 638, 454, 398
161225831, -10982, 7784, 8480, 3916, 1962, -588, -19, 759, 71, -15, 677, 531, 1074, 1267, 494, 638, 454, 398
161228262, -10982, 7784, 8480, 3916, 1962, -588, -19, 759, 71, -15, 677, 531, 1074, 1267, 494, 638, 454, 398
161229076, -10982, 7784, 8480, 3916, 1962, -588, -19, 759, 71, -15, 677, 531, 1074, 1267, 494, 638, 454, 398
161229856, -10982, 7784, 8480, 3916, 1962, -588, -19, 759, 71, -15, 677, 531, 1074, 1267, 494, 638, 454, 398
161230667, -10982, 7784, 8480, 3916, 1962, -588, -19, 759, 71, -15, 677, 531, 1074, 1267, 494, 638, 454, 398
161235720, -10982, 7784, 8480, 3916, 1962, -588, -19, 759, 71, -15, 677, 531, 1074, 1267, 494, 638, 454, 398
161236439, -10982, 7784, 8480, 3916, 1962, -588, -19, 759, 71, -15, 677, 531, 1074, 1267, 494, 638, 454, 398
161237236, -10982, 7784, 8480, 3916, 1962, -588, -19, 759, 71, -15, 677, 531, 1074, 1267, 494, 638, 454, 398
161238051, -10982, 7784, 8480, 3916, 1962, -588, -19, 759, 71, -15, 677, 531, 1074, 1267, 494, 638, 454, 398
161243219, -10982, 7784, 8480, 3916, 1962, -588, -19, 759, 71, -15, 677, 531, 1074, 1267, 494, 638, 454, 398
161244109, -11028, 7699, 8512, 3883, 2114, -557, 58, 572, 34, 23, 677, 531, 1074, 1267, 494, 638, 454, 398
161244927, -11028, 7699, 8512, 3883, 2114, -557, 58, 572, 34, 23, 629, 511, 1108, 1270, 498, 579, 399, 333
161245726, -11028, 7699, 8512, 3883, 2114, -557, 58, 572, 34, 23, 629, 511, 1108, 1270, 498, 579, 399, 333
161249179, -11028, 7699, 8512, 3883, 2114, -557, 58, 572, 34, 23, 629, 511, 1108, 1270, 498, 579, 399, 333
161250011, -11028, 7699, 8512, 3883, 2114, -557, 58, 572, 34, 23, 629, 511, 1108, 1270, 498, 579, 399, 333
161265622, -11028, 7699, 8512, 3883, 2114, -557, 58, 572, 34, 23, 629, 511, 1108, 1270, 498, 579, 399, 333
161266440, -11028, 7699, 8512, 3883, 2114, -557, 58, 572, 34, 23, 629, 511, 1108, 1270, 498, 579, 399, 333
161267234, -11028, 7699, 8512, 3883, 2114, -557, 58, 572, 34, 23, 629, 511, 1108, 1270, 498, 579, 399, 333
161268056, -11028, 7699, 8512, 3883, 2114, -557, 58, 572, 34, 23, 629, 511, 1108, 1270, 498, 579, 399, 333
161273111, -11028, 7699, 8512, 3883, 2114, -557, 58, 572, 34, 23, 629, 511, 1108, 1270, 498, 579, 399, 333
161273975, -11028, 7699, 8512, 3883, 2114, -557, 58, 572, 34, 23, 629, 511, 1108, 1270, 498, 579, 399, 333
161274787, -11028, 7699, 8512, 3883, 2114, -557, 58, 572, 34, 23, 629, 511, 1108, 1270, 498, 579, 399, 333
161275688, -11028, 7699, 8512, 3883, 2114, -557, 58, 572, 34, 23, 520, 511, 1058, 1241, 484, 483, 379, 327
161288254, -11028, 7699, 8512, 3883, 2114, -557, 58, 572, 34, 23, 520, 511, 1058, 1241, 484, 483, 379, 327
161289059, -11028, 7699, 8512, 3883, 2114, -557, 58, 572, 34, 23, 520, 511, 1058, 1241, 484, 483, 379, 327
161289884, -11028, 7699, 8512, 3883, 2114, -557, 58, 572, 34, 23, 520, 511, 1058, 1241, 484, 483, 379, 327
161290680, -11028, 7699, 8512, 3883, 2114, -557, 58, 572, 34, 23, 520, 511, 1058, 1241, 484, 483, 379, 327
161295630, -11028, 7699, 8512, 3883, 2114, -557, 58, 572, 34, 23, 520, 511, 1058, 1241, 484, 483, 379, 327
161296455, -11028, 7699, 8512, 3883, 2114, -557, 58, 572, 34, 23, 520, 511, 1058, 1241, 484, 483, 379, 327
161297250, -11028, 7699, 8512, 3883, 2114, -557, 58, 572, 34, 23, 520, 511, 1058, 1241, 484, 483, 379, 327
161298075, -11028, 7699, 8512, 3883, 2114, -557, 58, 572, 34, 23, 520, 511, 1058, 1241, 484, 483, 379, 327
161303268, -11028, 7699, 8512, 3883, 2114, -557, 58, 572, 34, 23, 426, 505, 1116, 1312, 438, 513, 456, 243
161304080, -11028, 7699, 8512, 3883, 2114, -557, 58, 572, 34, 23, 426, 505, 1116, 1312, 438, 513, 456, 243
161304880, -11028, 7699, 8512, 3883, 2114, -557, 58, 572, 34, 23, 426, 505, 1116, 1312, 438, 513, 456, 243
161305704, -11028, 7699, 8512, 3883, 2114, -557, 58, 572, 34, 23, 426, 505, 1116, 1312, 438, 513, 456, 243
161310677, -11028, 7699, 8512, 3883, 2114, -557, 58, 572, 34, 23, 426, 505, 1116, 1312, 438, 513, 456, 243
161311465, -11028, 7699, 8512, 3883, 2114, -557, 58, 572, 34, 23, 426, 505, 1116, 1312, 438, 513, 456, 243
161312286, -11028, 7699, 8512, 3883, 2114, -557, 58, 572, 34, 23, 426, 505, 1116, 1312, 438, 513, 456, 243
161313085, -11028, 7699, 8512, 3883, 2114, -557, 58, 572, 34, 23, 426, 505, 1116, 1312, 438, 513, 456, 243
161318181, -11028, 7699, 8512, 3883, 2114, -557, 58, 572, 34, 23, 426, 505, 1116, 1312, 438, 513, 456, 243
161319114, -11175, 7517, 8512, 3820, 2061, -672, 163, 419, 184, 48, 426, 505, 1116, 1312, 438, 513, 456, 243
161319918, -11175, 7517, 8512, 3820, 2061, -672, 163, 419, 184, 48, 452, 539, 1124, 1282, 422, 459, 404, 222
161321961, -11175, 7517, 8512, 3820, 2061, -672, 163, 419, 184, 48, 452, 539, 1124, 1282, 422, 459, 404, 222
161325771, -11175, 7517, 8512, 3820, 2061, -672, 163, 419, 184, 48, 452, 539, 1124, 1282, 422, 459, 404, 222
161326624, -11175, 7517, 8512, 3820, 2061, -672, 163, 419, 184, 48, 452, 539, 1124, 1282, 422, 459, 404, 222
161327368, -11175, 7517, 8512, 3820, 2061, -672, 163, 419, 184, 48, 452, 539, 1124, 1282, 422, 459, 404, 222
161328184, -11175, 7517, 8512, 3820, 2061, -672, 163, 419, 184, 48, 452, 539, 1124, 1282, 422, 459, 404, 222
161333406, -11175, 7517, 8512, 3820, 2061, -672, 163, 419, 184, 48, 452, 539, 1124, 1282, 422, 459, 404, 222
161333948, -11175, 7517, 8512, 3820, 2061, -672, 163, 419, 184, 48, 452, 539, 1124, 1282, 422, 459, 404, 222
161334760, -11175, 7517, 8512, 3820, 2061, -672, 163, 419, 184, 48, 452, 539, 1124, 1282, 422, 459, 404, 222
161339664, -11175, 7517, 8512, 3820, 2061, -672, 163, 419, 184, 48, 452, 539, 1124, 1282, 422, 459, 404, 222
161340651, -11175, 7517, 8512, 3820, 2061, -672, 163, 419, 184, 48, 452, 539, 1124, 1282, 422, 459, 404, 222
161341610, -11224, 7442, 8520, 3804, 1968, -555, 116, 460, 158, 16, 452, 539, 1124, 1282, 422, 459, 404, 222
161342387, -11224, 7442, 8520, 3804, 1968, -555, 116, 460, 158, 16, 377, 522, 1150, 1224, 386, 371, 359, 204
161343211, -11224, 7442, 8520, 3804, 1968, -555, 116, 460, 158, 16, 377, 522, 1150, 1224, 386, 371, 359, 204
161348219, -11224, 7442, 8520, 3804, 1968, -555, 116, 460, 158, 16, 377, 522, 1150, 1224, 386, 371, 359, 204
161349035, -11224, 7442, 8520, 3804, 1968, -555, 116, 460, 158, 16, 377, 522, 1150, 1224, 386, 371, 359, 204
161349840, -11224, 7442, 8520, 3804, 1968, -555, 116, 460, 158, 16, 377, 522, 1150, 1224, 386, 371, 359, 204
161350664, -11224, 7442, 8520, 3804, 1968, -555, 116, 460, 158, 16, 377, 522, 1150, 1224, 386, 371, 359, 204
161358589, -11224, 7442, 8520, 3804, 1968, -555, 116, 460, 158, 16, 377, 522, 1150, 1224, 386, 371, 359, 204
161358595, -11224, 7442, 8520, 3804, 1968, -555, 116, 460, 158, 16, 377, 522, 1150, 1224, 386, 371, 359, 204
161358598, -11224, 7442, 8520, 3804, 1968, -555, 116, 460, 158, 16, 377, 522, 1150, 1224, 386, 371, 359, 204
161358601, -11224, 7442, 8520, 3804, 1968, -555, 116, 460, 158, 16, 377, 522, 1150, 1224, 386, 371, 359, 204
161363222, -11224, 7442, 8520, 3804, 1968, -555, 116, 460, 158, 16, 377, 522, 1150, 1224, 386, 371, 359, 204
161364124, -11251, 7384, 8540, 3794, 1881, -519, 94, 341, 58, -24, 377, 522, 1150, 1224, 386, 371, 359, 204
161364934, -11251, 7384, 8540, 3794, 1881, -519, 94, 341, 58, -24, 301, 539, 1121, 1221, 377, 355, 342, 175
161365729, -11251, 7384, 8540, 3794, 1881, -519, 94, 341, 58, -24, 301, 539, 1121, 1221, 377, 355, 342, 175
161369181, -11251, 7384, 8540, 3794, 1881, -519, 94, 341, 58, -24, 301, 539, 1121, 1221, 377, 355, 342, 175
161385618, -11251, 7384, 8540, 3794, 1881, -519, 94, 341, 58, -24, 301, 539, 1121, 1221, 377, 355, 342, 175
161386433, -11251, 7384, 8540, 3794, 1881, -519, 94, 341, 58, -24, 301, 539, 1121, 1221, 377, 355, 342, 175
161387229, -11251, 7384, 8540, 3794, 1881, -519, 94, 341, 58, -24, 301, 539, 1121, 1221, 377, 355, 342, 175
161388054, -11251, 7384, 8540, 3794, 1881, -519, 94, 341, 58, -24, 301, 539, 1121, 1221, 377, 355, 342, 175
161393122, -11251, 7384, 8540, 3794, 1881, -519, 94, 341, 58, -24, 301, 539, 1121, 1221, 377, 355, 342, 175
161393934, -11251, 7384, 8540, 3794, 1881, -519, 94, 341, 58, -24, 301, 539, 1121, 1221, 377, 355, 342, 175
161394759, -11251, 7384, 8540, 3794, 1881, -519, 94, 341, 58, -24, 301, 539, 1121, 1221, 377, 355, 342, 175
161395683, -11251, 7384, 8540, 3794, 1881, -519, 94, 341, 58, -24, 279, 517, 1059, 1310, 394, 373, 328, 140
161405192, -11251, 7384, 8540, 3794, 1881, -519, 94, 341, 58, -24, 279, 517, 1059, 1310, 394, 373, 328, 140
161405197, -11251, 7384, 8540, 3794, 1881, -519, 94, 341, 58, -24, 279, 517, 1059, 1310, 394, 373, 328, 140
161405200, -11251, 7384, 8540, 3794, 1881, -519, 94, 341, 58, -24, 279, 517, 1059, 1310, 394, 373, 328, 140
161405204, -11251, 7384, 8540, 3794, 1881, -519, 94, 341, 58, -24, 279, 517, 1059, 1310, 394, 373, 328, 140
161408784, -11251, 7384, 8540, 3794, 1881, -519, 94, 341, 58, -24, 279, 517, 1059, 1310, 394, 373, 328, 140
161408963, -11251, 7384, 8540, 3794, 1881, -519, 94, 341, 58, -24, 279, 517, 1059, 1310, 394, 373, 328, 140
161409753, -11251, 7384, 8540, 3794, 1881, -519, 94, 341, 58, -24, 279, 517, 1059, 1310, 394, 373, 328, 140
161410601, -11251, 7384, 8540, 3794, 1881, -519, 94, 341, 58, -24, 279, 517, 1059, 1310, 394, 373, 328, 140
161423216, -11251, 7384, 8540, 3794, 1881, -519, 94, 341, 58, -24, 279, 517, 1059, 1310, 394, 373, 328, 140
161424124, -11237, 7262, 8646, 3832, 2053, -447, 74, 203, -118, -281, 279, 517, 1059, 1310, 394, 373, 328, 140
161424941, -11237, 7262, 8646, 3832, 2053, -447, 74, 203, -118, -281, 247, 457, 959, 1207, 352, 316, 217, 121
161425739, -11237, 7262, 8646, 3832, 2053, -447, 74, 203, -118, -281, 247, 457, 959, 1207, 352, 316, 217, 121
161431553, -11237, 7262, 8646, 3832, 2053, -447, 74, 203, -118, -281, 247, 457, 959, 1207, 352, 316, 217, 121
161431625, -11237, 7262, 8646, 3832, 2053, -447, 74, 203, -118, -281, 247, 457, 959, 1207, 352, 316, 217, 121
161432388, -11237, 7262, 8646, 3832, 2053, -447, 74, 203, -118, -281, 247, 457, 959, 1207, 352, 316, 217, 121
161433208, -11237, 7262, 8646, 3832, 2053, -447, 74, 203, -118, -281, 247, 457, 959, 1207, 352, 316, 217, 121
161438134, -11237, 7262, 8646, 3832, 2053, -447, 74, 203, -118, -281, 247, 457, 959, 1207, 352, 316, 217, 121
161438956, -11237, 7262, 8646, 3832, 2053, -447, 74, 203, -118, -281, 247, 457, 959, 1207, 352, 316, 217, 121
161439783, -11237, 7262, 8646, 3832, 2053, -447, 74, 203, -118, -281, 247, 457, 959, 1207, 352, 316, 217, 121
161440616, -11237, 7262, 8646, 3832, 2053, -447, 74, 203, -118, -281, 247, 457, 959, 1207, 352, 316, 217, 121
161445662, -11237, 7262, 8646, 3832, 2053, -447, 74, 203, -118, -281, 247, 457, 959, 1207, 352, 316, 217, 121
161446619, -11209, 7190, 8732, 3853, 2134, -464, 114, 243, -272, -371, 247, 457, 959, 1207, 352, 316, 217, 121
161447415, -11209, 7190, 8732, 3853, 2134, -464, 114, 243, -272, -371, 293, 412, 994, 1175, 347, 314, 216, 139
161448234, -11209, 7190, 8732, 3853, 2134, -464, 114, 243, -272, -371, 293, 412, 994, 1175, 347, 314, 216, 139
161453236, -11209, 7190, 8732, 3853, 2134, -464, 114, 243, -272, -371, 293, 412, 994, 1175, 347, 314, 216, 139
161454034, -11209, 7190, 8732, 3853, 2134, -464, 114, 243, -272, -371, 293, 412, 994, 1175, 347, 314, 216, 139
161454860, -11209, 7190, 8732, 3853, 2134, -464, 114, 243, -272, -371, 293, 412, 994, 1175, 347, 314, 216, 139
161455684, -11209, 7190, 8732, 3853, 2134, -464, 114, 243, -272, -371, 293, 412, 994, 1175, 347, 314, 216, 139
161460657, -11209, 7190, 8732, 3853, 2134, -464, 114, 243, -272, -371, 293, 412, 994, 1175, 347, 314, 216, 139
161461448, -11209, 7190, 8732, 3853, 2134, -464, 114, 243, -272, -371, 293, 412, 994, 1175, 347, 314, 216, 139
161462270, -11209, 7190, 8732, 3853, 2134, -464, 114, 243, -272, -371, 293, 412, 994, 1175, 347, 314, 216, 139
161463068, -11209, 7190, 8732, 3853, 2134, -464, 114, 243, -272, -371, 293, 412, 994, 1175, 347, 314, 216, 139
161475736, -11209, 7190, 8732, 3853, 2134, -464, 114, 243, -272, -371, 293, 412, 994, 1175, 347, 314, 216, 139
161475742, -11160, 7111, 8847, 3879, 2284, -384, 83, 247, -412, -460, 293, 412, 994, 1175, 347, 314, 216, 139
161475746, -11160, 7111, 8847, 3879, 2284, -384, 83, 247, -412, -460, 308, 452, 995, 1237, 350, 314, 274, 167
161475749, -11160, 7111, 8847, 3879, 2284, -384, 83, 247, -412, -460, 308, 452, 995, 1237, 350, 314, 274, 167
161475752, -11160, 7111, 8847, 3879, 2284, -384, 83, 247, -412, -460, 308, 452, 995, 1237, 350, 314, 274, 167
161476624, -11160, 7111, 8847, 3879, 2284, -384, 83, 247, -412, -460, 308, 452, 995, 1237, 350, 314, 274, 167
161477298, -11160, 7111, 8847, 3879, 2284, -384, 83, 247, -412, -460, 308, 452, 995, 1237, 350, 314, 274, 167
161478192, -11160, 7111, 8847, 3879, 2284, -384, 83, 247, -412, -460, 308, 452, 995, 1237, 350, 314, 274, 167
161483158, -11160, 7111, 8847, 3879, 2284, -384, 83, 247, -412, -460, 308, 452, 995, 1237, 350, 314, 274, 167
161483913, -11160, 7111, 8847, 3879, 2284, -384, 83, 247, -412, -460, 308, 452, 995, 1237, 350, 314, 274, 167
161484782, -11160, 7111, 8847, 3879, 2284, -384, 83, 247, -412, -460, 308, 452, 995, 1237, 350, 314, 274, 167
161485614, -11160, 7111, 8847, 3879, 2284, -384, 83, 247, -412, -460, 308, 452, 995, 1237, 350, 314, 274, 167
161490689, -11160, 7111, 8847, 3879, 2284, -384, 83, 247, -412, -460, 308, 452, 995, 1237, 350, 314, 274, 167
161491612, -11096, 7045, 8965, 3911, 2416, -467, 80, 154, -480, -510, 308, 452, 995, 1237, 350, 314, 274, 167
161492415, -11096, 7045, 8965, 3911, 2416, -467, 80, 154, -480, -510, 309, 427, 1011, 1196, 333, 325, 290, 167
161493234, -11096, 7045, 8965, 3911, 2416, -467, 80, 154, -480, -510, 309, 427, 1011, 1196, 333, 325, 290, 167
161498258, -11096, 7045, 8965, 3911, 2416, -467, 80, 154, -480, -510, 309, 427, 1011, 1196, 333, 325, 290, 167
161499059, -11096, 7045, 8965, 3911, 2416, -467, 80, 154, -480, -510, 309, 427, 1011, 1196, 333, 325, 290, 167
161499886, -11096, 7045, 8965, 3911, 2416, -467, 80, 154, -480, -510, 309, 427, 1011, 1196, 333, 325, 290, 167
161500686, -11096, 7045, 8965, 3911, 2416, -467, 80, 154, -480, -510, 309, 427, 1011, 1196, 333, 325, 290, 167
161505635, -11096, 7045, 8965, 3911, 2416, -467, 80, 154, -480, -510, 309, 427, 1011, 1196, 333, 325, 290, 167
161506480, -11096, 7045, 8965, 3911, 2416, -467, 80, 154, -480, -510, 309, 427, 1011, 1196, 333, 325, 290, 167
161507266, -11096, 7045, 8965, 3911, 2416, -467, 80, 154, -480, -510, 309, 427, 1011, 1196, 333, 325, 290, 167
161508087, -11096, 7045, 8965, 3911, 2416, -467, 80, 154, -480, -510, 309, 427, 1011, 1196, 333, 325, 290, 167
161513156, -11096, 7045, 8965, 3911, 2416, -467, 80, 154, -480, -510, 309, 427, 1011, 1196, 333, 325, 290, 167
161514088, -11026, 6958, 9105, 3943, 2409, -448, 32, 244, -539, -646, 309, 427, 1011, 1196, 333, 325, 290, 167
161514909, -11026, 6958, 9105, 3943, 2409, -448, 32, 244, -539, -646, 308, 434, 1025, 1055, 314, 323, 285, 160
161515708, -11026, 6958, 9105, 3943, 2409, -448, 32, 244, -539, -646, 308, 434, 1025, 1055, 314, 323, 285, 160
161520735, -11026, 6958, 9105, 3943, 2409, -448, 32, 244, -539, -646, 308, 434, 1025, 1055, 314, 323, 285, 160
161521613, -11026, 6958, 9105, 3943, 2409, -448, 32, 244, -539, -646, 308, 434, 1025, 1055, 314, 323, 285, 160
161522288, -11026, 6958, 9105, 3943, 2409, -448, 32, 244, -539, -646, 308, 434, 1025, 1055, 314, 323, 285, 160
161523160, -11026, 6958, 9105, 3943, 2409, -448, 32, 244, -539, -646, 308, 434, 1025, 1055, 314, 323, 285, 160
161543143, -11026, 6958, 9105, 3943, 2409, -448, 32, 244, -539, -646, 308, 434, 1025, 1055, 314, 323, 285, 160
161543936, -11026, 6958, 9105, 3943, 2409, -448, 32, 244, -539, -646, 308, 434, 1025, 1055, 314, 323, 285, 160
161544761, -11026, 6958, 9105, 3943, 2409, -448, 32, 244, -539, -646, 308, 434, 1025, 1055, 314, 323, 285, 160
161545610, -11026, 6958, 9105, 3943, 2409, -448, 32, 244, -539, -646, 308, 434, 1025, 1055, 314, 323, 285, 160
161550636, -11026, 6958, 9105, 3943, 2409, -448, 32, 244, -539, -646, 308, 434, 1025, 1055, 314, 323, 285, 160
161551611, -10930, 6878, 9265, 3978, 2344, -390, 11, 182, -704, -729, 308, 434, 1025, 1055, 314, 323, 285, 160
161552388, -10930, 6878, 9265, 3978, 2344, -390, 11, 182, -704, -729, 310, 475, 995, 1114, 372, 411, 370, 166
161553224, -10930, 6878, 9265, 3978, 2344, -390, 11, 182, -704, -729, 310, 475, 995, 1114, 372, 411, 370, 166
161558232, -10930, 6878, 9265, 3978, 2344, -390, 11, 182, -704, -729, 310, 475, 995, 1114, 372, 411, 370, 166
161559042, -10930, 6878, 9265, 3978, 2344, -390, 11, 182, -704, -729, 310, 475, 995, 1114, 372, 411, 370, 166
161559839, -10930, 6878, 9265, 3978, 2344, -390, 11, 182, -704, -729, 310, 475, 995, 1114, 372, 411, 370, 166
161560662, -10930, 6878, 9265, 3978, 2344, -390, 11, 182, -704, -729, 310, 475, 995, 1114, 372, 411, 370, 166
161565623, -10930, 6878, 9265, 3978, 2344, -390, 11, 182, -704, -729, 310, 475, 995, 1114, 372, 411, 370, 166
161566417, -10930, 6878, 9265, 3978, 2344, -390, 11, 182, -704, -729, 310, 475, 995, 1114, 372, 411, 370, 166
161567244, -10930, 6878, 9265, 3978, 2344, -390, 11, 182, -704, -729, 310, 475, 995, 1114, 372, 411, 370, 166
161568067, -10930, 6878, 9265, 3978, 2344, -390, 11, 182, -704, -729, 310, 475, 995, 1114, 372, 411, 370, 166
161580707, -10930, 6878, 9265, 3978, 2344, -390, 11, 182, -704, -729, 310, 475, 995, 1114, 372, 411, 370, 166
161581623, -10809, 6792, 9446, 4028, 2541, -363, -18, 121, -830, -872, 310, 475, 995, 1114, 372, 411, 370, 166
161582423, -10809, 6792, 9446, 4028, 2541, -363, -18, 121, -830, -872, 215, 483, 962, 1153, 375, 427, 356, 143
161583216, -10809, 6792, 9446, 4028, 2541, -363, -18, 121, -830, -872, 215, 483, 962, 1153, 375, 427, 356, 143
161588243, -10809, 6792, 9446, 4028, 2541, -363, -18, 121, -830, -872, 215, 483, 962, 1153, 375, 427, 356, 143
161589036, -10809, 6792, 9446, 4028, 2541, -363, -18, 121, -830, -872, 215, 483, 962, 1153, 375, 427, 356, 143
161589860, -10809, 6792, 9446, 4028, 2541, -363, -18, 121, -830, -872, 215, 483, 962, 1153, 375, 427, 356, 143
161590684, -10809, 6792, 9446, 4028, 2541, -363, -18, 121, -830, -872, 215, 483, 962, 1153, 375, 427, 356, 143
161595611, -10809, 6792, 9446, 4028, 2541, -363, -18, 121, -830, -872, 215, 483, 962, 1153, 375, 427, 356, 143
161596437, -10809, 6792, 9446, 4028, 2541, -363, -18, 121, -830, -872, 215, 483, 962, 1153, 375, 427, 356, 143
161597254, -10809, 6792, 9446, 4028, 2541, -363, -18, 121, -830, -872, 215, 483, 962, 1153, 375, 427, 356, 143
161598055, -10809, 6792, 9446, 4028, 2541, -363, -18, 121, -830, -872, 215, 483, 962, 1153, 375, 427, 356, 143
161625680, -10809, 6792, 9446, 4028, 2541, -363, -18, 121, -830, -872, 215, 483, 962, 1153, 375, 427, 356, 143
161626622, -10664, 6706, 9648, 4078, 2680, -381, -114, 105, -962, -979, 215, 483, 962, 1153, 375, 427, 356, 143
161627364, -10664, 6706, 9648, 4078, 2680, -381, -114, 105, -962, -979, 176, 469, 1004, 1134, 376, 424, 310, 98
161628184, -10664, 6706, 9648, 4078, 2680, -381, -114, 105, -962, -979, 176, 469, 1004, 1134, 376, 424, 310, 98
161633182, -10664, 6706, 9648, 4078, 2680, -381, -114, 105, -962, -979, 176, 469, 1004, 1134, 376, 424, 310, 98
161634005, -10664, 6706, 9648, 4078, 2680, -381, -114, 105, -962, -979, 176, 469, 1004, 1134, 376, 424, 310, 98
161634976, -10664, 6706, 9648, 4078, 2680, -381, -114, 105, -962, -979, 176, 469, 1004, 1134, 376, 424, 310, 98
161635642, -10664, 6706, 9648, 4078, 2680, -381, -114, 105, -962, -979, 176, 469, 1004, 1134, 376, 424, 310, 98
161640643, -10664, 6706, 9648, 4078, 2680, -381, -114, 105, -962, -979, 176, 469, 1004, 1134, 376, 424, 310, 98
161641469, -10664, 6706, 9648, 4078, 2680, -381, -114, 105, -962, -979, 176, 469, 1004, 1134, 376, 424, 310, 98
161642284, -10664, 6706, 9648, 4078, 2680, -381, -114, 105, -962, -979, 176, 469, 1004, 1134, 376, 424, 310, 98
161643084, -10664, 6706, 9648, 4078, 2680, -381, -114, 105, -962, -979, 176, 469, 1004, 1134, 376, 424, 310, 98
161647261, -10664, 6706, 9648, 4078, 2680, -381, -114, 105, -962, -979, 176, 469, 1004, 1134, 376, 424, 310, 98
161648212, -10494, 6614, 9873, 4133, 2763, -314, -176, 89, -1107, -1100, 176, 469, 1004, 1134, 376, 424, 310, 98
161649009, -10494, 6614, 9873, 4133, 2763, -314, -176, 89, -1107, -1100, 187, 452, 1037, 1215, 383, 419, 336, 110
161654904, -10494, 6614, 9873, 4133, 2763, -314, -176, 89, -1107, -1100, 187, 452, 1037, 1215, 383, 419, 336, 110
161655685, -10494, 6614, 9873, 4133, 2763, -314, -176, 89, -1107, -1100, 187, 452, 1037, 1215, 383, 419, 336, 110
161663111, -10494, 6614, 9873, 4133, 2763, -314, -176, 89, -1107, -1100, 187, 452, 1037, 1215, 383, 419, 336, 110
161663935, -10494, 6614, 9873, 4133, 2763, -314, -176, 89, -1107, -1100, 187, 452, 1037, 1215, 383, 419, 336, 110
161664732, -10494, 6614, 9873, 4133, 2763, -314, -176, 89, -1107, -1100, 187, 452, 1037, 1215, 383, 419, 336, 110
161665606, -10494, 6614, 9873, 4133, 2763, -314, -176, 89, -1107, -1100, 187, 452, 1037, 1215, 383, 419, 336, 110
161670638, -10494, 6614, 9873, 4133, 2763, -314, -176, 89, -1107, -1100, 187, 452, 1037, 1215, 383, 419, 336, 110
161671443, -10494, 6614, 9873, 4133, 2763, -314, -176, 89, -1107, -1100, 187, 452, 1037, 1215, 383, 419, 336, 110
161672393, -10305, 6526, 10096, 4210, 2989, -187, -176, -52, -1174, -1139, 187, 452, 1037, 1215, 383, 419, 336, 110
161673193, -10305, 6526, 10096, 4210, 2989, -187, -176, -52, -1174, -1139, 197, 426, 1147, 1232, 388, 421, 346, 121
161678229, -10305, 6526, 10096, 4210, 2989, -187, -176, -52, -1174, -1139, 197, 426, 1147, 1232, 388, 421, 346, 121
161679007, -10305, 6526, 10096, 4210, 2989, -187, -176, -52, -1174, -1139, 197, 426, 1147, 1232, 388, 421, 346, 121
161679831, -10305, 6526, 10096, 4210, 2989, -187, -176, -52, -1174, -1139, 197, 426, 1147, 1232, 388, 421, 346, 121
161680631, -10305, 6526, 10096, 4210, 2989, -187, -176, -52, -1174, -1139, 197, 426, 1147, 1232, 388, 421, 346, 121
161683399, -10305, 6526, 10096, 4210, 2989, -187, -176, -52, -1174, -1139, 197, 426, 1147, 1232, 388, 421, 346, 121
161693165, -10305, 6526, 10096, 4210, 2989, -187, -176, -52, -1174, -1139, 197, 426, 1147, 1232, 388, 421, 346, 121
161693964, -10305, 6526, 10096, 4210, 2989, -187, -176, -52, -1174, -1139, 197, 426, 1147, 1232, 388, 421, 346, 121
161694784, -10305, 6526, 10096, 4210, 2989, -187, -176, -52, -1174, -1139, 197, 426, 1147, 1232, 388, 421, 346, 121
161695607, -10305, 6526, 10096, 4210, 2989, -187, -176, -52, -1174, -1139, 197, 426, 1147, 1232, 388, 421, 346, 121
161700786, -10113, 6467, 10295, 4284, 3011, -405, -166, -196, -1193, -1137, 197, 426, 1147, 1232, 388, 421, 346, 121
161701607, -10113, 6467, 10295, 4284, 3011, -405, -166, -196, -1193, -1137, 178, 591, 1208, 1201, 310, 310, 232, 107
161702410, -10113, 6467, 10295, 4284, 3011, -405, -166, -196, -1193, -1137, 178, 591, 1208, 1201, 310, 310, 232, 107
161703233, -10113, 6467, 10295, 4284, 3011, -405, -166, -196, -1193, -1137, 178, 591, 1208, 1201, 310, 310, 232, 107
161708129, -10113, 6467, 10295, 4284, 3011, -405, -166, -196, -1193, -1137, 178, 591, 1208, 1201, 310, 310, 232, 107
161708940, -10113, 6467, 10295, 4284, 3011, -405, -166, -196, -1193, -1137, 178, 591, 1208, 1201, 310, 310, 232, 107
161709764, -10113, 6467, 10295, 4284, 3011, -405, -166, -196, -1193, -1137, 178, 591, 1208, 1201, 310, 310, 232, 107
161710614, -10113, 6467, 10295, 4284, 3011, -405, -166, -196, -1193, -1137, 178, 591, 1208, 1201, 310, 310, 232, 107
161715661, -10113, 6467, 10295, 4284, 3011, -405, -166, -196, -1193, -1137, 178, 591, 1208, 1201, 310, 310, 232, 107
161716741, -9917, 6384, 10515, 4331, 3065, -342, -257, 4, -1302, -1188, 178, 591, 1208, 1201, 310, 310, 232, 107
161717397, -9917, 6384, 10515, 4331, 3065, -342, -257, 4, -1302, -1188, 187, 606, 1217, 1121, 299, 306, 240, 110
161718212, -9917, 6384, 10515, 4331, 3065, -342, -257, 4, -1302, -1188, 187, 606, 1217, 1121, 299, 306, 240, 110
161723352, -9917, 6384, 10515, 4331, 3065, -342, -257, 4, -1302, -1188, 187, 606, 1217, 1121, 299, 306, 240, 110
161724205, -9917, 6384, 10515, 4331, 3065, -342, -257, 4, -1302, -1188, 187, 606, 1217, 1121, 299, 306, 240, 110
161724859, -9917, 6384, 10515, 4331, 3065, -342, -257, 4, -1302, -1188, 187, 606, 1217, 1121, 299, 306, 240, 110
161725665, -9917, 6384, 10515, 4331, 3065, -342, -257, 4, -1302, -1188, 187, 606, 1217, 1121, 299, 306, 240, 110
161738183, -9917, 6384, 10515, 4331, 3065, -342, -257, 4, -1302, -1188, 187, 606, 1217, 1121, 299, 306, 240, 110
161738968, -9917, 6384, 10515, 4331, 3065, -342, -257, 4, -1302, -1188, 187, 606, 1217, 1121, 299, 306, 240, 110
161739766, -9917, 6384, 10515, 4331, 3065, -342, -257, 4, -1302, -1188, 187, 606, 1217, 1121, 299, 306, 240, 110
161740609, -9917, 6384, 10515, 4331, 3065, -342, -257, 4, -1302, -1188, 187, 606, 1217, 1121, 299, 306, 240, 110
161745643, -9917, 6384, 10515, 4331, 3065, -342, -257, 4, -1302, -1188, 187, 606, 1217, 1121, 299, 306, 240, 110
161746609, -9708, 6282, 10749, 4378, 3192, -162, -349, 68, -1374, -1254, 187, 606, 1217, 1121, 299, 306, 240, 110
161747386, -9708, 6282, 10749, 4378, 3192, -162, -349, 68, -1374, -1254, 201, 781, 1225, 1106, 303, 318, 243, 111
161748205, -9708, 6282, 10749, 4378, 3192, -162, -349, 68, -1374, -1254, 201, 781, 1225, 1106, 303, 318, 243, 111
161753215, -9708, 6282, 10749, 4378, 3192, -162, -349, 68, -1374, -1254, 201, 781, 1225, 1106, 303, 318, 243, 111
161754046, -9708, 6282, 10749, 4378, 3192, -162, -349, 68, -1374, -1254, 201, 781, 1225, 1106, 303, 318, 243, 111
161754860, -9708, 6282, 10749, 4378, 3192, -162, -349, 68, -1374, -1254, 201, 781, 1225, 1106, 303, 318, 243, 111
161755656, -9708, 6282, 10749, 4378, 3192, -162, -349, 68, -1374, -1254, 201, 781, 1225, 1106, 303, 318, 243, 111
161760612, -9708, 6282, 10749, 4378, 3192, -162, -349, 68, -1374, -1254, 201, 781, 1225, 1106, 303, 318, 243, 111
161761543, -9708, 6282, 10749, 4378, 3192, -162, -349, 68, -1374, -1254, 201, 781, 1225, 1106, 303, 318, 243, 111
161762237, -9708, 6282, 10749, 4378, 3192, -162, -349, 68, -1374, -1254, 201, 781, 1225, 1106, 303, 318, 243, 111
161763054, -9708, 6282, 10749, 4378, 3192, -162, -349, 68, -1374, -1254, 201, 781, 1225, 1106, 303, 318, 243, 111
161775682, -9708, 6282, 10749, 4378, 3192, -162, -349, 68, -1374, -1254, 201, 781, 1225, 1106, 303, 318, 243, 111
161776622, -9495, 6166, 10986, 4421, 3242, -81, -492, 134, -1367, -1300, 201, 781, 1225, 1106, 303, 318, 243, 111
161777391, -9495, 6166, 10986, 4421, 3242, -81, -492, 134, -1367, -1300, 208, 912, 1164, 1034, 321, 485, 184, 106
161783235, -9495, 6166, 10986, 4421, 3242, -81, -492, 134, -1367, -1300, 208, 912, 1164, 1034, 321, 485, 184, 106
161784040, -9495, 6166, 10986, 4421, 3242, -81, -492, 134, -1367, -1300, 208, 912, 1164, 1034, 321, 485, 184, 106
161784868, -9495, 6166, 10986, 4421, 3242, -81, -492, 134, -1367, -1300, 208, 912, 1164, 1034, 321, 485, 184, 106
161785741, -9495, 6166, 10986, 4421, 3242, -81, -492, 134, -1367, -1300, 208, 912, 1164, 1034, 321, 485, 184, 106
161790645, -9495, 6166, 10986, 4421, 3242, -81, -492, 134, -1367, -1300, 208, 912, 1164, 1034, 321, 485, 184, 106
161791437, -9495, 6166, 10986, 4421, 3242, -81, -492, 134, -1367, -1300, 208, 912, 1164, 1034, 321, 485, 184, 106
161792258, -9495, 6166, 10986, 4421, 3242, -81, -492, 134, -1367, -1300, 208, 912, 1164, 1034, 321, 485, 184, 106
161793059, -9495, 6166, 10986, 4421, 3242, -81, -492, 134, -1367, -1300, 208, 912, 1164, 1034, 321, 485, 184, 106
161799067, -9495, 6166, 10986, 4421, 3242, -81, -492, 134, -1367, -1300, 208, 912, 1164, 1034, 321, 485, 184, 106
161799073, -9277, 6059, 11211, 4468, 3344, 216, -663, 91, -1319, -1157, 208, 912, 1164, 1034, 321, 485, 184, 106
161799887, -9277, 6059, 11211, 4468, 3344, 216, -663, 91, -1319, -1157, 203, 1183, 1032, 1089, 321, 733, 167, 91
161800709, -9277, 6059, 11211, 4468, 3344, 216, -663, 91, -1319, -1157, 203, 1183, 1032, 1089, 321, 733, 167, 91
161805708, -9277, 6059, 11211, 4468, 3344, 216, -663, 91, -1319, -1157, 203, 1183, 1032, 1089, 321, 733, 167, 91
161806512, -9277, 6059, 11211, 4468, 3344, 216, -663, 91, -1319, -1157, 203, 1183, 1032, 1089, 321, 733, 167, 91
161807333, -9277, 6059, 11211, 4468, 3344, 216, -663, 91, -1319, -1157, 203, 1183, 1032, 1089, 321, 733, 167, 91
161808157, -9277, 6059, 11211, 4468, 3344, 216, -663, 91, -1319, -1157, 203, 1183, 1032, 1089, 321, 733, 167, 91
161813122, -9277, 6059, 11211, 4468, 3344, 216, -663, 91, -1319, -1157, 203, 1183, 1032, 1089, 321, 733, 167, 91
161813908, -9277, 6059, 11211, 4468, 3344, 216, -663, 91, -1319, -1157, 203, 1183, 1032, 1089, 321, 733, 167, 91
161814735, -9277, 6059, 11211, 4468, 3344, 216, -663, 91, -1319, -1157, 203, 1183, 1032, 1089, 321, 733, 167, 91
161815606, -9277, 6059, 11211, 4468, 3344, 216, -663, 91, -1319, -1157, 203, 1183, 1032, 1089, 321, 733, 167, 91
161820611, -9277, 6059, 11211, 4468, 3344, 216, -663, 91, -1319, -1157, 203, 1183, 1032, 1089, 321, 733, 167, 91
161821607, -9092, 5993, 11372, 4530, 3242, 255, -737, -127, -1011, -884, 203, 1183, 1032, 1089, 321, 733, 167, 91
161822310, -9092, 5993, 11372, 4530, 3242, 255, -737, -127, -1011, -884, 240, 1243, 948, 1029, 350, 806, 197, 139
161823181, -9092, 5993, 11372, 4530, 3242, 255, -737, -127, -1011, -884, 240, 1243, 948, 1029, 350, 806, 197, 139
161828186, -9092, 5993, 11372, 4530, 3242, 255, -737, -127, -1011, -884, 240, 1243, 948, 1029, 350, 806, 197, 139
161829005, -9092, 5993, 11372, 4530, 3242, 255, -737, -127, -1011, -884, 240, 1243, 948, 1029, 350, 806, 197, 139
161829808, -9092, 5993, 11372, 4530, 3242, 255, -737, -127, -1011, -884, 240, 1243, 948, 1029, 350, 806, 197, 139
161830634, -9092, 5993, 11372, 4530, 3242, 255, -737, -127, -1011, -884, 240, 1243, 948, 1029, 350, 806, 197, 139
161835635, -9092, 5993, 11372, 4530, 3242, 255, -737, -127, -1011, -884, 240, 1243, 948, 1029, 350, 806, 197, 139
161836461, -9092, 5993, 11372, 4530, 3242, 255, -737, -127, -1011, -884, 240, 1243, 948, 1029, 350, 806, 197, 139
161837257, -9092, 5993, 11372, 4530, 3242, 255, -737, -127, -1011, -884, 240, 1243, 948, 1029, 350, 806, 197, 139
161838083, -9092, 5993, 11372, 4530, 3242, 255, -737, -127, -1011, -884, 240, 1243, 948, 1029, 350, 806, 197, 139
161858158, -9092, 5993, 11372, 4530, 3242, 255, -737, -127, -1011, -884, 240, 1243, 948, 1029, 350, 806, 197, 139
161859105, -8989, 5948, 11464, 4564, 3322, 193, -735, -34, -599, -506, 240, 1243, 948, 1029, 350, 806, 197, 139
161859903, -8989, 5948, 11464, 4564, 3322, 193, -735, -34, -599, -506, 287, 1325, 920, 1011, 333, 875, 194, 198
161860747, -8989, 5948, 11464, 4564, 3322, 193, -735, -34, -599, -506, 287, 1325, 920, 1011, 333, 875, 194, 198
161866647, -8989, 5948, 11464, 4564, 3322, 193, -735, -34, -599, -506, 287, 1325, 920, 1011, 333, 875, 194, 198
161866655, -8989, 5948, 11464, 4564, 3322, 193, -735, -34, -599, -506, 287, 1325, 920, 1011, 333, 875, 194, 198
161867376, -8989, 5948, 11464, 4564, 3322, 193, -735, -34, -599, -506, 287, 1325, 920, 1011, 333, 875, 194, 198
161868198, -8989, 5948, 11464, 4564, 3322, 193, -735, -34, -599, -506, 287, 1325, 920, 1011, 333, 875, 194, 198
