Timestamp, Orientation x, Orientation y, Orientation z, Orientation w, Acceleration x, Acceleration y, Acceleration z, Rotation x, Rotation y, Rotation z, EMG 0, EMG 1, EMG 2, EMG 3, EMG 4, EMG 5, EMG 6, EMG 7
103257502, 8708, 9943, -9594, 1302, 3005, 2075, -1768, -48, 14, 14, 0, 0, 0, 0, 0, 0, 0, 0
103258307, 8706, 9942, -9596, 1305, 3014, 2103, -1786, -2, 4, 3, 0, 0, 0, 0, 0, 0, 0, 0
103279318, 8699, 9945, -9598, 1318, 3004, 2158, -1771, 37, 18, -17, 0, 0, 0, 0, 0, 0, 0, 0
103294312, 8696, 9948, -9595, 1332, 2998, 2194, -1787, 36, 53, -16, 0, 0, 0, 0, 0, 0, 0, 0
103316823, 8693, 9950, -9595, 1337, 2940, 2175, -1805, -8, 38, -19, 0, 0, 0, 0, 0, 0, 0, 0
103324929, 8693, 9950, -9595, 1337, 2940, 2175, -1805, -8, 38, -19, 519, 80, 87, 590, 95, 54, 89, 393
103325763, 8693, 9950, -9595, 1337, 2940, 2175, -1805, -8, 38, -19, 519, 80, 87, 590, 95, 54, 89, 393
103339282, 8693, 9944, -9601, 1339, 2962, 2133, -1791, -54, 13, -3, 519, 80, 87, 590, 95, 54, 89, 393
103347446, 8693, 9944, -9601, 1339, 2962, 2133, -1791, -54, 13, -3, 545, 88, 102, 691, 111, 63, 87, 367
103348262, 8693, 9944, -9601, 1339, 2962, 2133, -1791, -54, 13, -3, 545, 88, 102, 691, 111, 63, 87, 367
103354516, 8689, 9939, -9608, 1355, 3000, 2097, -1759, 4, 21, 24, 545, 88, 102, 691, 111, 63, 87, 367
103369944, 8689, 9939, -9608, 1355, 3000, 2097, -1759, 4, 21, 24, 558, 97, 101, 710, 110, 63, 92, 410
103370744, 8689, 9939, -9608, 1355, 3000, 2097, -1759, 4, 21, 24, 558, 97, 101, 710, 110, 63, 92, 410
103376887, 8680, 9939, -9613, 1371, 3040, 2144, -1763, 49, -1, 6, 558, 97, 101, 710, 110, 63, 92, 410
103384928, 8680, 9939, -9613, 1371, 3040, 2144, -1763, 49, -1, 6, 495, 101, 103, 763, 115, 64, 99, 401
103385740, 8680, 9939, -9613, 1371, 3040, 2144, -1763, 49, -1, 6, 495, 101, 103, 763, 115, 64, 99, 401
103399268, 8677, 9940, -9614, 1380, 3000, 2168, -1800, 15, 31, -8, 495, 101, 103, 763, 115, 64, 99, 401
103407433, 8677, 9940, -9614, 1380, 3000, 2168, -1800, 15, 31, -8, 451, 128, 122, 825, 123, 72, 104, 438
103408232, 8677, 9940, -9614, 1380, 3000, 2168, -1800, 15, 31, -8, 451, 128, 122, 825, 123, 72, 104, 438
103414382, 8675, 9940, -9615, 1381, 2976, 2165, -1783, 12, 14, -13, 451, 128, 122, 825, 123, 72, 104, 438
103429905, 8675, 9940, -9615, 1381, 2976, 2165, -1783, 12, 14, -13, 420, 132, 120, 791, 112, 76, 102, 414
103430715, 8675, 9940, -9615, 1381, 2976, 2165, -1783, 12, 14, -13, 420, 132, 120, 791, 112, 76, 102, 414
103436881, 8671, 9938, -9621, 1383, 2960, 2127, -1789, -24, -6, -5, 420, 132, 120, 791, 112, 76, 102, 414
103444934, 8671, 9938, -9621, 1383, 2960, 2127, -1789, -24, -6, -5, 506, 139, 114, 694, 99, 71, 112, 486
103445743, 8671, 9938, -9621, 1383, 2960, 2127, -1789, -24, -6, -5, 506, 139, 114, 694, 99, 71, 112, 486
103459307, 8662, 9940, -9626, 1388, 2992, 2129, -1787, 14, -18, -11, 506, 139, 114, 694, 99, 71, 112, 486
103467401, 8662, 9940, -9626, 1388, 2992, 2129, -1787, 14, -18, -11, 553, 129, 111, 669, 99, 67, 101, 473
103468228, 8662, 9940, -9626, 1388, 2992, 2129, -1787, 14, -18, -11, 553, 129, 111, 669, 99, 67, 101, 473
103474387, 8653, 9944, -9629, 1397, 2990, 2129, -1782, 44, -5, -18, 553, 129, 111, 669, 99, 67, 101, 473
103489911, 8653, 9944, -9629, 1397, 2990, 2129, -1782, 44, -5, -18, 546, 129, 116, 709, 99, 68, 99, 494
103490752, 8653, 9944, -9629, 1397, 2990, 2129, -1782, 44, -5, -18, 546, 129, 116, 709, 99, 68, 99, 494
103496884, 8648, 9952, -9623, 1406, 2989, 2188, -1765, 62, 26, -36, 546, 129, 116, 709, 99, 68, 99, 494
103504918, 8648, 9952, -9623, 1406, 2989, 2188, -1765, 62, 26, -36, 550, 103, 103, 664, 105, 64, 92, 481
103505739, 8648, 9952, -9623, 1406, 2989, 2188, -1765, 62, 26, -36, 550, 103, 103, 664, 105, 64, 92, 481
103519309, 8656, 9951, -9619, 1398, 2923, 2162, -1751, -73, 23, -47, 550, 103, 103, 664, 105, 64, 92, 481
103527406, 8656, 9951, -9619, 1398, 2923, 2162, -1751, -73, 23, -47, 600, 106, 104, 636, 159, 59, 99, 484
103528231, 8656, 9951, -9619, 1398, 2923, 2162, -1751, -73, 23, -47, 600, 106, 104, 636, 159, 59, 99, 484
103534384, 8665, 9947, -9617, 1386, 2954, 2144, -1741, -97, -1, -65, 600, 106, 104, 636, 159, 59, 99, 484
103549903, 8665, 9947, -9617, 1386, 2954, 2144, -1741, -97, -1, -65, 533, 91, 89, 590, 182, 60, 82, 411
103550725, 8665, 9947, -9617, 1386, 2954, 2144, -1741, -97, -1, -65, 533, 91, 89, 590, 182, 60, 82, 411
103556877, 8680, 9944, -9609, 1365, 2973, 2207, -1758, -137, 0, -101, 533, 91, 89, 590, 182, 60, 82, 411
103564911, 8680, 9944, -9609, 1365, 2973, 2207, -1758, -137, 0, -101, 507, 92, 88, 621, 354, 76, 94, 400
103565752, 8680, 9944, -9609, 1365, 2973, 2207, -1758, -137, 0, -101, 507, 92, 88, 621, 354, 76, 94, 400
103579310, 8717, 9931, -9594, 1335, 3048, 2181, -1766, -288, 66, -173, 507, 92, 88, 621, 354, 76, 94, 400
103587407, 8717, 9931, -9594, 1335, 3048, 2181, -1766, -288, 66, -173, 530, 85, 84, 553, 449, 121, 100, 412
103588211, 8717, 9931, -9594, 1335, 3048, 2181, -1766, -288, 66, -173, 530, 85, 84, 553, 449, 121, 100, 412
103594363, 8773, 9917, -9562, 1293, 3023, 2257, -1676, -353, 120, -247, 530, 85, 84, 553, 449, 121, 100, 412
103609883, 8773, 9917, -9562, 1293, 3023, 2257, -1676, -353, 120, -247, 571, 84, 77, 548, 459, 125, 116, 388
103610734, 8773, 9917, -9562, 1293, 3023, 2257, -1676, -353, 120, -247, 571, 84, 77, 548, 459, 125, 116, 388
103616880, 8845, 9897, -9525, 1232, 2937, 2249, -1684, -508, 156, -299, 571, 84, 77, 548, 459, 125, 116, 388
103624907, 8845, 9897, -9525, 1232, 2937, 2249, -1684, -508, 156, -299, 528, 97, 83, 578, 470, 133, 113, 393
103625721, 8845, 9897, -9525, 1232, 2937, 2249, -1684, -508, 156, -299, 528, 97, 83, 578, 470, 133, 113, 393
103639280, 8929, 9862, -9491, 1166, 2885, 2120, -1675, -662, 202, -311, 528, 97, 83, 578, 470, 133, 113, 393
103647402, 8929, 9862, -9491, 1166, 2885, 2120, -1675, -662, 202, -311, 545, 103, 83, 581, 536, 164, 119, 383
103648214, 8929, 9862, -9491, 1166, 2885, 2120, -1675, -662, 202, -311, 545, 103, 83, 581, 536, 164, 119, 383
103654408, 9000, 9838, -9457, 1106, 2838, 2099, -1682, -584, 195, -334, 545, 103, 83, 581, 536, 164, 119, 383
103669878, 9000, 9838, -9457, 1106, 2838, 2099, -1682, -584, 195, -334, 546, 104, 81, 539, 545, 169, 118, 351
103670715, 9000, 9838, -9457, 1106, 2838, 2099, -1682, -584, 195, -334, 546, 104, 81, 539, 545, 169, 118, 351
103676908, 9039, 9822, -9443, 1046, 2843, 2086, -1613, -452, 6, -302, 546, 104, 81, 539, 545, 169, 118, 351
103684905, 9039, 9822, -9443, 1046, 2843, 2086, -1613, -452, 6, -302, 515, 135, 92, 514, 611, 232, 128, 331
103685709, 9039, 9822, -9443, 1046, 2843, 2086, -1613, -452, 6, -302, 515, 135, 92, 514, 611, 232, 128, 331
103699278, 9071, 9824, -9416, 994, 2957, 2208, -1604, -324, 22, -375, 515, 135, 92, 514, 611, 232, 128, 331
103707378, 9071, 9824, -9416, 994, 2957, 2208, -1604, -324, 22, -375, 502, 163, 102, 558, 763, 324, 163, 386
103708203, 9071, 9824, -9416, 994, 2957, 2208, -1604, -324, 22, -375, 502, 163, 102, 558, 763, 324, 163, 386
103714408, 9090, 9840, -9387, 927, 2904, 2313, -1548, -255, -87, -429, 502, 163, 102, 558, 763, 324, 163, 386
103729933, 9090, 9840, -9387, 927, 2904, 2313, -1548, -255, -87, -429, 505, 159, 112, 641, 926, 354, 190, 384
103730756, 9090, 9840, -9387, 927, 2904, 2313, -1548, -255, -87, -429, 505, 159, 112, 641, 926, 354, 190, 384
103736906, 9102, 9860, -9362, 840, 2852, 2312, -1639, -319, -149, -498, 505, 159, 112, 641, 926, 354, 190, 384
103744876, 9102, 9860, -9362, 840, 2852, 2312, -1639, -319, -149, -498, 572, 159, 118, 716, 961, 354, 204, 372
103745709, 9102, 9860, -9362, 840, 2852, 2312, -1639, -319, -149, -498, 572, 159, 118, 716, 961, 354, 204, 372
103759294, 9158, 9830, -9347, 758, 2868, 2043, -1625, -679, -2, -424, 572, 159, 118, 716, 961, 354, 204, 372
103767438, 9158, 9830, -9347, 758, 2868, 2043, -1625, -679, -2, -424, 569, 160, 125, 799, 990, 358, 209, 409
103768258, 9158, 9830, -9347, 758, 2868, 2043, -1625, -679, -2, -424, 569, 160, 125, 799, 990, 358, 209, 409
103774414, 9206, 9803, -9331, 710, 2892, 1990, -1552, -533, 56, -370, 569, 160, 125, 799, 990, 358, 209, 409
103789936, 9206, 9803, -9331, 710, 2892, 1990, -1552, -533, 56, -370, 618, 143, 119, 806, 964, 324, 210, 462
103790748, 9206, 9803, -9331, 710, 2892, 1990, -1552, -533, 56, -370, 618, 143, 119, 806, 964, 324, 210, 462
103796913, 9218, 9815, -9309, 672, 2799, 2339, -1489, -161, -18, -319, 618, 143, 119, 806, 964, 324, 210, 462
103804976, 9218, 9815, -9309, 672, 2799, 2339, -1489, -161, -18, -319, 588, 123, 110, 738, 859, 278, 180, 420
103805745, 9218, 9815, -9309, 672, 2799, 2339, -1489, -161, -18, -319, 588, 123, 110, 738, 859, 278, 180, 420
103819264, 9255, 9797, -9296, 622, 2698, 2061, -1567, -481, 53, -316, 588, 123, 110, 738, 859, 278, 180, 420
103827435, 9255, 9797, -9296, 622, 2698, 2061, -1567, -481, 53, -316, 604, 115, 96, 646, 743, 251, 180, 481
103828260, 9255, 9797, -9296, 622, 2698, 2061, -1567, -481, 53, -316, 604, 115, 96, 646, 743, 251, 180, 481
103834411, 9278, 9783, -9288, 607, 2809, 2033, -1541, -310, 81, -252, 604, 115, 96, 646, 743, 251, 180, 481
103849929, 9278, 9783, -9288, 607, 2809, 2033, -1541, -310, 81, -252, 499, 108, 87, 556, 689, 238, 173, 489
103850739, 9278, 9783, -9288, 607, 2809, 2033, -1541, -310, 81, -252, 499, 108, 87, 556, 689, 238, 173, 489
103856882, 9322, 9764, -9265, 587, 2770, 2259, -1404, -324, 147, -215, 499, 108, 87, 556, 689, 238, 173, 489
103864929, 9322, 9764, -9265, 587, 2770, 2259, -1404, -324, 147, -215, 511, 112, 85, 551, 651, 250, 166, 463
103865739, 9322, 9764, -9265, 587, 2770, 2259, -1404, -324, 147, -215, 511, 112, 85, 551, 651, 250, 166, 463
103879265, 9362, 9736, -9258, 524, 2676, 2322, -1518, -522, 9, -217, 511, 112, 85, 551, 651, 250, 166, 463
103887433, 9362, 9736, -9258, 524, 2676, 2322, -1518, -522, 9, -217, 488, 126, 87, 542, 638, 276, 159, 463
103888230, 9362, 9736, -9258, 524, 2676, 2322, -1518, -522, 9, -217, 488, 126, 87, 542, 638, 276, 159, 463
103894391, 9413, 9681, -9267, 469, 2684, 1878, -1443, -688, 2, -233, 488, 126, 87, 542, 638, 276, 159, 463
103909910, 9413, 9681, -9267, 469, 2684, 1878, -1443, -688, 2, -233, 655, 147, 91, 554, 656, 253, 167, 467
103910728, 9413, 9681, -9267, 469, 2684, 1878, -1443, -688, 2, -233, 655, 147, 91, 554, 656, 253, 167, 467
103916887, 9404, 9681, -9276, 478, 2794, 1992, -1455, -89, -4, -190, 655, 147, 91, 554, 656, 253, 167, 467
103924252, 9404, 9681, -9276, 478, 2794, 1992, -1455, -89, -4, -190, 665, 145, 89, 554, 597, 245, 152, 431
103931756, 9404, 9681, -9276, 478, 2794, 1992, -1455, -89, -4, -190, 665, 145, 89, 554, 597, 245, 152, 431
103939378, 9436, 9670, -9255, 468, 2874, 2452, -1492, -255, 172, -176, 665, 145, 89, 554, 597, 245, 152, 431
103947423, 9436, 9670, -9255, 468, 2874, 2452, -1492, -255, 172, -176, 675, 148, 87, 542, 638, 278, 142, 415
103948249, 9436, 9670, -9255, 468, 2874, 2452, -1492, -255, 172, -176, 675, 148, 87, 542, 638, 278, 142, 415
103954395, 9517, 9620, -9228, 411, 2754, 2459, -1430, -683, 210, -196, 675, 148, 87, 542, 638, 278, 142, 415
103969967, 9517, 9620, -9228, 411, 2754, 2459, -1430, -683, 210, -196, 648, 150, 89, 399, 570, 278, 165, 422
103970729, 9517, 9620, -9228, 411, 2754, 2459, -1430, -683, 210, -196, 648, 150, 89, 399, 570, 278, 165, 422
103976888, 9628, 9531, -9207, 319, 2667, 2240, -1334, -1049, 176, -235, 648, 150, 89, 399, 570, 278, 165, 422
103984201, 9628, 9531, -9207, 319, 2667, 2240, -1334, -1049, 176, -235, 637, 148, 82, 328, 639, 251, 163, 334
103991711, 9628, 9531, -9207, 319, 2667, 2240, -1334, -1049, 176, -235, 637, 148, 82, 328, 639, 251, 163, 334
103999399, 9725, 9443, -9200, 206, 2610, 2134, -1346, -1109, 50, -300, 637, 148, 82, 328, 639, 251, 163, 334
104007371, 9725, 9443, -9200, 206, 2610, 2134, -1346, -1109, 50, -300, 524, 118, 92, 335, 661, 226, 154, 356
104008198, 9725, 9443, -9200, 206, 2610, 2134, -1346, -1109, 50, -300, 524, 118, 92, 335, 661, 226, 154, 356
104014342, 9777, 9375, -9216, 77, 2605, 2125, -1438, -1002, -176, -350, 524, 118, 92, 335, 661, 226, 154, 356
104029921, 9777, 9375, -9216, 77, 2605, 2125, -1438, -1002, -176, -350, 520, 131, 108, 333, 750, 271, 158, 366
104030743, 9777, 9375, -9216, 77, 2605, 2125, -1438, -1002, -176, -350, 520, 131, 108, 333, 750, 271, 158, 366
104036914, 9861, 9290, -9213, -37, 2832, 2098, -1169, -1041, -87, -419, 520, 131, 108, 333, 750, 271, 158, 366
104052432, 9861, 9290, -9213, -37, 2832, 2098, -1169, -1041, -87, -419, 511, 131, 108, 335, 705, 251, 171, 386
104053233, 9861, 9290, -9213, -37, 2832, 2098, -1169, -1041, -87, -419, 511, 131, 108, 335, 705, 251, 171, 386
104059382, 9895, 9255, -9211, -112, 2666, 2101, -1320, -651, -36, -388, 511, 131, 108, 335, 705, 251, 171, 386
104067431, 9895, 9255, -9211, -112, 2666, 2101, -1320, -651, -36, -388, 530, 149, 108, 349, 708, 261, 178, 402
104068251, 9895, 9255, -9211, -112, 2666, 2101, -1320, -651, -36, -388, 530, 149, 108, 349, 708, 261, 178, 402
104074410, 9928, 9223, -9206, -180, 2659, 2186, -1246, -587, -24, -362, 530, 149, 108, 349, 708, 261, 178, 402
104089931, 9928, 9223, -9206, -180, 2659, 2186, -1246, -587, -24, -362, 567, 158, 112, 380, 601, 270, 205, 414
104090735, 9928, 9223, -9206, -180, 2659, 2186, -1246, -587, -24, -362, 567, 158, 112, 380, 601, 270, 205, 414
104096907, 9944, 9203, -9208, -219, 2617, 2020, -1237, -428, -3, -335, 567, 158, 112, 380, 601, 270, 205, 414
104112408, 9944, 9203, -9208, -219, 2617, 2020, -1237, -428, -3, -335, 589, 166, 100, 415, 619, 289, 220, 424
104113226, 9944, 9203, -9208, -219, 2617, 2020, -1237, -428, -3, -335, 589, 166, 100, 415, 619, 289, 220, 424
104119384, 9951, 9189, -9214, -228, 2611, 2041, -1210, -270, 41, -219, 589, 166, 100, 415, 619, 289, 220, 424
104127425, 9951, 9189, -9214, -228, 2611, 2041, -1210, -270, 41, -219, 579, 164, 83, 429, 487, 262, 223, 389
104128243, 9951, 9189, -9214, -228, 2611, 2041, -1210, -270, 41, -219, 579, 164, 83, 429, 487, 262, 223, 389
104134410, 9940, 9196, -9220, -222, 2621, 2202, -1194, -64, 22, -188, 579, 164, 83, 429, 487, 262, 223, 389
104149930, 9940, 9196, -9220, -222, 2621, 2202, -1194, -64, 22, -188, 573, 169, 87, 479, 530, 277, 221, 424
104150738, 9940, 9196, -9220, -222, 2621, 2202, -1194, -64, 22, -188, 573, 169, 87, 479, 530, 277, 221, 424
104156883, 9953, 9180, -9222, -245, 2591, 2280, -1231, -315, 39, -178, 573, 169, 87, 479, 530, 277, 221, 424
104172408, 9953, 9180, -9222, -245, 2591, 2280, -1231, -315, 39, -178, 548, 154, 105, 529, 512, 256, 210, 394
104173231, 9953, 9180, -9222, -245, 2591, 2280, -1231, -315, 39, -178, 548, 154, 105, 529, 512, 256, 210, 394
104179392, 9968, 9149, -9235, -282, 2534, 2062, -1175, -429, -45, -211, 548, 154, 105, 529, 512, 256, 210, 394
104187431, 9968, 9149, -9235, -282, 2534, 2062, -1175, -429, -45, -211, 524, 141, 105, 496, 503, 232, 187, 397
104188239, 9968, 9149, -9235, -282, 2534, 2062, -1175, -429, -45, -211, 524, 141, 105, 496, 503, 232, 187, 397
104194387, 9973, 9122, -9255, -287, 2559, 1849, -1075, -273, -41, -178, 524, 141, 105, 496, 503, 232, 187, 397
104209914, 9973, 9122, -9255, -287, 2559, 1849, -1075, -273, -41, -178, 413, 134, 105, 453, 462, 220, 177, 362
104210742, 9973, 9122, -9255, -287, 2559, 1849, -1075, -273, -41, -178, 413, 134, 105, 453, 462, 220, 177, 362
104216887, 9936, 9142, -9277, -252, 2644, 2050, -1135, 157, -44, -138, 413, 134, 105, 453, 462, 220, 177, 362
104232413, 9936, 9142, -9277, -252, 2644, 2050, -1135, 157, -44, -138, 370, 133, 109, 530, 531, 226, 153, 368
104233231, 9936, 9142, -9277, -252, 2644, 2050, -1135, 157, -44, -138, 370, 133, 109, 530, 531, 226, 153, 368
104239384, 9904, 9157, -9297, -226, 2634, 2264, -1241, 96, -16, -70, 370, 133, 109, 530, 531, 226, 153, 368
104255604, 9904, 9157, -9297, -226, 2634, 2264, -1241, 96, -16, -70, 445, 125, 107, 524, 481, 235, 140, 327
104256431, 9904, 9157, -9297, -226, 2634, 2264, -1241, 96, -16, -70, 445, 125, 107, 524, 481, 235, 140, 327
104257356, 9913, 9137, -9307, -222, 2666, 2250, -1101, -173, 18, -76, 445, 125, 107, 524, 481, 235, 140, 327
104269886, 9913, 9137, -9307, -222, 2666, 2250, -1101, -173, 18, -76, 455, 118, 88, 494, 529, 240, 114, 333
104270697, 9913, 9137, -9307, -222, 2666, 2250, -1101, -173, 18, -76, 455, 118, 88, 494, 529, 240, 114, 333
104276902, 9919, 9116, -9321, -222, 2549, 2061, -1124, -217, 12, -95, 455, 118, 88, 494, 529, 240, 114, 333
104292426, 9919, 9116, -9321, -222, 2549, 2061, -1124, -217, 12, -95, 406, 102, 83, 520, 531, 240, 102, 316
104293257, 9919, 9116, -9321, -222, 2549, 2061, -1124, -217, 12, -95, 406, 102, 83, 520, 531, 240, 102, 316
104299411, 9911, 9104, -9342, -201, 2544, 1940, -1080, -68, -9, -70, 406, 102, 83, 520, 531, 240, 102, 316
104315337, 9911, 9104, -9342, -201, 2544, 1940, -1080, -68, -9, -70, 446, 104, 78, 518, 484, 239, 148, 317
104316155, 9911, 9104, -9342, -201, 2544, 1940, -1080, -68, -9, -70, 446, 104, 78, 518, 484, 239, 148, 317
104322361, 9874, 9121, -9366, -152, 2581, 2014, -1120, 210, -13, -33, 446, 104, 78, 518, 484, 239, 148, 317
104329935, 9874, 9121, -9366, -152, 2581, 2014, -1120, 210, -13, -33, 461, 96, 73, 417, 394, 218, 148, 294
104330744, 9874, 9121, -9366, -152, 2581, 2014, -1120, 210, -13, -33, 461, 96, 73, 417, 394, 218, 148, 294
104336906, 9839, 9137, -9387, -109, 2607, 2249, -1200, 194, 2, 24, 461, 96, 73, 417, 394, 218, 148, 294
104352458, 9839, 9137, -9387, -109, 2607, 2249, -1200, 194, 2, 24, 377, 99, 77, 389, 397, 243, 155, 292
104353255, 9839, 9137, -9387, -109, 2607, 2249, -1200, 194, 2, 24, 377, 99, 77, 389, 397, 243, 155, 292
104359411, 9851, 9113, -9398, -105, 2632, 2272, -1110, -173, 30, -6, 377, 99, 77, 389, 397, 243, 155, 292
104375580, 9851, 9113, -9398, -105, 2632, 2272, -1110, -173, 30, -6, 416, 98, 74, 439, 324, 243, 178, 354
104376404, 9851, 9113, -9398, -105, 2632, 2272, -1110, -173, 30, -6, 416, 98, 74, 439, 324, 243, 178, 354
104377329, 9851, 9089, -9422, -101, 2485, 1911, -1104, -188, -35, -38, 416, 98, 74, 439, 324, 243, 178, 354
104389906, 9851, 9089, -9422, -101, 2485, 1911, -1104, -188, -35, -38, 430, 97, 81, 406, 329, 252, 183, 399
104390708, 9851, 9089, -9422, -101, 2485, 1911, -1104, -188, -35, -38, 430, 97, 81, 406, 329, 252, 183, 399
104396889, 9827, 9089, -9447, -68, 2573, 1985, -1052, 98, -53, -16, 430, 97, 81, 406, 329, 252, 183, 399
104412410, 9827, 9089, -9447, -68, 2573, 1985, -1052, 98, -53, -16, 405, 97, 87, 400, 416, 259, 151, 406
104413203, 9827, 9089, -9447, -68, 2573, 1985, -1052, 98, -53, -16, 405, 97, 87, 400, 416, 259, 151, 406
104419358, 9790, 9109, -9466, -34, 2595, 2217, -1180, 209, -43, -10, 405, 97, 87, 400, 416, 259, 151, 406
104435606, 9790, 9109, -9466, -34, 2595, 2217, -1180, 209, -43, -10, 400, 96, 85, 402, 422, 263, 158, 444
104436451, 9790, 9109, -9466, -34, 2595, 2217, -1180, 209, -43, -10, 400, 96, 85, 402, 422, 263, 158, 444
104437355, 9784, 9096, -9484, -34, 2586, 2275, -1174, -96, -41, 15, 400, 96, 85, 402, 422, 263, 158, 444
104449237, 9784, 9096, -9484, -34, 2586, 2275, -1174, -96, -41, 15, 434, 111, 79, 405, 388, 202, 156, 447
104457200, 9784, 9096, -9484, -34, 2586, 2275, -1174, -96, -41, 15, 434, 111, 79, 405, 388, 202, 156, 447
104464881, 9784, 9072, -9508, -38, 2528, 2078, -1131, -183, -63, 1, 434, 111, 79, 405, 388, 202, 156, 447
104472388, 9784, 9072, -9508, -38, 2528, 2078, -1131, -183, -63, 1, 426, 120, 75, 333, 451, 204, 140, 432
104473202, 9784, 9072, -9508, -38, 2528, 2078, -1131, -183, -63, 1, 426, 120, 75, 333, 451, 204, 140, 432
104479400, 9774, 9054, -9535, -26, 2570, 1994, -1074, -66, -83, -2, 426, 120, 75, 333, 451, 204, 140, 432
104495348, 9774, 9054, -9535, -26, 2570, 1994, -1074, -66, -83, -2, 423, 118, 67, 355, 440, 196, 165, 407
104496174, 9774, 9054, -9535, -26, 2570, 1994, -1074, -66, -83, -2, 423, 118, 67, 355, 440, 196, 165, 407
104502320, 9740, 9065, -9560, 5, 2582, 2052, -1121, 169, -87, -7, 423, 118, 67, 355, 440, 196, 165, 407
104518098, 9740, 9065, -9560, 5, 2582, 2052, -1121, 169, -87, -7, 401, 116, 63, 368, 407, 180, 151, 421
104518898, 9740, 9065, -9560, 5, 2582, 2052, -1121, 169, -87, -7, 401, 116, 63, 368, 407, 180, 151, 421
104519867, 9711, 9078, -9577, 30, 2596, 2200, -1180, 146, -48, 2, 401, 116, 63, 368, 407, 180, 151, 421
104532425, 9711, 9078, -9577, 30, 2596, 2200, -1180, 146, -48, 2, 395, 121, 68, 357, 406, 166, 142, 477
104533236, 9711, 9078, -9577, 30, 2596, 2200, -1180, 146, -48, 2, 395, 121, 68, 357, 406, 166, 142, 477
104546876, 9703, 9069, -9594, 38, 2602, 2226, -1156, -30, -44, 23, 395, 121, 68, 357, 406, 166, 142, 477
104555606, 9703, 9069, -9594, 38, 2602, 2226, -1156, -30, -44, 23, 367, 102, 63, 367, 453, 179, 164, 464
104556396, 9703, 9069, -9594, 38, 2602, 2226, -1156, -30, -44, 23, 367, 102, 63, 367, 453, 179, 164, 464
104557344, 9694, 9059, -9612, 49, 2563, 2056, -1131, -34, -44, -11, 367, 102, 63, 367, 453, 179, 164, 464
104578126, 9694, 9059, -9612, 49, 2563, 2056, -1131, -34, -44, -11, 375, 95, 72, 333, 389, 178, 163, 449
104578920, 9694, 9059, -9612, 49, 2563, 2056, -1131, -34, -44, -11, 375, 95, 72, 333, 389, 178, 163, 449
104579874, 9662, 9066, -9637, 77, 2531, 1988, -1110, 147, -99, 11, 375, 95, 72, 333, 389, 178, 163, 449
104592437, 9662, 9066, -9637, 77, 2531, 1988, -1110, 147, -99, 11, 365, 109, 82, 336, 378, 170, 140, 440
104593210, 9662, 9066, -9637, 77, 2531, 1988, -1110, 147, -99, 11, 365, 109, 82, 336, 378, 170, 140, 440
104599353, 9615, 9095, -9656, 122, 2598, 2116, -1172, 335, -72, 8, 365, 109, 82, 336, 378, 170, 140, 440
104615602, 9615, 9095, -9656, 122, 2598, 2116, -1172, 335, -72, 8, 363, 103, 83, 381, 390, 171, 148, 409
104616414, 9615, 9095, -9656, 122, 2598, 2116, -1172, 335, -72, 8, 363, 103, 83, 381, 390, 171, 148, 409
104617339, 9591, 9108, -9668, 152, 2647, 2321, -1178, 200, -29, 52, 363, 103, 83, 381, 390, 171, 148, 409
104638535, 9591, 9108, -9668, 152, 2647, 2321, -1178, 200, -29, 52, 333, 102, 85, 550, 402, 192, 189, 294
104638926, 9591, 9108, -9668, 152, 2647, 2321, -1178, 200, -29, 52, 333, 102, 85, 550, 402, 192, 189, 294
104639881, 9594, 9095, -9677, 157, 2598, 2164, -1150, -66, -10, 12, 333, 102, 85, 550, 402, 192, 189, 294
104652422, 9594, 9095, -9677, 157, 2598, 2164, -1150, -66, -10, 12, 344, 106, 88, 553, 366, 188, 167, 288
104653237, 9594, 9095, -9677, 157, 2598, 2164, -1150, -66, -10, 12, 344, 106, 88, 553, 366, 188, 167, 288