Timestamp, Orientation x, Orientation y, Orientation z, Orientation w, Acceleration x, Acceleration y, Acceleration z, Rotation x, Rotation y, Rotation z, EMG 0, EMG 1, EMG 2, EMG 3, EMG 4, EMG 5, EMG 6, EMG 7
141221654, 9120, 4360, -12860, 940, 3961, 874, -1599, -5, -11, 0, 0, 0, 0, 0, 0, 0, 0, 0
141229147, 9124, 4355, -12859, 934, 3986, 900, -1605, -43, -9, -4, 0, 0, 0, 0, 0, 0, 0, 0
141251629, 9136, 4341, -12856, 915, 4062, 860, -1665, -163, 36, -43, 0, 0, 0, 0, 0, 0, 0, 0
141266676, 9165, 4311, -12848, 892, 4077, 758, -1623, -271, 107, -56, 0, 0, 0, 0, 0, 0, 0, 0
141290470, 9208, 4286, -12826, 884, 4219, 677, -1615, -220, 217, -115, 0, 0, 0, 0, 0, 0, 0, 0
141291288, 9208, 4286, -12826, 884, 4219, 677, -1615, -220, 217, -115, 222, 114, 84, 149, 39, 39, 50, 480
141292108, 9208, 4286, -12826, 884, 4219, 677, -1615, -220, 217, -115, 222, 114, 84, 149, 39, 39, 50, 480
141313004, 9273, 4295, -12773, 917, 4314, 587, -1600, 17, 462, -244, 222, 114, 84, 149, 39, 39, 50, 480
141313833, 9273, 4295, -12773, 917, 4314, 587, -1600, 17, 462, -244, 239, 123, 105, 172, 42, 43, 69, 544
141314642, 9273, 4295, -12773, 917, 4314, 587, -1600, 17, 462, -244, 239, 123, 105, 172, 42, 43, 69, 544
141326687, 9324, 4388, -12698, 1003, 4342, 785, -1705, 565, 594, -366, 239, 123, 105, 172, 42, 43, 69, 544
141334793, 9324, 4388, -12698, 1003, 4342, 785, -1705, 565, 594, -366, 324, 162, 290, 182, 44, 53, 76, 602
141335596, 9324, 4388, -12698, 1003, 4342, 785, -1705, 565, 594, -366, 324, 162, 290, 182, 44, 53, 76, 602
141350503, 9384, 4517, -12605, 1048, 4245, 1160, -1645, 569, 624, -498, 324, 162, 290, 182, 44, 53, 76, 602
141351294, 9384, 4517, -12605, 1048, 4245, 1160, -1645, 569, 624, -498, 422, 197, 418, 219, 44, 59, 77, 625
141352124, 9384, 4517, -12605, 1048, 4245, 1160, -1645, 569, 624, -498, 422, 197, 418, 219, 44, 59, 77, 625
141372952, 9508, 4626, -12471, 1051, 4274, 1169, -1457, 241, 919, -658, 422, 197, 418, 219, 44, 59, 77, 625
141373839, 9508, 4626, -12471, 1051, 4274, 1169, -1457, 241, 919, -658, 496, 218, 451, 214, 56, 61, 77, 628
141374532, 9508, 4626, -12471, 1051, 4274, 1169, -1457, 241, 919, -658, 496, 218, 451, 214, 56, 61, 77, 628
141386624, 9676, 4751, -12295, 1029, 4165, 1162, -1293, 120, 1186, -919, 496, 218, 451, 214, 56, 61, 77, 628
141394848, 9676, 4751, -12295, 1029, 4165, 1162, -1293, 120, 1186, -919, 480, 344, 487, 228, 53, 58, 72, 564
141395602, 9676, 4751, -12295, 1029, 4165, 1162, -1293, 120, 1186, -919, 480, 344, 487, 228, 53, 58, 72, 564
141410496, 9830, 4990, -12078, 1005, 3913, 1507, -1250, 556, 1289, -1317, 480, 344, 487, 228, 53, 58, 72, 564
141411317, 9830, 4990, -12078, 1005, 3913, 1507, -1250, 556, 1289, -1317, 481, 348, 516, 233, 56, 56, 55, 507
141412113, 9830, 4990, -12078, 1005, 3913, 1507, -1250, 556, 1289, -1317, 481, 348, 516, 233, 56, 56, 55, 507
141432976, 9954, 5308, -11841, 979, 3631, 1976, -1242, 852, 1182, -1749, 481, 348, 516, 233, 56, 56, 55, 507
141433844, 9954, 5308, -11841, 979, 3631, 1976, -1242, 852, 1182, -1749, 474, 353, 487, 259, 59, 49, 49, 439
141434606, 9954, 5308, -11841, 979, 3631, 1976, -1242, 852, 1182, -1749, 474, 353, 487, 259, 59, 49, 49, 439
141446646, 10093, 5647, -11570, 888, 3401, 2225, -1279, 636, 1252, -2105, 474, 353, 487, 259, 59, 49, 49, 439
141454843, 10093, 5647, -11570, 888, 3401, 2225, -1279, 636, 1252, -2105, 457, 347, 405, 258, 59, 45, 49, 397
141455613, 10093, 5647, -11570, 888, 3401, 2225, -1279, 636, 1252, -2105, 457, 347, 405, 258, 59, 45, 49, 397
141470535, 10253, 5988, -11266, 733, 3103, 2289, -1282, 345, 1344, -2408, 457, 347, 405, 258, 59, 45, 49, 397
141471330, 10253, 5988, -11266, 733, 3103, 2289, -1282, 345, 1344, -2408, 371, 334, 385, 268, 51, 40, 49, 337
141472162, 10253, 5988, -11266, 733, 3103, 2289, -1282, 345, 1344, -2408, 371, 334, 385, 268, 51, 40, 49, 337
141492990, 10400, 6347, -10940, 548, 2850, 2000, -1107, 315, 1299, -2670, 371, 334, 385, 268, 51, 40, 49, 337
141493852, 10400, 6347, -10940, 548, 2850, 2000, -1107, 315, 1299, -2670, 382, 207, 342, 340, 49, 47, 54, 347
141494615, 10400, 6347, -10940, 548, 2850, 2000, -1107, 315, 1299, -2670, 382, 207, 342, 340, 49, 47, 54, 347
141515546, 10501, 6741, -10611, 343, 2694, 2093, -1140, 452, 1091, -2878, 382, 207, 342, 340, 49, 47, 54, 347
141516315, 10501, 6741, -10611, 343, 2694, 2093, -1140, 452, 1091, -2878, 480, 213, 352, 363, 79, 115, 55, 428
141517150, 10501, 6741, -10611, 343, 2694, 2093, -1140, 452, 1091, -2878, 480, 213, 352, 363, 79, 115, 55, 428
141530497, 10547, 7167, -10286, 138, 2595, 2273, -1221, 682, 890, -2975, 480, 213, 352, 363, 79, 115, 55, 428
141531323, 10547, 7167, -10286, 138, 2595, 2273, -1221, 682, 890, -2975, 571, 187, 291, 401, 103, 238, 50, 454
141532139, 10547, 7167, -10286, 138, 2595, 2273, -1221, 682, 890, -2975, 571, 187, 291, 401, 103, 238, 50, 454
141552964, 10586, 7570, -9952, -104, 2624, 2494, -1218, 481, 799, -3061, 571, 187, 291, 401, 103, 238, 50, 454
141553833, 10586, 7570, -9952, -104, 2624, 2494, -1218, 481, 799, -3061, 674, 164, 264, 390, 108, 269, 48, 448
141554603, 10586, 7570, -9952, -104, 2624, 2494, -1218, 481, 799, -3061, 674, 164, 264, 390, 108, 269, 48, 448
141566646, 10600, 7974, -9611, -352, 2707, 2519, -1213, 515, 715, -3141, 674, 164, 264, 390, 108, 269, 48, 448
141582287, 10600, 7974, -9611, -352, 2707, 2519, -1213, 515, 715, -3141, 829, 169, 240, 378, 114, 276, 55, 472
141583078, 10600, 7974, -9611, -352, 2707, 2519, -1213, 515, 715, -3141, 829, 169, 240, 378, 114, 276, 55, 472
141590323, 10612, 8361, -9250, -584, 2669, 2280, -1105, 514, 811, -3132, 829, 169, 240, 378, 114, 276, 55, 472
141591143, 10612, 8361, -9250, -584, 2669, 2280, -1105, 514, 811, -3132, 902, 167, 240, 355, 127, 289, 69, 581
141599271, 10612, 8361, -9250, -584, 2669, 2280, -1105, 514, 811, -3132, 902, 167, 240, 355, 127, 289, 69, 581
141600075, 10612, 8361, -9250, -584, 2669, 2280, -1105, 514, 811, -3132, 902, 167, 240, 355, 127, 289, 69, 581
141600895, 10612, 8361, -9250, -584, 2669, 2280, -1105, 514, 811, -3132, 902, 167, 240, 355, 127, 289, 69, 581
141601726, 10612, 8361, -9250, -584, 2669, 2280, -1105, 514, 811, -3132, 902, 167, 240, 355, 127, 289, 69, 581
141604100, 10612, 8361, -9250, -584, 2669, 2280, -1105, 514, 811, -3132, 902, 167, 240, 355, 127, 289, 69, 581
141614396, 10587, 8715, -8929, -813, 2443, 2144, -1188, 489, 556, -2928, 902, 167, 240, 355, 127, 289, 69, 581
141615218, 10587, 8715, -8929, -813, 2443, 2144, -1188, 489, 556, -2928, 917, 162, 141, 418, 116, 329, 92, 589
141616018, 10587, 8715, -8929, -813, 2443, 2144, -1188, 489, 556, -2928, 917, 162, 141, 418, 116, 329, 92, 589
141616841, 10587, 8715, -8929, -813, 2443, 2144, -1188, 489, 556, -2928, 917, 162, 141, 418, 116, 329, 92, 589
141621845, 10587, 8715, -8929, -813, 2443, 2144, -1188, 489, 556, -2928, 917, 162, 141, 418, 116, 329, 92, 589
141622614, 10587, 8715, -8929, -813, 2443, 2144, -1188, 489, 556, -2928, 917, 162, 141, 418, 116, 329, 92, 589
141623414, 10587, 8715, -8929, -813, 2443, 2144, -1188, 489, 556, -2928, 917, 162, 141, 418, 116, 329, 92, 589
141624247, 10587, 8715, -8929, -813, 2443, 2144, -1188, 489, 556, -2928, 917, 162, 141, 418, 116, 329, 92, 589
141627264, 10587, 8715, -8929, -813, 2443, 2144, -1188, 489, 556, -2928, 917, 162, 141, 418, 116, 329, 92, 589
141628224, 10533, 9025, -8655, -1055, 2595, 2170, -1169, 395, 232, -2747, 917, 162, 141, 418, 116, 329, 92, 589
141636906, 10533, 9025, -8655, -1055, 2595, 2170, -1169, 395, 232, -2747, 874, 151, 129, 461, 99, 291, 111, 583
141637694, 10533, 9025, -8655, -1055, 2595, 2170, -1169, 395, 232, -2747, 874, 151, 129, 461, 99, 291, 111, 583
141638496, 10533, 9025, -8655, -1055, 2595, 2170, -1169, 395, 232, -2747, 874, 151, 129, 461, 99, 291, 111, 583
141639324, 10533, 9025, -8655, -1055, 2595, 2170, -1169, 395, 232, -2747, 874, 151, 129, 461, 99, 291, 111, 583
141643622, 10533, 9025, -8655, -1055, 2595, 2170, -1169, 395, 232, -2747, 874, 151, 129, 461, 99, 291, 111, 583
141644443, 10533, 9025, -8655, -1055, 2595, 2170, -1169, 395, 232, -2747, 874, 151, 129, 461, 99, 291, 111, 583
141645246, 10533, 9025, -8655, -1055, 2595, 2170, -1169, 395, 232, -2747, 874, 151, 129, 461, 99, 291, 111, 583
141646072, 10533, 9025, -8655, -1055, 2595, 2170, -1169, 395, 232, -2747, 874, 151, 129, 461, 99, 291, 111, 583
141651251, 10428, 9331, -8429, -1250, 2768, 2245, -1154, 701, 33, -2469, 874, 151, 129, 461, 99, 291, 111, 583
141652069, 10428, 9331, -8429, -1250, 2768, 2245, -1154, 701, 33, -2469, 762, 151, 124, 491, 96, 282, 146, 583
141652896, 10428, 9331, -8429, -1250, 2768, 2245, -1154, 701, 33, -2469, 762, 151, 124, 491, 96, 282, 146, 583
141653702, 10428, 9331, -8429, -1250, 2768, 2245, -1154, 701, 33, -2469, 762, 151, 124, 491, 96, 282, 146, 583
141657923, 10428, 9331, -8429, -1250, 2768, 2245, -1154, 701, 33, -2469, 762, 151, 124, 491, 96, 282, 146, 583
141658761, 10428, 9331, -8429, -1250, 2768, 2245, -1154, 701, 33, -2469, 762, 151, 124, 491, 96, 282, 146, 583
141659572, 10428, 9331, -8429, -1250, 2768, 2245, -1154, 701, 33, -2469, 762, 151, 124, 491, 96, 282, 146, 583
141672970, 10325, 9585, -8242, -1422, 2825, 2372, -1402, 562, -38, -2135, 762, 151, 124, 491, 96, 282, 146, 583
141673842, 10325, 9585, -8242, -1422, 2825, 2372, -1402, 562, -38, -2135, 605, 145, 127, 641, 102, 292, 206, 539
141674598, 10325, 9585, -8242, -1422, 2825, 2372, -1402, 562, -38, -2135, 605, 145, 127, 641, 102, 292, 206, 539
141686662, 10239, 9764, -8108, -1587, 2794, 2277, -1363, 288, -204, -1727, 605, 145, 127, 641, 102, 292, 206, 539
141694751, 10239, 9764, -8108, -1587, 2794, 2277, -1363, 288, -204, -1727, 519, 120, 113, 636, 93, 310, 215, 433
141695571, 10239, 9764, -8108, -1587, 2794, 2277, -1363, 288, -204, -1727, 519, 120, 113, 636, 93, 310, 215, 433
141710487, 10126, 9877, -8104, -1630, 3022, 2058, -1394, 245, -352, -1401, 519, 120, 113, 636, 93, 310, 215, 433
141711273, 10126, 9877, -8104, -1630, 3022, 2058, -1394, 245, -352, -1401, 464, 105, 111, 650, 92, 256, 216, 364
141712094, 10126, 9877, -8104, -1630, 3022, 2058, -1394, 245, -352, -1401, 464, 105, 111, 650, 92, 256, 216, 364
141733012, 10021, 9950, -8146, -1627, 3160, 2063, -1336, 275, -427, -1040, 464, 105, 111, 650, 92, 256, 216, 364
141733855, 10021, 9950, -8146, -1627, 3160, 2063, -1336, 275, -427, -1040, 436, 121, 123, 636, 88, 218, 223, 356
141734639, 10021, 9950, -8146, -1627, 3160, 2063, -1336, 275, -427, -1040, 436, 121, 123, 636, 88, 218, 223, 356
141746663, 9936, 9975, -8226, -1596, 3254, 2051, -1412, 132, -448, -705, 436, 121, 123, 636, 88, 218, 223, 356
141754779, 9936, 9975, -8226, -1596, 3254, 2051, -1412, 132, -448, -705, 508, 122, 132, 632, 90, 253, 209, 342
141755568, 9936, 9975, -8226, -1596, 3254, 2051, -1412, 132, -448, -705, 508, 122, 132, 632, 90, 253, 209, 342
141770478, 9904, 9936, -8321, -1546, 3296, 1884, -1260, -146, -374, -416, 508, 122, 132, 632, 90, 253, 209, 342
141771294, 9904, 9936, -8321, -1546, 3296, 1884, -1260, -146, -374, -416, 583, 131, 143, 489, 89, 461, 237, 387
141772096, 9904, 9936, -8321, -1546, 3296, 1884, -1260, -146, -374, -416, 583, 131, 143, 489, 89, 461, 237, 387
141792997, 9909, 9850, -8426, -1492, 3256, 1913, -1270, -409, -302, -166, 583, 131, 143, 489, 89, 461, 237, 387
141793850, 9909, 9850, -8426, -1492, 3256, 1913, -1270, -409, -302, -166, 593, 131, 150, 619, 200, 652, 373, 454
141794651, 9909, 9850, -8426, -1492, 3256, 1913, -1270, -409, -302, -166, 593, 131, 150, 619, 200, 652, 373, 454
141806679, 9890, 9767, -8562, -1381, 3458, 1593, -1262, -168, -312, -31, 593, 131, 150, 619, 200, 652, 373, 454
141814771, 9890, 9767, -8562, -1381, 3458, 1593, -1262, -168, -312, -31, 600, 161, 226, 676, 443, 848, 506, 449
141815599, 9890, 9767, -8562, -1381, 3458, 1593, -1262, -168, -312, -31, 600, 161, 226, 676, 443, 848, 506, 449
141830503, 9842, 9729, -8680, -1252, 3477, 1712, -1398, 99, -218, -105, 600, 161, 226, 676, 443, 848, 506, 449
141831295, 9842, 9729, -8680, -1252, 3477, 1712, -1398, 99, -218, -105, 640, 181, 239, 830, 712, 940, 539, 446
141832125, 9842, 9729, -8680, -1252, 3477, 1712, -1398, 99, -218, -105, 640, 181, 239, 830, 712, 940, 539, 446
141852946, 9838, 9666, -8767, -1160, 3292, 1608, -1408, -265, -78, -160, 640, 181, 239, 830, 712, 940, 539, 446
141853848, 9838, 9666, -8767, -1160, 3292, 1608, -1408, -265, -78, -160, 605, 189, 254, 866, 852, 1054, 582, 459
141854530, 9838, 9666, -8767, -1160, 3292, 1608, -1408, -265, -78, -160, 605, 189, 254, 866, 852, 1054, 582, 459
141866625, 9845, 9618, -8826, -1047, 3476, 1723, -1384, -166, 93, -239, 605, 189, 254, 866, 852, 1054, 582, 459
141874846, 9845, 9618, -8826, -1047, 3476, 1723, -1384, -166, 93, -239, 539, 196, 247, 959, 946, 1109, 597, 456
141875589, 9845, 9618, -8826, -1047, 3476, 1723, -1384, -166, 93, -239, 539, 196, 247, 959, 946, 1109, 597, 456
141889869, 9842, 9630, -8826, -952, 3132, 1822, -1425, -1, 292, -474, 539, 196, 247, 959, 946, 1109, 597, 456
141890679, 9842, 9630, -8826, -952, 3132, 1822, -1425, -1, 292, -474, 583, 222, 255, 898, 1066, 1116, 661, 376
141896620, 9842, 9630, -8826, -952, 3132, 1822, -1425, -1, 292, -474, 583, 222, 255, 898, 1066, 1116, 661, 376
141913008, 9847, 9610, -8853, -855, 2712, 1540, -1272, -91, 246, -171, 583, 222, 255, 898, 1066, 1116, 661, 376
141913853, 9847, 9610, -8853, -855, 2712, 1540, -1272, -91, 246, -171, 615, 228, 242, 889, 1152, 1153, 703, 443
141914619, 9847, 9610, -8853, -855, 2712, 1540, -1272, -91, 246, -171, 615, 228, 242, 889, 1152, 1153, 703, 443
141926679, 9809, 9636, -8878, -725, 2628, 1755, -1231, 368, 235, -89, 615, 228, 242, 889, 1152, 1153, 703, 443
141934773, 9809, 9636, -8878, -725, 2628, 1755, -1231, 368, 235, -89, 739, 235, 228, 870, 1124, 1190, 770, 492
141935616, 9809, 9636, -8878, -725, 2628, 1755, -1231, 368, 235, -89, 739, 235, 228, 870, 1124, 1190, 770, 492
141949846, 9759, 9676, -8898, -619, 2861, 2087, -1439, 356, 167, -206, 739, 235, 228, 870, 1124, 1190, 770, 492
141950632, 9759, 9676, -8898, -619, 2861, 2087, -1439, 356, 167, -206, 760, 240, 233, 1008, 1208, 1203, 815, 487
141956606, 9759, 9676, -8898, -619, 2861, 2087, -1439, 356, 167, -206, 760, 240, 233, 1008, 1208, 1203, 815, 487
141972983, 9782, 9678, -8873, -587, 2926, 2469, -1458, -194, 284, -360, 760, 240, 233, 1008, 1208, 1203, 815, 487
141973844, 9782, 9678, -8873, -587, 2926, 2469, -1458, -194, 284, -360, 796, 232, 237, 950, 1284, 1166, 851, 445
141974536, 9782, 9678, -8873, -587, 2926, 2469, -1458, -194, 284, -360, 796, 232, 237, 950, 1284, 1166, 851, 445
141986623, 9907, 9631, -8784, -616, 2874, 2379, -1490, -951, 645, -628, 796, 232, 237, 950, 1284, 1166, 851, 445
141994851, 9907, 9631, -8784, -616, 2874, 2379, -1490, -951, 645, -628, 911, 240, 223, 931, 1341, 1100, 888, 456
141995607, 9907, 9631, -8784, -616, 2874, 2379, -1490, -951, 645, -628, 911, 240, 223, 931, 1341, 1100, 888, 456
142009122, 10040, 9561, -8709, -615, 2491, 1745, -1454, -1063, 789, -464, 911, 240, 223, 931, 1341, 1100, 888, 456
142017295, 10040, 9561, -8709, -615, 2491, 1745, -1454, -1063, 789, -464, 908, 240, 168, 861, 1247, 960, 891, 385
142018093, 10040, 9561, -8709, -615, 2491, 1745, -1454, -1063, 789, -464, 908, 240, 168, 861, 1247, 960, 891, 385
142032998, 10110, 9534, -8665, -481, 2533, 1556, -1109, -194, 836, -111, 908, 240, 168, 861, 1247, 960, 891, 385
142033847, 10110, 9534, -8665, -481, 2533, 1556, -1109, -194, 836, -111, 925, 236, 172, 805, 1253, 898, 845, 318
142034629, 10110, 9534, -8665, -481, 2533, 1556, -1109, -194, 836, -111, 925, 236, 172, 805, 1253, 898, 845, 318
142046678, 10121, 9589, -8597, -345, 2686, 2301, -1391, 263, 852, -229, 925, 236, 172, 805, 1253, 898, 845, 318
142054776, 10121, 9589, -8597, -345, 2686, 2301, -1391, 263, 852, -229, 923, 231, 140, 623, 1228, 774, 829, 292
142055569, 10121, 9589, -8597, -345, 2686, 2301, -1391, 263, 852, -229, 923, 231, 140, 623, 1228, 774, 829, 292
142069147, 10218, 9580, -8496, -271, 2654, 2462, -1198, -340, 967, -279, 923, 231, 140, 623, 1228, 774, 829, 292
142077246, 10218, 9580, -8496, -271, 2654, 2462, -1198, -340, 967, -279, 924, 254, 151, 616, 1112, 732, 783, 310
142078069, 10218, 9580, -8496, -271, 2654, 2462, -1198, -340, 967, -279, 924, 254, 151, 616, 1112, 732, 783, 310
142092971, 10348, 9535, -8390, -178, 2605, 1884, -942, -507, 1086, -299, 924, 254, 151, 616, 1112, 732, 783, 310
142093845, 10348, 9535, -8390, -178, 2605, 1884, -942, -507, 1086, -299, 819, 236, 149, 622, 998, 703, 640, 378
142094554, 10348, 9535, -8390, -178, 2605, 1884, -942, -507, 1086, -299, 819, 236, 149, 622, 998, 703, 640, 378
142106647, 10383, 9584, -8292, 5, 2644, 1816, -1021, 350, 1120, -249, 819, 236, 149, 622, 998, 703, 640, 378
142114851, 10383, 9584, -8292, 5, 2644, 1816, -1021, 350, 1120, -249, 794, 219, 158, 715, 1101, 698, 569, 433
142115603, 10383, 9584, -8292, 5, 2644, 1816, -1021, 350, 1120, -249, 794, 219, 158, 715, 1101, 698, 569, 433
142129128, 10414, 9664, -8158, 179, 2629, 2425, -1112, 468, 1254, -258, 794, 219, 158, 715, 1101, 698, 569, 433
142137304, 10414, 9664, -8158, 179, 2629, 2425, -1112, 468, 1254, -258, 626, 201, 167, 658, 1064, 618, 548, 418
142138107, 10414, 9664, -8158, 179, 2629, 2425, -1112, 468, 1254, -258, 626, 201, 167, 658, 1064, 618, 548, 418
142153011, 10476, 9722, -8004, 321, 2522, 2380, -1132, 180, 1341, -347, 626, 201, 167, 658, 1064, 618, 548, 418
142153837, 10476, 9722, -8004, 321, 2522, 2380, -1132, 180, 1341, -347, 672, 198, 170, 593, 924, 559, 486, 444
142154631, 10476, 9722, -8004, 321, 2522, 2380, -1132, 180, 1341, -347, 672, 198, 170, 593, 924, 559, 486, 444
142166667, 10559, 9760, -7838, 490, 2600, 2282, -1056, 111, 1522, -300, 672, 198, 170, 593, 924, 559, 486, 444
142174776, 10559, 9760, -7838, 490, 2600, 2282, -1056, 111, 1522, -300, 629, 167, 161, 589, 914, 463, 451, 437
142175596, 10559, 9760, -7838, 490, 2600, 2282, -1056, 111, 1522, -300, 629, 167, 161, 589, 914, 463, 451, 437
142189179, 10672, 9803, -7617, 654, 2359, 2134, -1011, 195, 1682, -327, 629, 167, 161, 589, 914, 463, 451, 437
142197275, 10672, 9803, -7617, 654, 2359, 2134, -1011, 195, 1682, -327, 554, 156, 173, 617, 943, 413, 433, 361
142198072, 10672, 9803, -7617, 654, 2359, 2134, -1011, 195, 1682, -327, 554, 156, 173, 617, 943, 413, 433, 361
142211713, 10749, 9878, -7386, 865, 2050, 2218, -1188, 535, 1801, -226, 554, 156, 173, 617, 943, 413, 433, 361
142219762, 10749, 9878, -7386, 865, 2050, 2218, -1188, 535, 1801, -226, 548, 179, 190, 575, 862, 316, 357, 280
142220586, 10749, 9878, -7386, 865, 2050, 2218, -1188, 535, 1801, -226, 548, 179, 190, 575, 862, 316, 357, 280
142226732, 10855, 9922, -7138, 1091, 2165, 2541, -1224, 366, 2002, -137, 548, 179, 190, 575, 862, 316, 357, 280
142234756, 10855, 9922, -7138, 1091, 2165, 2541, -1224, 366, 2002, -137, 603, 187, 189, 557, 800, 286, 361, 260
142235579, 10855, 9922, -7138, 1091, 2165, 2541, -1224, 366, 2002, -137, 603, 187, 189, 557, 800, 286, 361, 260
142249171, 11016, 9898, -6886, 1295, 2103, 2411, -1099, -133, 2104, -97, 603, 187, 189, 557, 800, 286, 361, 260
142257272, 11016, 9898, -6886, 1295, 2103, 2411, -1099, -133, 2104, -97, 676, 222, 205, 612, 795, 272, 349, 227
142258085, 11016, 9898, -6886, 1295, 2103, 2411, -1099, -133, 2104, -97, 676, 222, 205, 612, 795, 272, 349, 227
142271687, 11187, 9847, -6637, 1503, 1981, 2213, -1036, -255, 2144, -13, 676, 222, 205, 612, 795, 272, 349, 227
142279773, 11187, 9847, -6637, 1503, 1981, 2213, -1036, -255, 2144, -13, 673, 235, 206, 598, 801, 228, 357, 210
142280598, 11187, 9847, -6637, 1503, 1981, 2213, -1036, -255, 2144, -13, 673, 235, 206, 598, 801, 228, 357, 210
142286717, 11343, 9794, -6388, 1735, 1736, 2373, -1131, -184, 2211, 131, 673, 235, 206, 598, 801, 228, 357, 210
142294124, 11343, 9794, -6388, 1735, 1736, 2373, -1131, -184, 2211, 131, 680, 238, 199, 545, 682, 214, 410, 182
142301619, 11343, 9794, -6388, 1735, 1736, 2373, -1131, -184, 2211, 131, 680, 238, 199, 545, 682, 214, 410, 182
142309249, 11501, 9721, -6147, 1968, 1474, 2390, -1332, -298, 2224, 232, 680, 238, 199, 545, 682, 214, 410, 182
142317292, 11501, 9721, -6147, 1968, 1474, 2390, -1332, -298, 2224, 232, 722, 267, 176, 454, 633, 231, 499, 200
142318091, 11501, 9721, -6147, 1968, 1474, 2390, -1332, -298, 2224, 232, 722, 267, 176, 454, 633, 231, 499, 200
142331679, 11678, 9599, -5919, 2206, 1300, 2337, -1364, -569, 2274, 403, 722, 267, 176, 454, 633, 231, 499, 200
142339783, 11678, 9599, -5919, 2206, 1300, 2337, -1364, -569, 2274, 403, 676, 276, 182, 555, 615, 219, 497, 223
142340659, 11678, 9599, -5919, 2206, 1300, 2337, -1364, -569, 2274, 403, 676, 276, 182, 555, 615, 219, 497, 223
142346746, 11861, 9449, -5707, 2425, 1318, 2330, -1354, -758, 2184, 425, 676, 276, 182, 555, 615, 219, 497, 223
142354847, 11861, 9449, -5707, 2425, 1318, 2330, -1354, -758, 2184, 425, 601, 261, 174, 543, 670, 262, 592, 239
142355601, 11861, 9449, -5707, 2425, 1318, 2330, -1354, -758, 2184, 425, 601, 261, 174, 543, 670, 262, 592, 239
142369192, 12050, 9277, -5501, 2622, 1614, 2369, -1237, -914, 2123, 372, 601, 261, 174, 543, 670, 262, 592, 239
142377283, 12050, 9277, -5501, 2622, 1614, 2369, -1237, -914, 2123, 372, 745, 281, 189, 554, 690, 262, 646, 250
142378098, 12050, 9277, -5501, 2622, 1614, 2369, -1237, -914, 2123, 372, 745, 281, 189, 554, 690, 262, 646, 250
142391683, 12255, 9067, -5307, 2804, 1390, 2361, -1329, -1182, 2104, 424, 745, 281, 189, 554, 690, 262, 646, 250
142399769, 12255, 9067, -5307, 2804, 1390, 2361, -1329, -1182, 2104, 424, 768, 300, 189, 615, 814, 266, 778, 246
142400580, 12255, 9067, -5307, 2804, 1390, 2361, -1329, -1182, 2104, 424, 768, 300, 189, 615, 814, 266, 778, 246
142406752, 12448, 8861, -5115, 2962, 1458, 2181, -1356, -1185, 2005, 320, 768, 300, 189, 615, 814, 266, 778, 246
142414122, 12448, 8861, -5115, 2962, 1458, 2181, -1356, -1185, 2005, 320, 792, 260, 189, 649, 799, 253, 937, 231
142421629, 12448, 8861, -5115, 2962, 1458, 2181, -1356, -1185, 2005, 320, 792, 260, 189, 649, 799, 253, 937, 231
142429251, 12605, 8690, -4936, 3107, 1324, 2183, -1560, -993, 1835, 288, 792, 260, 189, 649, 799, 253, 937, 231
142437301, 12605, 8690, -4936, 3107, 1324, 2183, -1560, -993, 1835, 288, 802, 266, 173, 584, 914, 290, 997, 216
142438097, 12605, 8690, -4936, 3107, 1324, 2183, -1560, -993, 1835, 288, 802, 266, 173, 584, 914, 290, 997, 216
142451681, 12740, 8530, -4782, 3237, 1079, 2183, -1645, -946, 1634, 320, 802, 266, 173, 584, 914, 290, 997, 216
142459782, 12740, 8530, -4782, 3237, 1079, 2183, -1645, -946, 1634, 320, 733, 281, 161, 617, 920, 280, 1019, 181
142460606, 12740, 8530, -4782, 3237, 1079, 2183, -1645, -946, 1634, 320, 733, 281, 161, 617, 920, 280, 1019, 181
142466770, 12752, 8519, -4720, 3307, 1212, 1999, -1602, -829, 1276, 397, 733, 281, 161, 617, 920, 280, 1019, 181
142482271, 12752, 8519, -4720, 3307, 1212, 1999, -1602, -829, 1276, 397, 644, 265, 136, 669, 914, 330, 1127, 187
142483097, 12752, 8519, -4720, 3307, 1212, 1999, -1602, -829, 1276, 397, 644, 265, 136, 669, 914, 330, 1127, 187
142489258, 12732, 8545, -4704, 3341, 1404, 2093, -1468, -650, 860, 308, 644, 265, 136, 669, 914, 330, 1127, 187
142497272, 12732, 8545, -4704, 3341, 1404, 2093, -1468, -650, 860, 308, 688, 253, 156, 650, 860, 358, 1137, 203
142498097, 12732, 8545, -4704, 3341, 1404, 2093, -1468, -650, 860, 308, 688, 253, 156, 650, 860, 358, 1137, 203
142511677, 12696, 8577, -4738, 3347, 1514, 2167, -1425, -670, 531, 322, 688, 253, 156, 650, 860, 358, 1137, 203
142519781, 12696, 8577, -4738, 3347, 1514, 2167, -1425, -670, 531, 322, 598, 362, 178, 633, 849, 447, 1086, 235
142520594, 12696, 8577, -4738, 3347, 1514, 2167, -1425, -670, 531, 322, 598, 362, 178, 633, 849, 447, 1086, 235
142526755, 12641, 8651, -4783, 3304, 1492, 2072, -1270, -438, 189, 73, 598, 362, 178, 633, 849, 447, 1086, 235
142542287, 12641, 8651, -4783, 3304, 1492, 2072, -1270, -438, 189, 73, 632, 402, 186, 607, 753, 518, 1083, 393
142543074, 12641, 8651, -4783, 3304, 1492, 2072, -1270, -438, 189, 73, 632, 402, 186, 607, 753, 518, 1083, 393
142549233, 12561, 8758, -4835, 3247, 1583, 2139, -1201, -221, 21, -9, 632, 402, 186, 607, 753, 518, 1083, 393
142557288, 12561, 8758, -4835, 3247, 1583, 2139, -1201, -221, 21, -9, 653, 391, 182, 593, 702, 524, 1034, 483
142558104, 12561, 8758, -4835, 3247, 1583, 2139, -1201, -221, 21, -9, 653, 391, 182, 593, 702, 524, 1034, 483
142571686, 12478, 8866, -4892, 3191, 1641, 2160, -1114, -159, -48, -8, 653, 391, 182, 593, 702, 524, 1034, 483
142579776, 12478, 8866, -4892, 3191, 1641, 2160, -1114, -159, -48, -8, 625, 388, 178, 503, 711, 502, 879, 487
142580564, 12478, 8866, -4892, 3191, 1641, 2160, -1114, -159, -48, -8, 625, 388, 178, 503, 711, 502, 879, 487
142586716, 12395, 8968, -4949, 3139, 1684, 2141, -1013, -123, -72, -3, 625, 388, 178, 503, 711, 502, 879, 487
142602258, 12395, 8968, -4949, 3139, 1684, 2141, -1013, -123, -72, -3, 525, 405, 165, 486, 689, 500, 729, 481
142603076, 12395, 8968, -4949, 3139, 1684, 2141, -1013, -123, -72, -3, 525, 405, 165, 486, 689, 500, 729, 481
142609233, 12310, 9069, -5005, 3094, 1717, 2136, -993, -78, -68, 5, 525, 405, 165, 486, 689, 500, 729, 481
142617273, 12310, 9069, -5005, 3094, 1717, 2136, -993, -78, -68, 5, 550, 328, 153, 516, 683, 416, 517, 462
142618075, 12310, 9069, -5005, 3094, 1717, 2136, -993, -78, -68, 5, 550, 328, 153, 516, 683, 416, 517, 462
142631647, 12230, 9164, -5057, 3046, 1683, 2172, -954, -91, -81, 15, 550, 328, 153, 516, 683, 416, 517, 462
142639750, 12230, 9164, -5057, 3046, 1683, 2172, -954, -91, -81, 15, 481, 267, 153, 463, 677, 304, 360, 331
142640568, 12230, 9164, -5057, 3046, 1683, 2172, -954, -91, -81, 15, 481, 267, 153, 463, 677, 304, 360, 331
142646725, 12146, 9262, -5108, 3003, 1648, 2156, -977, -50, -81, 33, 481, 267, 153, 463, 677, 304, 360, 331
142670493, 12146, 9262, -5108, 3003, 1648, 2156, -977, -50, -81, 33, 498, 263, 148, 405, 752, 275, 269, 182
142671268, 12146, 9262, -5108, 3003, 1648, 2156, -977, -50, -81, 33, 498, 263, 148, 405, 752, 275, 269, 182
142672204, 12067, 9346, -5160, 2972, 1703, 2103, -937, -59, -51, 67, 498, 263, 148, 405, 752, 275, 269, 182
142679373, 12067, 9346, -5160, 2972, 1703, 2103, -937, -59, -51, 67, 518, 257, 150, 418, 722, 257, 249, 142
142680198, 12067, 9346, -5160, 2972, 1703, 2103, -937, -59, -51, 67, 518, 257, 150, 418, 722, 257, 249, 142
142681022, 12067, 9346, -5160, 2972, 1703, 2103, -937, -59, -51, 67, 518, 257, 150, 418, 722, 257, 249, 142
142681846, 12067, 9346, -5160, 2972, 1703, 2103, -937, -59, -51, 67, 518, 257, 150, 418, 722, 257, 249, 142
142686119, 12067, 9346, -5160, 2972, 1703, 2103, -937, -59, -51, 67, 518, 257, 150, 418, 722, 257, 249, 142
142686949, 12067, 9346, -5160, 2972, 1703, 2103, -937, -59, -51, 67, 518, 257, 150, 418, 722, 257, 249, 142
142687750, 12067, 9346, -5160, 2972, 1703, 2103, -937, -59, -51, 67, 518, 257, 150, 418, 722, 257, 249, 142
142688578, 12067, 9346, -5160, 2972, 1703, 2103, -937, -59, -51, 67, 518, 257, 150, 418, 722, 257, 249, 142
142691720, 11985, 9431, -5214, 2944, 1709, 2078, -935, -26, -68, 75, 518, 257, 150, 418, 722, 257, 249, 142
142699770, 11985, 9431, -5214, 2944, 1709, 2078, -935, -26, -68, 75, 573, 233, 150, 389, 651, 202, 215, 141
142700567, 11985, 9431, -5214, 2944, 1709, 2078, -935, -26, -68, 75, 573, 233, 150, 389, 651, 202, 215, 141
142706748, 11902, 9516, -5264, 2914, 1689, 2081, -933, -1, -72, 64, 573, 233, 150, 389, 651, 202, 215, 141
142722251, 11902, 9516, -5264, 2914, 1689, 2081, -933, -1, -72, 64, 597, 215, 148, 386, 627, 192, 197, 139
142723067, 11902, 9516, -5264, 2914, 1689, 2081, -933, -1, -72, 64, 597, 215, 148, 386, 627, 192, 197, 139
142729223, 11821, 9602, -5309, 2880, 1660, 2101, -961, -3, -77, 42, 597, 215, 148, 386, 627, 192, 197, 139
142737296, 11821, 9602, -5309, 2880, 1660, 2101, -961, -3, -77, 42, 670, 251, 224, 387, 643, 157, 208, 147
142738085, 11821, 9602, -5309, 2880, 1660, 2101, -961, -3, -77, 42, 670, 251, 224, 387, 643, 157, 208, 147
142751661, 11740, 9680, -5364, 2850, 1664, 2096, -965, -22, -102, 103, 670, 251, 224, 387, 643, 157, 208, 147
142759760, 11740, 9680, -5364, 2850, 1664, 2096, -965, -22, -102, 103, 679, 320, 255, 457, 523, 143, 198, 141
142760573, 11740, 9680, -5364, 2850, 1664, 2096, -965, -22, -102, 103, 679, 320, 255, 457, 523, 143, 198, 141
142766716, 11660, 9755, -5420, 2816, 1654, 2056, -986, -38, -122, 89, 679, 320, 255, 457, 523, 143, 198, 141
142782251, 11660, 9755, -5420, 2816, 1654, 2056, -986, -38, -122, 89, 633, 328, 285, 495, 518, 138, 193, 139
142783072, 11660, 9755, -5420, 2816, 1654, 2056, -986, -38, -122, 89, 633, 328, 285, 495, 518, 138, 193, 139
142789286, 11573, 9834, -5482, 2776, 1684, 2051, -993, 6, -195, 66, 633, 328, 285, 495, 518, 138, 193, 139
142797273, 11573, 9834, -5482, 2776, 1684, 2051, -993, 6, -195, 66, 632, 324, 314, 485, 613, 125, 175, 130
142798067, 11573, 9834, -5482, 2776, 1684, 2051, -993, 6, -195, 66, 632, 324, 314, 485, 613, 125, 175, 130
142811651, 11486, 9917, -5541, 2728, 1649, 2092, -983, 25, -233, 47, 632, 324, 314, 485, 613, 125, 175, 130
142819747, 11486, 9917, -5541, 2728, 1649, 2092, -983, 25, -233, 47, 601, 320, 350, 446, 648, 107, 155, 143
142820569, 11486, 9917, -5541, 2728, 1649, 2092, -983, 25, -233, 47, 601, 320, 350, 446, 648, 107, 155, 143
142826726, 11403, 9988, -5608, 2681, 1715, 2107, -972, -15, -260, 69, 601, 320, 350, 446, 648, 107, 155, 143
142842298, 11403, 9988, -5608, 2681, 1715, 2107, -972, -15, -260, 69, 530, 294, 321, 452, 574, 97, 144, 140
142843116, 11403, 9988, -5608, 2681, 1715, 2107, -972, -15, -260, 69, 530, 294, 321, 452, 574, 97, 144, 140
142849274, 11318, 10052, -5683, 2642, 1725, 2103, -1041, -40, -249, 144, 530, 294, 321, 452, 574, 97, 144, 140
142857248, 11318, 10052, -5683, 2642, 1725, 2103, -1041, -40, -249, 144, 473, 217, 312, 370, 577, 89, 157, 191
142858073, 11318, 10052, -5683, 2642, 1725, 2103, -1041, -40, -249, 144, 473, 217, 312, 370, 577, 89, 157, 191