Timestamp, Orientation x, Orientation y, Orientation z, Orientation w, Acceleration x, Acceleration y, Acceleration z, Rotation x, Rotation y, Rotation z, EMG 0, EMG 1, EMG 2, EMG 3, EMG 4, EMG 5, EMG 6, EMG 7
15035318, 8475, 7673, -11273, 3266, 3946, 926, -1684, 15, -19, 7, 0, 0, 0, 0, 0, 0, 0, 0
15036137, 8472, 7675, -11272, 3268, 3948, 941, -1690, 27, -8, 4, 0, 0, 0, 0, 0, 0, 0, 0
15064617, 8473, 7678, -11269, 3270, 3988, 954, -1679, 26, 0, -2, 0, 0, 0, 0, 0, 0, 0, 0
15079614, 8480, 7683, -11261, 3265, 4039, 1001, -1745, -6, 35, -38, 0, 0, 0, 0, 0, 0, 0, 0
15094589, 8505, 7691, -11244, 3244, 4149, 1073, -1838, -94, 118, -125, 0, 0, 0, 0, 0, 0, 0, 0
15102705, 8505, 7691, -11244, 3244, 4149, 1073, -1838, -94, 118, -125, 27, 52, 55, 42, 38, 53, 29, 51
15103506, 8505, 7691, -11244, 3244, 4149, 1073, -1838, -94, 118, -125, 27, 52, 55, 42, 38, 53, 29, 51
15117085, 8566, 7699, -11206, 3193, 4171, 1093, -1902, -299, 276, -320, 27, 52, 55, 42, 38, 53, 29, 51
15125181, 8566, 7699, -11206, 3193, 4171, 1093, -1902, -299, 276, -320, 28, 49, 88, 55, 39, 47, 27, 53
15126006, 8566, 7699, -11206, 3193, 4171, 1093, -1902, -299, 276, -320, 28, 49, 88, 55, 39, 47, 27, 53
15139604, 8658, 7706, -11152, 3117, 4240, 992, -2000, -520, 432, -559, 28, 49, 88, 55, 39, 47, 27, 53
15147742, 8658, 7706, -11152, 3117, 4240, 992, -2000, -520, 432, -559, 37, 103, 235, 102, 37, 41, 27, 50
15148562, 8658, 7706, -11152, 3117, 4240, 992, -2000, -520, 432, -559, 37, 103, 235, 102, 37, 41, 27, 50
15164802, 8797, 7700, -11078, 3002, 4330, 836, -2065, -875, 632, -870, 37, 103, 235, 102, 37, 41, 27, 50
15165624, 8797, 7700, -11078, 3002, 4330, 836, -2065, -875, 632, -870, 37, 103, 235, 102, 37, 41, 27, 50
15166443, 8797, 7700, -11078, 3002, 4330, 836, -2065, -875, 632, -870, 126, 40, 64, 213, 38, 41, 34, 82
15167264, 8797, 7700, -11078, 3002, 4330, 836, -2065, -875, 632, -870, 126, 40, 64, 213, 38, 41, 34, 82
15172417, 8177, 12071, -6805, 3088, 2706, 2286, -1738, 48, 28, 11, 126, 40, 64, 213, 38, 41, 34, 82
15173227, 8475, 7673, -11273, 3266, 3946, 926, -1684, 15, -19, 7, 126, 40, 64, 213, 38, 41, 34, 82
15174065, 8472, 7675, -11272, 3268, 3948, 941, -1690, 27, -8, 4, 126, 40, 64, 213, 38, 41, 34, 82
15174885, 8473, 7678, -11269, 3270, 3988, 954, -1679, 26, 0, -2, 126, 40, 64, 213, 38, 41, 34, 82
15179714, 8473, 7678, -11269, 3270, 3988, 954, -1679, 26, 0, -2, 27, 52, 55, 42, 38, 53, 29, 51
15180539, 8473, 7678, -11269, 3270, 3988, 954, -1679, 26, 0, -2, 27, 52, 55, 42, 38, 53, 29, 51
15181361, 8473, 7678, -11269, 3270, 3988, 954, -1679, 26, 0, -2, 27, 52, 55, 42, 38, 53, 29, 51
15182162, 8473, 7678, -11269, 3270, 3988, 954, -1679, 26, 0, -2, 27, 52, 55, 42, 38, 53, 29, 51
15187231, 8473, 7678, -11269, 3270, 3988, 954, -1679, 26, 0, -2, 27, 52, 55, 42, 38, 53, 29, 51
15188163, 8566, 7699, -11206, 3193, 4171, 1093, -1902, -299, 276, -320, 27, 52, 55, 42, 38, 53, 29, 51
15188987, 8566, 7699, -11206, 3193, 4171, 1093, -1902, -299, 276, -320, 28, 49, 88, 55, 39, 47, 27, 53
15189782, 8566, 7699, -11206, 3193, 4171, 1093, -1902, -299, 276, -320, 28, 49, 88, 55, 39, 47, 27, 53
15194817, 8566, 7699, -11206, 3193, 4171, 1093, -1902, -299, 276, -320, 28, 49, 88, 55, 39, 47, 27, 53
15195608, 8566, 7699, -11206, 3193, 4171, 1093, -1902, -299, 276, -320, 28, 49, 88, 55, 39, 47, 27, 53
15196431, 8566, 7699, -11206, 3193, 4171, 1093, -1902, -299, 276, -320, 28, 49, 88, 55, 39, 47, 27, 53
15197267, 8566, 7699, -11206, 3193, 4171, 1093, -1902, -299, 276, -320, 28, 49, 88, 55, 39, 47, 27, 53
15202189, 8566, 7699, -11206, 3193, 4171, 1093, -1902, -299, 276, -320, 28, 49, 88, 55, 39, 47, 27, 53
15203006, 8566, 7699, -11206, 3193, 4171, 1093, -1902, -299, 276, -320, 28, 49, 88, 55, 39, 47, 27, 53
15203822, 8566, 7699, -11206, 3193, 4171, 1093, -1902, -299, 276, -320, 28, 49, 88, 55, 39, 47, 27, 53
15204638, 8566, 7699, -11206, 3193, 4171, 1093, -1902, -299, 276, -320, 28, 49, 88, 55, 39, 47, 27, 53
15209704, 8566, 7699, -11206, 3193, 4171, 1093, -1902, -299, 276, -320, 28, 49, 88, 55, 39, 47, 27, 53
15210629, 8658, 7706, -11152, 3117, 4240, 992, -2000, -520, 432, -559, 28, 49, 88, 55, 39, 47, 27, 53
15211452, 8658, 7706, -11152, 3117, 4240, 992, -2000, -520, 432, -559, 37, 103, 235, 102, 37, 41, 27, 50
15212275, 8658, 7706, -11152, 3117, 4240, 992, -2000, -520, 432, -559, 37, 103, 235, 102, 37, 41, 27, 50
15217266, 8658, 7706, -11152, 3117, 4240, 992, -2000, -520, 432, -559, 37, 103, 235, 102, 37, 41, 27, 50
15218109, 8658, 7706, -11152, 3117, 4240, 992, -2000, -520, 432, -559, 37, 103, 235, 102, 37, 41, 27, 50
15218956, 8658, 7706, -11152, 3117, 4240, 992, -2000, -520, 432, -559, 37, 103, 235, 102, 37, 41, 27, 50
15219720, 8658, 7706, -11152, 3117, 4240, 992, -2000, -520, 432, -559, 37, 103, 235, 102, 37, 41, 27, 50
15224660, 8658, 7706, -11152, 3117, 4240, 992, -2000, -520, 432, -559, 37, 103, 235, 102, 37, 41, 27, 50
15225476, 8658, 7706, -11152, 3117, 4240, 992, -2000, -520, 432, -559, 37, 103, 235, 102, 37, 41, 27, 50
15226299, 8658, 7706, -11152, 3117, 4240, 992, -2000, -520, 432, -559, 37, 103, 235, 102, 37, 41, 27, 50
15227103, 8658, 7706, -11152, 3117, 4240, 992, -2000, -520, 432, -559, 37, 103, 235, 102, 37, 41, 27, 50
15232266, 8658, 7706, -11152, 3117, 4240, 992, -2000, -520, 432, -559, 37, 103, 235, 102, 37, 41, 27, 50
15233184, 8797, 7700, -11078, 3002, 4330, 836, -2065, -875, 632, -870, 37, 103, 235, 102, 37, 41, 27, 50
15234007, 8797, 7700, -11078, 3002, 4330, 836, -2065, -875, 632, -870, 38, 186, 470, 114, 37, 37, 28, 52
15234823, 8797, 7700, -11078, 3002, 4330, 836, -2065, -875, 632, -870, 37, 103, 235, 102, 37, 41, 27, 50
15239825, 8797, 7700, -11078, 3002, 4330, 836, -2065, -875, 632, -870, 38, 186, 470, 114, 37, 37, 28, 52
15240635, 8797, 7700, -11078, 3002, 4330, 836, -2065, -875, 632, -870, 38, 186, 470, 114, 37, 37, 28, 52
15241460, 8797, 7700, -11078, 3002, 4330, 836, -2065, -875, 632, -870, 38, 186, 470, 114, 37, 37, 28, 52
15242256, 8797, 7700, -11078, 3002, 4330, 836, -2065, -875, 632, -870, 38, 186, 470, 114, 37, 37, 28, 52
15247205, 8797, 7700, -11078, 3002, 4330, 836, -2065, -875, 632, -870, 38, 186, 470, 114, 37, 37, 28, 52
15248032, 8797, 7700, -11078, 3002, 4330, 836, -2065, -875, 632, -870, 38, 186, 470, 114, 37, 37, 28, 52
15248842, 8797, 7700, -11078, 3002, 4330, 836, -2065, -875, 632, -870, 38, 186, 470, 114, 37, 37, 28, 52
15249649, 8797, 7700, -11078, 3002, 4330, 836, -2065, -875, 632, -870, 38, 186, 470, 114, 37, 37, 28, 52
15254727, 8797, 7700, -11078, 3002, 4330, 836, -2065, -875, 632, -870, 38, 186, 470, 114, 37, 37, 28, 52
15255655, 8990, 7738, -10905, 2970, 4696, 854, -1728, -453, 1125, -1194, 38, 186, 470, 114, 37, 37, 28, 52
15256498, 8990, 7738, -10905, 2970, 4696, 854, -1728, -453, 1125, -1194, 50, 278, 712, 124, 39, 44, 29, 60
15257323, 8990, 7738, -10905, 2970, 4696, 854, -1728, -453, 1125, -1194, 50, 278, 712, 124, 39, 44, 29, 60
15262306, 8990, 7738, -10905, 2970, 4696, 854, -1728, -453, 1125, -1194, 50, 278, 712, 124, 39, 44, 29, 60
15263111, 8990, 7738, -10905, 2970, 4696, 854, -1728, -453, 1125, -1194, 50, 278, 712, 124, 39, 44, 29, 60
15263960, 8990, 7738, -10905, 2970, 4696, 854, -1728, -453, 1125, -1194, 50, 278, 712, 124, 39, 44, 29, 60
15264736, 8990, 7738, -10905, 2970, 4696, 854, -1728, -453, 1125, -1194, 50, 278, 712, 124, 39, 44, 29, 60
15269687, 8990, 7738, -10905, 2970, 4696, 854, -1728, -453, 1125, -1194, 50, 278, 712, 124, 39, 44, 29, 60
15270506, 8990, 7738, -10905, 2970, 4696, 854, -1728, -453, 1125, -1194, 50, 278, 712, 124, 39, 44, 29, 60
15271306, 8990, 7738, -10905, 2970, 4696, 854, -1728, -453, 1125, -1194, 50, 278, 712, 124, 39, 44, 29, 60
15272135, 8990, 7738, -10905, 2970, 4696, 854, -1728, -453, 1125, -1194, 50, 278, 712, 124, 39, 44, 29, 60
15277201, 8990, 7738, -10905, 2970, 4696, 854, -1728, -453, 1125, -1194, 50, 278, 712, 124, 39, 44, 29, 60
15278127, 9189, 7924, -10591, 3006, 4808, 793, -1572, 496, 1610, -1615, 50, 278, 712, 124, 39, 44, 29, 60
15278953, 9189, 7924, -10591, 3006, 4808, 793, -1572, 496, 1610, -1615, 63, 427, 967, 139, 40, 48, 33, 63
15279768, 9189, 7924, -10591, 3006, 4808, 793, -1572, 496, 1610, -1615, 63, 427, 967, 139, 40, 48, 33, 63
15284782, 9189, 7924, -10591, 3006, 4808, 793, -1572, 496, 1610, -1615, 63, 427, 967, 139, 40, 48, 33, 63
15285582, 9189, 7924, -10591, 3006, 4808, 793, -1572, 496, 1610, -1615, 63, 427, 967, 139, 40, 48, 33, 63
15286409, 9189, 7924, -10591, 3006, 4808, 793, -1572, 496, 1610, -1615, 63, 427, 967, 139, 40, 48, 33, 63
15287190, 9189, 7924, -10591, 3006, 4808, 793, -1572, 496, 1610, -1615, 63, 427, 967, 139, 40, 48, 33, 63
15291989, 9189, 7924, -10591, 3006, 4808, 793, -1572, 496, 1610, -1615, 63, 427, 967, 139, 40, 48, 33, 63
15292808, 9189, 7924, -10591, 3006, 4808, 793, -1572, 496, 1610, -1615, 63, 427, 967, 139, 40, 48, 33, 63
15293634, 9189, 7924, -10591, 3006, 4808, 793, -1572, 496, 1610, -1615, 63, 427, 967, 139, 40, 48, 33, 63
15294437, 9189, 7924, -10591, 3006, 4808, 793, -1572, 496, 1610, -1615, 63, 427, 967, 139, 40, 48, 33, 63
15299732, 9189, 7924, -10591, 3006, 4808, 793, -1572, 496, 1610, -1615, 63, 427, 967, 139, 40, 48, 33, 63
15300687, 9375, 8217, -10156, 3141, 4774, 1145, -1497, 1353, 2106, -2004, 63, 427, 967, 139, 40, 48, 33, 63
15301487, 9375, 8217, -10156, 3141, 4774, 1145, -1497, 1353, 2106, -2004, 66, 496, 1217, 143, 43, 60, 36, 78
15302311, 9375, 8217, -10156, 3141, 4774, 1145, -1497, 1353, 2106, -2004, 66, 496, 1217, 143, 43, 60, 36, 78
15307309, 9375, 8217, -10156, 3141, 4774, 1145, -1497, 1353, 2106, -2004, 66, 496, 1217, 143, 43, 60, 36, 78
15308135, 9375, 8217, -10156, 3141, 4774, 1145, -1497, 1353, 2106, -2004, 66, 496, 1217, 143, 43, 60, 36, 78
15308955, 9375, 8217, -10156, 3141, 4774, 1145, -1497, 1353, 2106, -2004, 66, 496, 1217, 143, 43, 60, 36, 78
15309768, 9375, 8217, -10156, 3141, 4774, 1145, -1497, 1353, 2106, -2004, 66, 496, 1217, 143, 43, 60, 36, 78
15314707, 9375, 8217, -10156, 3141, 4774, 1145, -1497, 1353, 2106, -2004, 66, 496, 1217, 143, 43, 60, 36, 78
15315525, 9375, 8217, -10156, 3141, 4774, 1145, -1497, 1353, 2106, -2004, 66, 496, 1217, 143, 43, 60, 36, 78
15316321, 9375, 8217, -10156, 3141, 4774, 1145, -1497, 1353, 2106, -2004, 66, 496, 1217, 143, 43, 60, 36, 78
15317148, 9375, 8217, -10156, 3141, 4774, 1145, -1497, 1353, 2106, -2004, 66, 496, 1217, 143, 43, 60, 36, 78
15322327, 9546, 8595, -9625, 3284, 4725, 1782, -1225, 1795, 2288, -2530, 66, 496, 1217, 143, 43, 60, 36, 78
15323164, 9546, 8595, -9625, 3284, 4725, 1782, -1225, 1795, 2288, -2530, 66, 564, 1354, 120, 44, 63, 39, 82
15323952, 9546, 8595, -9625, 3284, 4725, 1782, -1225, 1795, 2288, -2530, 66, 496, 1217, 143, 43, 60, 36, 78
15324782, 9546, 8595, -9625, 3284, 4725, 1782, -1225, 1795, 2288, -2530, 66, 564, 1354, 120, 44, 63, 39, 82
15329677, 9546, 8595, -9625, 3284, 4725, 1782, -1225, 1795, 2288, -2530, 66, 564, 1354, 120, 44, 63, 39, 82
15330475, 9546, 8595, -9625, 3284, 4725, 1782, -1225, 1795, 2288, -2530, 66, 564, 1354, 120, 44, 63, 39, 82
15331302, 9546, 8595, -9625, 3284, 4725, 1782, -1225, 1795, 2288, -2530, 66, 564, 1354, 120, 44, 63, 39, 82
15332104, 9546, 8595, -9625, 3284, 4725, 1782, -1225, 1795, 2288, -2530, 66, 564, 1354, 120, 44, 63, 39, 82
15337220, 9546, 8595, -9625, 3284, 4725, 1782, -1225, 1795, 2288, -2530, 66, 564, 1354, 120, 44, 63, 39, 82
15338182, 9748, 9007, -9012, 3328, 4341, 2216, -929, 1595, 2319, -3231, 66, 564, 1354, 120, 44, 63, 39, 82
15339004, 9748, 9007, -9012, 3328, 4341, 2216, -929, 1595, 2319, -3231, 66, 557, 1399, 114, 42, 63, 38, 80
15339823, 9748, 9007, -9012, 3328, 4341, 2216, -929, 1595, 2319, -3231, 66, 557, 1399, 114, 42, 63, 38, 80
15344823, 9748, 9007, -9012, 3328, 4341, 2216, -929, 1595, 2319, -3231, 66, 557, 1399, 114, 42, 63, 38, 80
15345632, 9748, 9007, -9012, 3328, 4341, 2216, -929, 1595, 2319, -3231, 66, 557, 1399, 114, 42, 63, 38, 80
15346451, 9748, 9007, -9012, 3328, 4341, 2216, -929, 1595, 2319, -3231, 66, 557, 1399, 114, 42, 63, 38, 80
15347248, 9748, 9007, -9012, 3328, 4341, 2216, -929, 1595, 2319, -3231, 66, 557, 1399, 114, 42, 63, 38, 80
15352208, 9748, 9007, -9012, 3328, 4341, 2216, -929, 1595, 2319, -3231, 66, 557, 1399, 114, 42, 63, 38, 80
15353029, 9748, 9007, -9012, 3328, 4341, 2216, -929, 1595, 2319, -3231, 66, 557, 1399, 114, 42, 63, 38, 80
15353845, 9748, 9007, -9012, 3328, 4341, 2216, -929, 1595, 2319, -3231, 66, 557, 1399, 114, 42, 63, 38, 80
15354655, 9748, 9007, -9012, 3328, 4341, 2216, -929, 1595, 2319, -3231, 66, 557, 1399, 114, 42, 63, 38, 80
15359741, 9748, 9007, -9012, 3328, 4341, 2216, -929, 1595, 2319, -3231, 66, 557, 1399, 114, 42, 63, 38, 80
15360664, 9954, 9429, -8353, 3265, 3748, 2411, -916, 1327, 2171, -3751, 66, 557, 1399, 114, 42, 63, 38, 80
15361480, 9954, 9429, -8353, 3265, 3748, 2411, -916, 1327, 2171, -3751, 64, 521, 1322, 103, 40, 58, 37, 88
15362278, 9954, 9429, -8353, 3265, 3748, 2411, -916, 1327, 2171, -3751, 64, 521, 1322, 103, 40, 58, 37, 88
15367307, 9954, 9429, -8353, 3265, 3748, 2411, -916, 1327, 2171, -3751, 64, 521, 1322, 103, 40, 58, 37, 88
15368104, 9954, 9429, -8353, 3265, 3748, 2411, -916, 1327, 2171, -3751, 64, 521, 1322, 103, 40, 58, 37, 88
15368959, 9954, 9429, -8353, 3265, 3748, 2411, -916, 1327, 2171, -3751, 64, 521, 1322, 103, 40, 58, 37, 88
15369746, 9954, 9429, -8353, 3265, 3748, 2411, -916, 1327, 2171, -3751, 64, 521, 1322, 103, 40, 58, 37, 88
15374677, 9954, 9429, -8353, 3265, 3748, 2411, -916, 1327, 2171, -3751, 64, 521, 1322, 103, 40, 58, 37, 88
15375511, 9954, 9429, -8353, 3265, 3748, 2411, -916, 1327, 2171, -3751, 64, 521, 1322, 103, 40, 58, 37, 88
15376310, 9954, 9429, -8353, 3265, 3748, 2411, -916, 1327, 2171, -3751, 64, 521, 1322, 103, 40, 58, 37, 88
15377124, 9954, 9429, -8353, 3265, 3748, 2411, -916, 1327, 2171, -3751, 64, 521, 1322, 103, 40, 58, 37, 88
15382216, 9954, 9429, -8353, 3265, 3748, 2411, -916, 1327, 2171, -3751, 64, 521, 1322, 103, 40, 58, 37, 88
15383127, 10175, 9823, -7694, 3031, 2641, 2006, -1135, 652, 1745, -4278, 64, 521, 1322, 103, 40, 58, 37, 88
15383957, 10175, 9823, -7694, 3031, 2641, 2006, -1135, 652, 1745, -4278, 92, 410, 1166, 81, 36, 63, 39, 99
15384771, 10175, 9823, -7694, 3031, 2641, 2006, -1135, 652, 1745, -4278, 92, 410, 1166, 81, 36, 63, 39, 99
15389765, 10175, 9823, -7694, 3031, 2641, 2006, -1135, 652, 1745, -4278, 92, 410, 1166, 81, 36, 63, 39, 99
15390568, 10175, 9823, -7694, 3031, 2641, 2006, -1135, 652, 1745, -4278, 92, 410, 1166, 81, 36, 63, 39, 99
15391402, 10175, 9823, -7694, 3031, 2641, 2006, -1135, 652, 1745, -4278, 92, 410, 1166, 81, 36, 63, 39, 99
15392203, 10175, 9823, -7694, 3031, 2641, 2006, -1135, 652, 1745, -4278, 92, 410, 1166, 81, 36, 63, 39, 99
15397228, 10175, 9823, -7694, 3031, 2641, 2006, -1135, 652, 1745, -4278, 92, 410, 1166, 81, 36, 63, 39, 99
15398026, 10175, 9823, -7694, 3031, 2641, 2006, -1135, 652, 1745, -4278, 92, 410, 1166, 81, 36, 63, 39, 99
15398855, 10175, 9823, -7694, 3031, 2641, 2006, -1135, 652, 1745, -4278, 92, 410, 1166, 81, 36, 63, 39, 99
15399677, 10175, 9823, -7694, 3031, 2641, 2006, -1135, 652, 1745, -4278, 92, 410, 1166, 81, 36, 63, 39, 99
15404726, 10175, 9823, -7694, 3031, 2641, 2006, -1135, 652, 1745, -4278, 92, 410, 1166, 81, 36, 63, 39, 99
15405684, 10412, 10168, -7085, 2537, 1176, 1797, -1194, -326, 825, -4844, 92, 410, 1166, 81, 36, 63, 39, 99
15406468, 10412, 10168, -7085, 2537, 1176, 1797, -1194, -326, 825, -4844, 122, 324, 908, 86, 31, 145, 47, 97
15407307, 10412, 10168, -7085, 2537, 1176, 1797, -1194, -326, 825, -4844, 122, 324, 908, 86, 31, 145, 47, 97
15412308, 10412, 10168, -7085, 2537, 1176, 1797, -1194, -326, 825, -4844, 122, 324, 908, 86, 31, 145, 47, 97
15413129, 10412, 10168, -7085, 2537, 1176, 1797, -1194, -326, 825, -4844, 122, 324, 908, 86, 31, 145, 47, 97
15413950, 10412, 10168, -7085, 2537, 1176, 1797, -1194, -326, 825, -4844, 122, 324, 908, 86, 31, 145, 47, 97
15414755, 10412, 10168, -7085, 2537, 1176, 1797, -1194, -326, 825, -4844, 122, 324, 908, 86, 31, 145, 47, 97
15419706, 10412, 10168, -7085, 2537, 1176, 1797, -1194, -326, 825, -4844, 122, 324, 908, 86, 31, 145, 47, 97
15420511, 10412, 10168, -7085, 2537, 1176, 1797, -1194, -326, 825, -4844, 122, 324, 908, 86, 31, 145, 47, 97
15421315, 10412, 10168, -7085, 2537, 1176, 1797, -1194, -326, 825, -4844, 122, 324, 908, 86, 31, 145, 47, 97
15422163, 10412, 10168, -7085, 2537, 1176, 1797, -1194, -326, 825, -4844, 122, 324, 908, 86, 31, 145, 47, 97
15427200, 10412, 10168, -7085, 2537, 1176, 1797, -1194, -326, 825, -4844, 122, 324, 908, 86, 31, 145, 47, 97
15428160, 10633, 10442, -6580, 1740, 542, 1650, -1289, -1381, -564, -5358, 122, 324, 908, 86, 31, 145, 47, 97
15428962, 10633, 10442, -6580, 1740, 542, 1650, -1289, -1381, -564, -5358, 159, 169, 664, 82, 30, 162, 54, 100
15429791, 10633, 10442, -6580, 1740, 542, 1650, -1289, -1381, -564, -5358, 159, 169, 664, 82, 30, 162, 54, 100
15434785, 10633, 10442, -6580, 1740, 542, 1650, -1289, -1381, -564, -5358, 159, 169, 664, 82, 30, 162, 54, 100
15435607, 10633, 10442, -6580, 1740, 542, 1650, -1289, -1381, -564, -5358, 159, 169, 664, 82, 30, 162, 54, 100
15436405, 10633, 10442, -6580, 1740, 542, 1650, -1289, -1381, -564, -5358, 159, 169, 664, 82, 30, 162, 54, 100
15437233, 10633, 10442, -6580, 1740, 542, 1650, -1289, -1381, -564, -5358, 159, 169, 664, 82, 30, 162, 54, 100
15442172, 10633, 10442, -6580, 1740, 542, 1650, -1289, -1381, -564, -5358, 159, 169, 664, 82, 30, 162, 54, 100
15443002, 10633, 10442, -6580, 1740, 542, 1650, -1289, -1381, -564, -5358, 159, 169, 664, 82, 30, 162, 54, 100
15443808, 10633, 10442, -6580, 1740, 542, 1650, -1289, -1381, -564, -5358, 159, 169, 664, 82, 30, 162, 54, 100
15444629, 10633, 10442, -6580, 1740, 542, 1650, -1289, -1381, -564, -5358, 159, 169, 664, 82, 30, 162, 54, 100
15449754, 10633, 10442, -6580, 1740, 542, 1650, -1289, -1381, -564, -5358, 159, 169, 664, 82, 30, 162, 54, 100
15450681, 10869, 10564, -6181, 695, 1212, 1822, -973, -2595, -1767, -5652, 159, 169, 664, 82, 30, 162, 54, 100
15451504, 10869, 10564, -6181, 695, 1212, 1822, -973, -2595, -1767, -5652, 199, 111, 403, 112, 36, 179, 58, 119
15452303, 10869, 10564, -6181, 695, 1212, 1822, -973, -2595, -1767, -5652, 199, 111, 403, 112, 36, 179, 58, 119
15457331, 10869, 10564, -6181, 695, 1212, 1822, -973, -2595, -1767, -5652, 199, 111, 403, 112, 36, 179, 58, 119
15458137, 10869, 10564, -6181, 695, 1212, 1822, -973, -2595, -1767, -5652, 199, 111, 403, 112, 36, 179, 58, 119
15458957, 10869, 10564, -6181, 695, 1212, 1822, -973, -2595, -1767, -5652, 199, 111, 403, 112, 36, 179, 58, 119
15459771, 10869, 10564, -6181, 695, 1212, 1822, -973, -2595, -1767, -5652, 199, 111, 403, 112, 36, 179, 58, 119
15464710, 10869, 10564, -6181, 695, 1212, 1822, -973, -2595, -1767, -5652, 199, 111, 403, 112, 36, 179, 58, 119
15465532, 10869, 10564, -6181, 695, 1212, 1822, -973, -2595, -1767, -5652, 199, 111, 403, 112, 36, 179, 58, 119
15466355, 10869, 10564, -6181, 695, 1212, 1822, -973, -2595, -1767, -5652, 199, 111, 403, 112, 36, 179, 58, 119
15467160, 10869, 10564, -6181, 695, 1212, 1822, -973, -2595, -1767, -5652, 199, 111, 403, 112, 36, 179, 58, 119
15472234, 10869, 10564, -6181, 695, 1212, 1822, -973, -2595, -1767, -5652, 199, 111, 403, 112, 36, 179, 58, 119
15473165, 11039, 10624, -5786, -466, 2061, 1551, -789, -2825, -2365, -6078, 199, 111, 403, 112, 36, 179, 58, 119
15473978, 11039, 10624, -5786, -466, 2061, 1551, -789, -2825, -2365, -6078, 207, 151, 297, 120, 44, 184, 62, 118
15474783, 11039, 10624, -5786, -466, 2061, 1551, -789, -2825, -2365, -6078, 207, 151, 297, 120, 44, 184, 62, 118
15479802, 11039, 10624, -5786, -466, 2061, 1551, -789, -2825, -2365, -6078, 207, 151, 297, 120, 44, 184, 62, 118
15480609, 11039, 10624, -5786, -466, 2061, 1551, -789, -2825, -2365, -6078, 207, 151, 297, 120, 44, 184, 62, 118
15481431, 11039, 10624, -5786, -466, 2061, 1551, -789, -2825, -2365, -6078, 207, 151, 297, 120, 44, 184, 62, 118
15482252, 11039, 10624, -5786, -466, 2061, 1551, -789, -2825, -2365, -6078, 207, 151, 297, 120, 44, 184, 62, 118
15487204, 11039, 10624, -5786, -466, 2061, 1551, -789, -2825, -2365, -6078, 207, 151, 297, 120, 44, 184, 62, 118
15488009, 11039, 10624, -5786, -466, 2061, 1551, -789, -2825, -2365, -6078, 207, 151, 297, 120, 44, 184, 62, 118
15488815, 11039, 10624, -5786, -466, 2061, 1551, -789, -2825, -2365, -6078, 207, 151, 297, 120, 44, 184, 62, 118
15489615, 11039, 10624, -5786, -466, 2061, 1551, -789, -2825, -2365, -6078, 207, 151, 297, 120, 44, 184, 62, 118
15494701, 11039, 10624, -5786, -466, 2061, 1551, -789, -2825, -2365, -6078, 207, 151, 297, 120, 44, 184, 62, 118
15495629, 11132, 10633, -5378, -1588, 1618, 1675, -767, -2672, -2331, -5868, 207, 151, 297, 120, 44, 184, 62, 118
15496454, 11132, 10633, -5378, -1588, 1618, 1675, -767, -2672, -2331, -5868, 203, 165, 216, 214, 52, 202, 65, 111
15497283, 11132, 10633, -5378, -1588, 1618, 1675, -767, -2672, -2331, -5868, 203, 165, 216, 214, 52, 202, 65, 111
15502278, 11132, 10633, -5378, -1588, 1618, 1675, -767, -2672, -2331, -5868, 203, 165, 216, 214, 52, 202, 65, 111
15503100, 11132, 10633, -5378, -1588, 1618, 1675, -767, -2672, -2331, -5868, 203, 165, 216, 214, 52, 202, 65, 111
15503954, 11132, 10633, -5378, -1588, 1618, 1675, -767, -2672, -2331, -5868, 203, 165, 216, 214, 52, 202, 65, 111
15504713, 11132, 10633, -5378, -1588, 1618, 1675, -767, -2672, -2331, -5868, 203, 165, 216, 214, 52, 202, 65, 111
15509731, 11132, 10633, -5378, -1588, 1618, 1675, -767, -2672, -2331, -5868, 203, 165, 216, 214, 52, 202, 65, 111
15510555, 11132, 10633, -5378, -1588, 1618, 1675, -767, -2672, -2331, -5868, 203, 165, 216, 214, 52, 202, 65, 111
15511354, 11132, 10633, -5378, -1588, 1618, 1675, -767, -2672, -2331, -5868, 203, 165, 216, 214, 52, 202, 65, 111
15512190, 11132, 10633, -5378, -1588, 1618, 1675, -767, -2672, -2331, -5868, 203, 165, 216, 214, 52, 202, 65, 111
15517242, 11132, 10633, -5378, -1588, 1618, 1675, -767, -2672, -2331, -5868, 203, 165, 216, 214, 52, 202, 65, 111
15518182, 11229, 10555, -4938, -2554, 1559, 2617, -963, -2789, -1675, -5217, 203, 165, 216, 214, 52, 202, 65, 111
15519001, 11229, 10555, -4938, -2554, 1559, 2617, -963, -2789, -1675, -5217, 187, 172, 183, 224, 60, 194, 71, 114
15519809, 11229, 10555, -4938, -2554, 1559, 2617, -963, -2789, -1675, -5217, 187, 172, 183, 224, 60, 194, 71, 114
15524806, 11229, 10555, -4938, -2554, 1559, 2617, -963, -2789, -1675, -5217, 187, 172, 183, 224, 60, 194, 71, 114
15525630, 11229, 10555, -4938, -2554, 1559, 2617, -963, -2789, -1675, -5217, 187, 172, 183, 224, 60, 194, 71, 114
15526454, 11229, 10555, -4938, -2554, 1559, 2617, -963, -2789, -1675, -5217, 187, 172, 183, 224, 60, 194, 71, 114
15527254, 11229, 10555, -4938, -2554, 1559, 2617, -963, -2789, -1675, -5217, 187, 172, 183, 224, 60, 194, 71, 114
15532232, 11229, 10555, -4938, -2554, 1559, 2617, -963, -2789, -1675, -5217, 187, 172, 183, 224, 60, 194, 71, 114
15533025, 11229, 10555, -4938, -2554, 1559, 2617, -963, -2789, -1675, -5217, 187, 172, 183, 224, 60, 194, 71, 114
15533836, 11229, 10555, -4938, -2554, 1559, 2617, -963, -2789, -1675, -5217, 187, 172, 183, 224, 60, 194, 71, 114
15534654, 11229, 10555, -4938, -2554, 1559, 2617, -963, -2789, -1675, -5217, 187, 172, 183, 224, 60, 194, 71, 114
15539723, 11229, 10555, -4938, -2554, 1559, 2617, -963, -2789, -1675, -5217, 187, 172, 183, 224, 60, 194, 71, 114
15540652, 11496, 10316, -4326, -3335, 3019, 5110, -666, -3739, -225, -4577, 187, 172, 183, 224, 60, 194, 71, 114
15541475, 11496, 10316, -4326, -3335, 3019, 5110, -666, -3739, -225, -4577, 159, 280, 136, 439, 103, 255, 75, 117
15542282, 11496, 10316, -4326, -3335, 3019, 5110, -666, -3739, -225, -4577, 159, 280, 136, 439, 103, 255, 75, 117
15547296, 11496, 10316, -4326, -3335, 3019, 5110, -666, -3739, -225, -4577, 159, 280, 136, 439, 103, 255, 75, 117
15548108, 11496, 10316, -4326, -3335, 3019, 5110, -666, -3739, -225, -4577, 159, 280, 136, 439, 103, 255, 75, 117
15548947, 11496, 10316, -4326, -3335, 3019, 5110, -666, -3739, -225, -4577, 159, 280, 136, 439, 103, 255, 75, 117
15549722, 11496, 10316, -4326, -3335, 3019, 5110, -666, -3739, -225, -4577, 159, 280, 136, 439, 103, 255, 75, 117
15554686, 11496, 10316, -4326, -3335, 3019, 5110, -666, -3739, -225, -4577, 159, 280, 136, 439, 103, 255, 75, 117
15555509, 11496, 10316, -4326, -3335, 3019, 5110, -666, -3739, -225, -4577, 159, 280, 136, 439, 103, 255, 75, 117
15556349, 11496, 10316, -4326, -3335, 3019, 5110, -666, -3739, -225, -4577, 159, 280, 136, 439, 103, 255, 75, 117
15557145, 11496, 10316, -4326, -3335, 3019, 5110, -666, -3739, -225, -4577, 159, 280, 136, 439, 103, 255, 75, 117
15562211, 11496, 10316, -4326, -3335, 3019, 5110, -666, -3739, -225, -4577, 159, 280, 136, 439, 103, 255, 75, 117
15563135, 11821, 10047, -3587, -3856, 4198, 8568, -7113, -3817, 1239, -3890, 159, 280, 136, 439, 103, 255, 75, 117
15563951, 11821, 10047, -3587, -3856, 4198, 8568, -7113, -3817, 1239, -3890, 105, 720, 155, 741, 486, 687, 219, 165
15564758, 11821, 10047, -3587, -3856, 4198, 8568, -7113, -3817, 1239, -3890, 105, 720, 155, 741, 486, 687, 219, 165
15569778, 11821, 10047, -3587, -3856, 4198, 8568, -7113, -3817, 1239, -3890, 105, 720, 155, 741, 486, 687, 219, 165
15570578, 11821, 10047, -3587, -3856, 4198, 8568, -7113, -3817, 1239, -3890, 105, 720, 155, 741, 486, 687, 219, 165
15571401, 11821, 10047, -3587, -3856, 4198, 8568, -7113, -3817, 1239, -3890, 105, 720, 155, 741, 486, 687, 219, 165
15572224, 11821, 10047, -3587, -3856, 4198, 8568, -7113, -3817, 1239, -3890, 105, 720, 155, 741, 486, 687, 219, 165
15577219, 11821, 10047, -3587, -3856, 4198, 8568, -7113, -3817, 1239, -3890, 105, 720, 155, 741, 486, 687, 219, 165
15578026, 11821, 10047, -3587, -3856, 4198, 8568, -7113, -3817, 1239, -3890, 105, 720, 155, 741, 486, 687, 219, 165
15578861, 11821, 10047, -3587, -3856, 4198, 8568, -7113, -3817, 1239, -3890, 105, 720, 155, 741, 486, 687, 219, 165
15579681, 11821, 10047, -3587, -3856, 4198, 8568, -7113, -3817, 1239, -3890, 105, 720, 155, 741, 486, 687, 219, 165
15584736, 11821, 10047, -3587, -3856, 4198, 8568, -7113, -3817, 1239, -3890, 105, 720, 155, 741, 486, 687, 219, 165
15585681, 12699, 9083, -3337, -3677, 4208, -1160, -3158, -7038, 1434, 2208, 105, 720, 155, 741, 486, 687, 219, 165
15586480, 12699, 9083, -3337, -3677, 4208, -1160, -3158, -7038, 1434, 2208, 106, 931, 211, 853, 768, 932, 338, 349
15587302, 12699, 9083, -3337, -3677, 4208, -1160, -3158, -7038, 1434, 2208, 106, 931, 211, 853, 768, 932, 338, 349
15592307, 12699, 9083, -3337, -3677, 4208, -1160, -3158, -7038, 1434, 2208, 106, 931, 211, 853, 768, 932, 338, 349
15593179, 12699, 9083, -3337, -3677, 4208, -1160, -3158, -7038, 1434, 2208, 106, 931, 211, 853, 768, 932, 338, 349
15593947, 12699, 9083, -3337, -3677, 4208, -1160, -3158, -7038, 1434, 2208, 106, 931, 211, 853, 768, 932, 338, 349
15594738, 12699, 9083, -3337, -3677, 4208, -1160, -3158, -7038, 1434, 2208, 106, 931, 211, 853, 768, 932, 338, 349
15599700, 12699, 9083, -3337, -3677, 4208, -1160, -3158, -7038, 1434, 2208, 106, 931, 211, 853, 768, 932, 338, 349
15600526, 12699, 9083, -3337, -3677, 4208, -1160, -3158, -7038, 1434, 2208, 106, 931, 211, 853, 768, 932, 338, 349
15601327, 12699, 9083, -3337, -3677, 4208, -1160, -3158, -7038, 1434, 2208, 106, 931, 211, 853, 768, 932, 338, 349
15602151, 12699, 9083, -3337, -3677, 4208, -1160, -3158, -7038, 1434, 2208, 106, 931, 211, 853, 768, 932, 338, 349
15607203, 12699, 9083, -3337, -3677, 4208, -1160, -3158, -7038, 1434, 2208, 106, 931, 211, 853, 768, 932, 338, 349
15608162, 12731, 9171, -3939, -2592, 3588, -1091, -39, 2280, 904, 6531, 106, 931, 211, 853, 768, 932, 338, 349
15608975, 12731, 9171, -3939, -2592, 3588, -1091, -39, 2280, 904, 6531, 89, 940, 229, 874, 791, 1067, 527, 486
15609784, 12731, 9171, -3939, -2592, 3588, -1091, -39, 2280, 904, 6531, 89, 940, 229, 874, 791, 1067, 527, 486
15614782, 12731, 9171, -3939, -2592, 3588, -1091, -39, 2280, 904, 6531, 89, 940, 229, 874, 791, 1067, 527, 486
15615607, 12731, 9171, -3939, -2592, 3588, -1091, -39, 2280, 904, 6531, 89, 940, 229, 874, 791, 1067, 527, 486
15616410, 12731, 9171, -3939, -2592, 3588, -1091, -39, 2280, 904, 6531, 89, 940, 229, 874, 791, 1067, 527, 486
15617227, 12731, 9171, -3939, -2592, 3588, -1091, -39, 2280, 904, 6531, 89, 940, 229, 874, 791, 1067, 527, 486
15629732, 12731, 9171, -3939, -2592, 3588, -1091, -39, 2280, 904, 6531, 89, 940, 229, 874, 791, 1067, 527, 486
15630529, 12731, 9171, -3939, -2592, 3588, -1091, -39, 2280, 904, 6531, 89, 940, 229, 874, 791, 1067, 527, 486
15631352, 12731, 9171, -3939, -2592, 3588, -1091, -39, 2280, 904, 6531, 89, 940, 229, 874, 791, 1067, 527, 486
15632148, 12731, 9171, -3939, -2592, 3588, -1091, -39, 2280, 904, 6531, 89, 940, 229, 874, 791, 1067, 527, 486
15637221, 12731, 9171, -3939, -2592, 3588, -1091, -39, 2280, 904, 6531, 89, 940, 229, 874, 791, 1067, 527, 486
15638154, 11775, 10230, -4886, -1111, 3139, 1226, -266, 10478, 238, 6863, 89, 940, 229, 874, 791, 1067, 527, 486
15638973, 11775, 10230, -4886, -1111, 3139, 1226, -266, 10478, 238, 6863, 228, 952, 357, 885, 806, 1068, 560, 542
15639785, 11775, 10230, -4886, -1111, 3139, 1226, -266, 10478, 238, 6863, 228, 952, 357, 885, 806, 1068, 560, 542
15644801, 11775, 10230, -4886, -1111, 3139, 1226, -266, 10478, 238, 6863, 228, 952, 357, 885, 806, 1068, 560, 542
15645625, 11775, 10230, -4886, -1111, 3139, 1226, -266, 10478, 238, 6863, 228, 952, 357, 885, 806, 1068, 560, 542
15646421, 11775, 10230, -4886, -1111, 3139, 1226, -266, 10478, 238, 6863, 228, 952, 357, 885, 806, 1068, 560, 542
15647248, 11775, 10230, -4886, -1111, 3139, 1226, -266, 10478, 238, 6863, 228, 952, 357, 885, 806, 1068, 560, 542
15652199, 11775, 10230, -4886, -1111, 3139, 1226, -266, 10478, 238, 6863, 228, 952, 357, 885, 806, 1068, 560, 542
15653002, 11775, 10230, -4886, -1111, 3139, 1226, -266, 10478, 238, 6863, 228, 952, 357, 885, 806, 1068, 560, 542
15653814, 11775, 10230, -4886, -1111, 3139, 1226, -266, 10478, 238, 6863, 228, 952, 357, 885, 806, 1068, 560, 542
15654627, 11775, 10230, -4886, -1111, 3139, 1226, -266, 10478, 238, 6863, 228, 952, 357, 885, 806, 1068, 560, 542
15659688, 11775, 10230, -4886, -1111, 3139, 1226, -266, 10478, 238, 6863, 228, 952, 357, 885, 806, 1068, 560, 542
15660639, 10408, 11344, -5576, 553, 3355, 2009, -1185, 12350, 1214, 6547, 228, 952, 357, 885, 806, 1068, 560, 542
15661433, 10408, 11344, -5576, 553, 3355, 2009, -1185, 12350, 1214, 6547, 426, 939, 377, 822, 804, 1056, 563, 568
15662264, 10408, 11344, -5576, 553, 3355, 2009, -1185, 12350, 1214, 6547, 426, 939, 377, 822, 804, 1056, 563, 568
15667262, 10408, 11344, -5576, 553, 3355, 2009, -1185, 12350, 1214, 6547, 426, 939, 377, 822, 804, 1056, 563, 568
15668084, 10408, 11344, -5576, 553, 3355, 2009, -1185, 12350, 1214, 6547, 426, 939, 377, 822, 804, 1056, 563, 568
15668936, 10408, 11344, -5576, 553, 3355, 2009, -1185, 12350, 1214, 6547, 426, 939, 377, 822, 804, 1056, 563, 568
15669695, 10408, 11344, -5576, 553, 3355, 2009, -1185, 12350, 1214, 6547, 426, 939, 377, 822, 804, 1056, 563, 568
15674665, 10408, 11344, -5576, 553, 3355, 2009, -1185, 12350, 1214, 6547, 426, 939, 377, 822, 804, 1056, 563, 568
15675463, 10408, 11344, -5576, 553, 3355, 2009, -1185, 12350, 1214, 6547, 426, 939, 377, 822, 804, 1056, 563, 568
15676285, 10408, 11344, -5576, 553, 3355, 2009, -1185, 12350, 1214, 6547, 426, 939, 377, 822, 804, 1056, 563, 568
15677108, 10408, 11344, -5576, 553, 3355, 2009, -1185, 12350, 1214, 6547, 426, 939, 377, 822, 804, 1056, 563, 568
15682237, 10408, 11344, -5576, 553, 3355, 2009, -1185, 12350, 1214, 6547, 426, 939, 377, 822, 804, 1056, 563, 568
15683162, 9495, 11921, -5763, 1712, 221, 3118, 1339, 8081, 1870, 4133, 426, 939, 377, 822, 804, 1056, 563, 568
15683984, 9495, 11921, -5763, 1712, 221, 3118, 1339, 8081, 1870, 4133, 516, 670, 399, 568, 652, 846, 525, 563
15684794, 9495, 11921, -5763, 1712, 221, 3118, 1339, 8081, 1870, 4133, 516, 670, 399, 568, 652, 846, 525, 563
15689841, 9495, 11921, -5763, 1712, 221, 3118, 1339, 8081, 1870, 4133, 516, 670, 399, 568, 652, 846, 525, 563
15690627, 9495, 11921, -5763, 1712, 221, 3118, 1339, 8081, 1870, 4133, 516, 670, 399, 568, 652, 846, 525, 563
15691452, 9495, 11921, -5763, 1712, 221, 3118, 1339, 8081, 1870, 4133, 516, 670, 399, 568, 652, 846, 525, 563
15692250, 9495, 11921, -5763, 1712, 221, 3118, 1339, 8081, 1870, 4133, 516, 670, 399, 568, 652, 846, 525, 563
15704683, 9495, 11921, -5763, 1712, 221, 3118, 1339, 8081, 1870, 4133, 516, 670, 399, 568, 652, 846, 525, 563
15705507, 9495, 11921, -5763, 1712, 221, 3118, 1339, 8081, 1870, 4133, 516, 670, 399, 568, 652, 846, 525, 563
15706326, 9495, 11921, -5763, 1712, 221, 3118, 1339, 8081, 1870, 4133, 516, 670, 399, 568, 652, 846, 525, 563
15707127, 9495, 11921, -5763, 1712, 221, 3118, 1339, 8081, 1870, 4133, 516, 670, 399, 568, 652, 846, 525, 563
15712208, 9495, 11921, -5763, 1712, 221, 3118, 1339, 8081, 1870, 4133, 516, 670, 399, 568, 652, 846, 525, 563
15713159, 8763, 12456, -5453, 2595, -3012, 166, 4230, 6654, 2855, 978, 516, 670, 399, 568, 652, 846, 525, 563
15713950, 8763, 12456, -5453, 2595, -3012, 166, 4230, 6654, 2855, 978, 566, 378, 391, 680, 313, 900, 545, 565
15714757, 8763, 12456, -5453, 2595, -3012, 166, 4230, 6654, 2855, 978, 566, 378, 391, 680, 313, 900, 545, 565
15719781, 8763, 12456, -5453, 2595, -3012, 166, 4230, 6654, 2855, 978, 566, 378, 391, 680, 313, 900, 545, 565
15720581, 8763, 12456, -5453, 2595, -3012, 166, 4230, 6654, 2855, 978, 566, 378, 391, 680, 313, 900, 545, 565
15721404, 8763, 12456, -5453, 2595, -3012, 166, 4230, 6654, 2855, 978, 566, 378, 391, 680, 313, 900, 545, 565
15722226, 8763, 12456, -5453, 2595, -3012, 166, 4230, 6654, 2855, 978, 566, 378, 391, 680, 313, 900, 545, 565
15727231, 8763, 12456, -5453, 2595, -3012, 166, 4230, 6654, 2855, 978, 566, 378, 391, 680, 313, 900, 545, 565
15728028, 8763, 12456, -5453, 2595, -3012, 166, 4230, 6654, 2855, 978, 566, 378, 391, 680, 313, 900, 545, 565
15728859, 8763, 12456, -5453, 2595, -3012, 166, 4230, 6654, 2855, 978, 566, 378, 391, 680, 313, 900, 545, 565
15729674, 8763, 12456, -5453, 2595, -3012, 166, 4230, 6654, 2855, 978, 566, 378, 391, 680, 313, 900, 545, 565
15734729, 8763, 12456, -5453, 2595, -3012, 166, 4230, 6654, 2855, 978, 566, 378, 391, 680, 313, 900, 545, 565
15735677, 7780, 13064, -5391, 2854, 2759, 1021, -1256, 6514, -1156, 84, 566, 378, 391, 680, 313, 900, 545, 565
15736477, 7780, 13064, -5391, 2854, 2759, 1021, -1256, 6514, -1156, 84, 671, 396, 570, 991, 263, 1028, 522, 484
15737300, 7780, 13064, -5391, 2854, 2759, 1021, -1256, 6514, -1156, 84, 671, 396, 570, 991, 263, 1028, 522, 484
15742304, 7780, 13064, -5391, 2854, 2759, 1021, -1256, 6514, -1156, 84, 671, 396, 570, 991, 263, 1028, 522, 484
15743127, 7780, 13064, -5391, 2854, 2759, 1021, -1256, 6514, -1156, 84, 671, 396, 570, 991, 263, 1028, 522, 484
15743957, 7780, 13064, -5391, 2854, 2759, 1021, -1256, 6514, -1156, 84, 671, 396, 570, 991, 263, 1028, 522, 484
15744756, 7780, 13064, -5391, 2854, 2759, 1021, -1256, 6514, -1156, 84, 671, 396, 570, 991, 263, 1028, 522, 484
15749702, 7780, 13064, -5391, 2854, 2759, 1021, -1256, 6514, -1156, 84, 671, 396, 570, 991, 263, 1028, 522, 484
15750504, 7780, 13064, -5391, 2854, 2759, 1021, -1256, 6514, -1156, 84, 671, 396, 570, 991, 263, 1028, 522, 484
15751327, 7780, 13064, -5391, 2854, 2759, 1021, -1256, 6514, -1156, 84, 671, 396, 570, 991, 263, 1028, 522, 484
15752158, 7780, 13064, -5391, 2854, 2759, 1021, -1256, 6514, -1156, 84, 671, 396, 570, 991, 263, 1028, 522, 484
15757199, 7780, 13064, -5391, 2854, 2759, 1021, -1256, 6514, -1156, 84, 671, 396, 570, 991, 263, 1028, 522, 484
15758155, 8705, 12199, -6363, 1825, 2020, 4632, -5168, -9331, -4658, 2313, 671, 396, 570, 991, 263, 1028, 522, 484
15758950, 8705, 12199, -6363, 1825, 2020, 4632, -5168, -9331, -4658, 2313, 682, 363, 647, 984, 225, 1097, 717, 433
15759781, 8705, 12199, -6363, 1825, 2020, 4632, -5168, -9331, -4658, 2313, 682, 363, 647, 984, 225, 1097, 717, 433
15764789, 8705, 12199, -6363, 1825, 2020, 4632, -5168, -9331, -4658, 2313, 682, 363, 647, 984, 225, 1097, 717, 433
15765626, 8705, 12199, -6363, 1825, 2020, 4632, -5168, -9331, -4658, 2313, 682, 363, 647, 984, 225, 1097, 717, 433
15766419, 8705, 12199, -6363, 1825, 2020, 4632, -5168, -9331, -4658, 2313, 682, 363, 647, 984, 225, 1097, 717, 433
15767213, 8705, 12199, -6363, 1825, 2020, 4632, -5168, -9331, -4658, 2313, 682, 363, 647, 984, 225, 1097, 717, 433
15772173, 8705, 12199, -6363, 1825, 2020, 4632, -5168, -9331, -4658, 2313, 682, 363, 647, 984, 225, 1097, 717, 433
15773000, 8705, 12199, -6363, 1825, 2020, 4632, -5168, -9331, -4658, 2313, 682, 363, 647, 984, 225, 1097, 717, 433
15773815, 8705, 12199, -6363, 1825, 2020, 4632, -5168, -9331, -4658, 2313, 682, 363, 647, 984, 225, 1097, 717, 433
15774628, 8705, 12199, -6363, 1825, 2020, 4632, -5168, -9331, -4658, 2313, 682, 363, 647, 984, 225, 1097, 717, 433
15779750, 8705, 12199, -6363, 1825, 2020, 4632, -5168, -9331, -4658, 2313, 682, 363, 647, 984, 225, 1097, 717, 433
15780675, 9862, 11191, -6770, -295, 315, 403, -661, -12903, -6963, -3203, 682, 363, 647, 984, 225, 1097, 717, 433
15781498, 9862, 11191, -6770, -295, 315, 403, -661, -12903, -6963, -3203, 590, 327, 637, 973, 218, 1144, 751, 448
15782322, 9862, 11191, -6770, -295, 315, 403, -661, -12903, -6963, -3203, 590, 327, 637, 973, 218, 1144, 751, 448
15787329, 9862, 11191, -6770, -295, 315, 403, -661, -12903, -6963, -3203, 590, 327, 637, 973, 218, 1144, 751, 448
15788127, 9862, 11191, -6770, -295, 315, 403, -661, -12903, -6963, -3203, 590, 327, 637, 973, 218, 1144, 751, 448
15788945, 9862, 11191, -6770, -295, 315, 403, -661, -12903, -6963, -3203, 590, 327, 637, 973, 218, 1144, 751, 448
15789762, 9862, 11191, -6770, -295, 315, 403, -661, -12903, -6963, -3203, 590, 327, 637, 973, 218, 1144, 751, 448
15794733, 9862, 11191, -6770, -295, 315, 403, -661, -12903, -6963, -3203, 590, 327, 637, 973, 218, 1144, 751, 448
15795544, 9862, 11191, -6770, -295, 315, 403, -661, -12903, -6963, -3203, 590, 327, 637, 973, 218, 1144, 751, 448
15796350, 9862, 11191, -6770, -295, 315, 403, -661, -12903, -6963, -3203, 590, 327, 637, 973, 218, 1144, 751, 448
15797149, 9862, 11191, -6770, -295, 315, 403, -661, -12903, -6963, -3203, 590, 327, 637, 973, 218, 1144, 751, 448
15802229, 9862, 11191, -6770, -295, 315, 403, -661, -12903, -6963, -3203, 590, 327, 637, 973, 218, 1144, 751, 448
15803178, 10907, 9765, -6926, -2477, 1880, 2008, 1193, -13856, -6794, -3506, 590, 327, 637, 973, 218, 1144, 751, 448
15803975, 10907, 9765, -6926, -2477, 1880, 2008, 1193, -13856, -6794, -3506, 535, 326, 618, 986, 260, 1188, 751, 523
15804782, 10907, 9765, -6926, -2477, 1880, 2008, 1193, -13856, -6794, -3506, 535, 326, 618, 986, 260, 1188, 751, 523
15809806, 10907, 9765, -6926, -2477, 1880, 2008, 1193, -13856, -6794, -3506, 535, 326, 618, 986, 260, 1188, 751, 523
15810625, 10907, 9765, -6926, -2477, 1880, 2008, 1193, -13856, -6794, -3506, 535, 326, 618, 986, 260, 1188, 751, 523
15811427, 10907, 9765, -6926, -2477, 1880, 2008, 1193, -13856, -6794, -3506, 535, 326, 618, 986, 260, 1188, 751, 523
15812262, 10907, 9765, -6926, -2477, 1880, 2008, 1193, -13856, -6794, -3506, 535, 326, 618, 986, 260, 1188, 751, 523
15817200, 10907, 9765, -6926, -2477, 1880, 2008, 1193, -13856, -6794, -3506, 535, 326, 618, 986, 260, 1188, 751, 523
15818005, 10907, 9765, -6926, -2477, 1880, 2008, 1193, -13856, -6794, -3506, 535, 326, 618, 986, 260, 1188, 751, 523
15818835, 10907, 9765, -6926, -2477, 1880, 2008, 1193, -13856, -6794, -3506, 535, 326, 618, 986, 260, 1188, 751, 523
15819626, 10907, 9765, -6926, -2477, 1880, 2008, 1193, -13856, -6794, -3506, 535, 326, 618, 986, 260, 1188, 751, 523
15824709, 10907, 9765, -6926, -2477, 1880, 2008, 1193, -13856, -6794, -3506, 535, 326, 618, 986, 260, 1188, 751, 523
15825655, 11494, 8996, -6925, -2725, 6464, -832, 6444, -5426, -89, 1390, 535, 326, 618, 986, 260, 1188, 751, 523
15826456, 11494, 8996, -6925, -2725, 6464, -832, 6444, -5426, -89, 1390, 546, 333, 627, 1141, 318, 1037, 693, 566
15827275, 11494, 8996, -6925, -2725, 6464, -832, 6444, -5426, -89, 1390, 546, 333, 627, 1141, 318, 1037, 693, 566
15832273, 11494, 8996, -6925, -2725, 6464, -832, 6444, -5426, -89, 1390, 546, 333, 627, 1141, 318, 1037, 693, 566
15833090, 11494, 8996, -6925, -2725, 6464, -832, 6444, -5426, -89, 1390, 546, 333, 627, 1141, 318, 1037, 693, 566
15833940, 11494, 8996, -6925, -2725, 6464, -832, 6444, -5426, -89, 1390, 546, 333, 627, 1141, 318, 1037, 693, 566
15834711, 11494, 8996, -6925, -2725, 6464, -832, 6444, -5426, -89, 1390, 546, 333, 627, 1141, 318, 1037, 693, 566
15839746, 11494, 8996, -6925, -2725, 6464, -832, 6444, -5426, -89, 1390, 546, 333, 627, 1141, 318, 1037, 693, 566
15840548, 11494, 8996, -6925, -2725, 6464, -832, 6444, -5426, -89, 1390, 546, 333, 627, 1141, 318, 1037, 693, 566
15841308, 11494, 8996, -6925, -2725, 6464, -832, 6444, -5426, -89, 1390, 546, 333, 627, 1141, 318, 1037, 693, 566
15842129, 11494, 8996, -6925, -2725, 6464, -832, 6444, -5426, -89, 1390, 546, 333, 627, 1141, 318, 1037, 693, 566
15846356, 11494, 8996, -6925, -2725, 6464, -832, 6444, -5426, -89, 1390, 546, 333, 627, 1141, 318, 1037, 693, 566
15847283, 11482, 9054, -6769, -2964, 918, 14508, -16965, -444, -95, -1569, 546, 333, 627, 1141, 318, 1037, 693, 566
15848106, 11482, 9054, -6769, -2964, 918, 14508, -16965, -444, -95, -1569, 576, 650, 626, 1192, 699, 1053, 633, 828
15854801, 11482, 9054, -6769, -2964, 918, 14508, -16965, -444, -95, -1569, 576, 650, 626, 1192, 699, 1053, 633, 828
15855631, 11482, 9054, -6769, -2964, 918, 14508, -16965, -444, -95, -1569, 576, 650, 626, 1192, 699, 1053, 633, 828
15856446, 11482, 9054, -6769, -2964, 918, 14508, -16965, -444, -95, -1569, 576, 650, 626, 1192, 699, 1053, 633, 828
15857255, 11482, 9054, -6769, -2964, 918, 14508, -16965, -444, -95, -1569, 576, 650, 626, 1192, 699, 1053, 633, 828
15862200, 11482, 9054, -6769, -2964, 918, 14508, -16965, -444, -95, -1569, 576, 650, 626, 1192, 699, 1053, 633, 828
15863022, 11482, 9054, -6769, -2964, 918, 14508, -16965, -444, -95, -1569, 576, 650, 626, 1192, 699, 1053, 633, 828
15863838, 11482, 9054, -6769, -2964, 918, 14508, -16965, -444, -95, -1569, 576, 650, 626, 1192, 699, 1053, 633, 828
15864654, 11482, 9054, -6769, -2964, 918, 14508, -16965, -444, -95, -1569, 576, 650, 626, 1192, 699, 1053, 633, 828
15869722, 11482, 9054, -6769, -2964, 918, 14508, -16965, -444, -95, -1569, 576, 650, 626, 1192, 699, 1053, 633, 828
15870647, 12242, 7653, -7206, -2842, 9754, -3969, 910, -7153, -1004, 5871, 576, 650, 626, 1192, 699, 1053, 633, 828
15871478, 12242, 7653, -7206, -2842, 9754, -3969, 910, -7153, -1004, 5871, 820, 880, 680, 1497, 775, 1234, 573, 872
15872284, 12242, 7653, -7206, -2842, 9754, -3969, 910, -7153, -1004, 5871, 820, 880, 680, 1497, 775, 1234, 573, 872
15877305, 12242, 7653, -7206, -2842, 9754, -3969, 910, -7153, -1004, 5871, 820, 880, 680, 1497, 775, 1234, 573, 872
15878107, 12242, 7653, -7206, -2842, 9754, -3969, 910, -7153, -1004, 5871, 820, 880, 680, 1497, 775, 1234, 573, 872
15878953, 12242, 7653, -7206, -2842, 9754, -3969, 910, -7153, -1004, 5871, 820, 880, 680, 1497, 775, 1234, 573, 872
15879737, 12242, 7653, -7206, -2842, 9754, -3969, 910, -7153, -1004, 5871, 820, 880, 680, 1497, 775, 1234, 573, 872
15884676, 12242, 7653, -7206, -2842, 9754, -3969, 910, -7153, -1004, 5871, 820, 880, 680, 1497, 775, 1234, 573, 872
15885499, 12242, 7653, -7206, -2842, 9754, -3969, 910, -7153, -1004, 5871, 820, 880, 680, 1497, 775, 1234, 573, 872
15886330, 12242, 7653, -7206, -2842, 9754, -3969, 910, -7153, -1004, 5871, 820, 880, 680, 1497, 775, 1234, 573, 872
15887127, 12242, 7653, -7206, -2842, 9754, -3969, 910, -7153, -1004, 5871, 820, 880, 680, 1497, 775, 1234, 573, 872
15892209, 12242, 7653, -7206, -2842, 9754, -3969, 910, -7153, -1004, 5871, 820, 880, 680, 1497, 775, 1234, 573, 872
15893146, 11373, 8615, -7873, -1699, 3573, 2125, -2782, 9814, -1015, 3328, 820, 880, 680, 1497, 775, 1234, 573, 872
15893953, 11373, 8615, -7873, -1699, 3573, 2125, -2782, 9814, -1015, 3328, 846, 919, 713, 1555, 781, 1201, 543, 908
15894760, 11373, 8615, -7873, -1699, 3573, 2125, -2782, 9814, -1015, 3328, 846, 919, 713, 1555, 781, 1201, 543, 908
15899775, 11373, 8615, -7873, -1699, 3573, 2125, -2782, 9814, -1015, 3328, 846, 919, 713, 1555, 781, 1201, 543, 908
15900575, 11373, 8615, -7873, -1699, 3573, 2125, -2782, 9814, -1015, 3328, 846, 919, 713, 1555, 781, 1201, 543, 908
15901406, 11373, 8615, -7873, -1699, 3573, 2125, -2782, 9814, -1015, 3328, 846, 919, 713, 1555, 781, 1201, 543, 908
15902230, 11373, 8615, -7873, -1699, 3573, 2125, -2782, 9814, -1015, 3328, 846, 919, 713, 1555, 781, 1201, 543, 908
15907228, 11373, 8615, -7873, -1699, 3573, 2125, -2782, 9814, -1015, 3328, 846, 919, 713, 1555, 781, 1201, 543, 908
15908038, 11373, 8615, -7873, -1699, 3573, 2125, -2782, 9814, -1015, 3328, 846, 919, 713, 1555, 781, 1201, 543, 908
15908853, 11373, 8615, -7873, -1699, 3573, 2125, -2782, 9814, -1015, 3328, 846, 919, 713, 1555, 781, 1201, 543, 908
15909674, 11373, 8615, -7873, -1699, 3573, 2125, -2782, 9814, -1015, 3328, 846, 919, 713, 1555, 781, 1201, 543, 908
15914725, 11373, 8615, -7873, -1699, 3573, 2125, -2782, 9814, -1015, 3328, 846, 919, 713, 1555, 781, 1201, 543, 908
15915682, 10183, 9630, -8482, -214, 3692, 488, -1131, 11802, -592, 3848, 846, 919, 713, 1555, 781, 1201, 543, 908
15916474, 10183, 9630, -8482, -214, 3692, 488, -1131, 11802, -592, 3848, 865, 1025, 727, 1576, 777, 1161, 544, 999
15917304, 10183, 9630, -8482, -214, 3692, 488, -1131, 11802, -592, 3848, 865, 1025, 727, 1576, 777, 1161, 544, 999
15922306, 10183, 9630, -8482, -214, 3692, 488, -1131, 11802, -592, 3848, 865, 1025, 727, 1576, 777, 1161, 544, 999
15923126, 10183, 9630, -8482, -214, 3692, 488, -1131, 11802, -592, 3848, 865, 1025, 727, 1576, 777, 1161, 544, 999
15923946, 10183, 9630, -8482, -214, 3692, 488, -1131, 11802, -592, 3848, 865, 1025, 727, 1576, 777, 1161, 544, 999
15924739, 10183, 9630, -8482, -214, 3692, 488, -1131, 11802, -592, 3848, 865, 1025, 727, 1576, 777, 1161, 544, 999
15929703, 10183, 9630, -8482, -214, 3692, 488, -1131, 11802, -592, 3848, 865, 1025, 727, 1576, 777, 1161, 544, 999
15930527, 10183, 9630, -8482, -214, 3692, 488, -1131, 11802, -592, 3848, 865, 1025, 727, 1576, 777, 1161, 544, 999
15931326, 10183, 9630, -8482, -214, 3692, 488, -1131, 11802, -592, 3848, 865, 1025, 727, 1576, 777, 1161, 544, 999
15932147, 10183, 9630, -8482, -214, 3692, 488, -1131, 11802, -592, 3848, 865, 1025, 727, 1576, 777, 1161, 544, 999
15937204, 10183, 9630, -8482, -214, 3692, 488, -1131, 11802, -592, 3848, 865, 1025, 727, 1576, 777, 1161, 544, 999
15938155, 9000, 10650, -8579, 637, 2194, 335, 1912, 10159, -1153, 38, 865, 1025, 727, 1576, 777, 1161, 544, 999
15938948, 9000, 10650, -8579, 637, 2194, 335, 1912, 10159, -1153, 38, 851, 1007, 723, 1499, 747, 1095, 545, 961
15939777, 9000, 10650, -8579, 637, 2194, 335, 1912, 10159, -1153, 38, 851, 1007, 723, 1499, 747, 1095, 545, 961
15944774, 9000, 10650, -8579, 637, 2194, 335, 1912, 10159, -1153, 38, 851, 1007, 723, 1499, 747, 1095, 545, 961
15945595, 9000, 10650, -8579, 637, 2194, 335, 1912, 10159, -1153, 38, 851, 1007, 723, 1499, 747, 1095, 545, 961
15946424, 9000, 10650, -8579, 637, 2194, 335, 1912, 10159, -1153, 38, 851, 1007, 723, 1499, 747, 1095, 545, 961
15947223, 9000, 10650, -8579, 637, 2194, 335, 1912, 10159, -1153, 38, 851, 1007, 723, 1499, 747, 1095, 545, 961
15952206, 9000, 10650, -8579, 637, 2194, 335, 1912, 10159, -1153, 38, 851, 1007, 723, 1499, 747, 1095, 545, 961
15953002, 9000, 10650, -8579, 637, 2194, 335, 1912, 10159, -1153, 38, 851, 1007, 723, 1499, 747, 1095, 545, 961
15953811, 9000, 10650, -8579, 637, 2194, 335, 1912, 10159, -1153, 38, 851, 1007, 723, 1499, 747, 1095, 545, 961
15954627, 9000, 10650, -8579, 637, 2194, 335, 1912, 10159, -1153, 38, 851, 1007, 723, 1499, 747, 1095, 545, 961
15959701, 9000, 10650, -8579, 637, 2194, 335, 1912, 10159, -1153, 38, 851, 1007, 723, 1499, 747, 1095, 545, 961
15960629, 8535, 11111, -8410, 1178, 3056, 2896, 254, 4937, 819, -225, 851, 1007, 723, 1499, 747, 1095, 545, 961
15961450, 8535, 11111, -8410, 1178, 3056, 2896, 254, 4937, 819, -225, 766, 825, 608, 1492, 413, 814, 491, 744
15962251, 8535, 11111, -8410, 1178, 3056, 2896, 254, 4937, 819, -225, 766, 825, 608, 1492, 413, 814, 491, 744
15967325, 8535, 11111, -8410, 1178, 3056, 2896, 254, 4937, 819, -225, 766, 825, 608, 1492, 413, 814, 491, 744
15968140, 8535, 11111, -8410, 1178, 3056, 2896, 254, 4937, 819, -225, 766, 825, 608, 1492, 413, 814, 491, 744
15968966, 8535, 11111, -8410, 1178, 3056, 2896, 254, 4937, 819, -225, 766, 825, 608, 1492, 413, 814, 491, 744
15969767, 8535, 11111, -8410, 1178, 3056, 2896, 254, 4937, 819, -225, 766, 825, 608, 1492, 413, 814, 491, 744
15974737, 8535, 11111, -8410, 1178, 3056, 2896, 254, 4937, 819, -225, 766, 825, 608, 1492, 413, 814, 491, 744
15975514, 8535, 11111, -8410, 1178, 3056, 2896, 254, 4937, 819, -225, 766, 825, 608, 1492, 413, 814, 491, 744
15976361, 8535, 11111, -8410, 1178, 3056, 2896, 254, 4937, 819, -225, 766, 825, 608, 1492, 413, 814, 491, 744
15977141, 8535, 11111, -8410, 1178, 3056, 2896, 254, 4937, 819, -225, 766, 825, 608, 1492, 413, 814, 491, 744
15982302, 8535, 11111, -8410, 1178, 3056, 2896, 254, 4937, 819, -225, 766, 825, 608, 1492, 413, 814, 491, 744
15983153, 8846, 10607, -8790, 632, 2653, 6445, -2713, -4373, -2089, 1169, 766, 825, 608, 1492, 413, 814, 491, 744
15983963, 8846, 10607, -8790, 632, 2653, 6445, -2713, -4373, -2089, 1169, 448, 582, 381, 1334, 239, 311, 204, 695
15984784, 8846, 10607, -8790, 632, 2653, 6445, -2713, -4373, -2089, 1169, 448, 582, 381, 1334, 239, 311, 204, 695
15989795, 8846, 10607, -8790, 632, 2653, 6445, -2713, -4373, -2089, 1169, 448, 582, 381, 1334, 239, 311, 204, 695
15990635, 8846, 10607, -8790, 632, 2653, 6445, -2713, -4373, -2089, 1169, 448, 582, 381, 1334, 239, 311, 204, 695
15991445, 8846, 10607, -8790, 632, 2653, 6445, -2713, -4373, -2089, 1169, 448, 582, 381, 1334, 239, 311, 204, 695
15992256, 8846, 10607, -8790, 632, 2653, 6445, -2713, -4373, -2089, 1169, 448, 582, 381, 1334, 239, 311, 204, 695
15997222, 8846, 10607, -8790, 632, 2653, 6445, -2713, -4373, -2089, 1169, 448, 582, 381, 1334, 239, 311, 204, 695
15998001, 8846, 10607, -8790, 632, 2653, 6445, -2713, -4373, -2089, 1169, 448, 582, 381, 1334, 239, 311, 204, 695
15998838, 8846, 10607, -8790, 632, 2653, 6445, -2713, -4373, -2089, 1169, 448, 582, 381, 1334, 239, 311, 204, 695
15999629, 8846, 10607, -8790, 632, 2653, 6445, -2713, -4373, -2089, 1169, 448, 582, 381, 1334, 239, 311, 204, 695
16004705, 8846, 10607, -8790, 632, 2653, 6445, -2713, -4373, -2089, 1169, 448, 582, 381, 1334, 239, 311, 204, 695
16005653, 9973, 9262, -9080, -854, 2656, 2701, -117, -12716, -2701, 330, 448, 582, 381, 1334, 239, 311, 204, 695
16006446, 9973, 9262, -9080, -854, 2656, 2701, -117, -12716, -2701, 330, 393, 519, 308, 1273, 219, 263, 161, 644
16007406, 9973, 9262, -9080, -854, 2656, 2701, -117, -12716, -2701, 330, 393, 519, 308, 1273, 219, 263, 161, 644
16012277, 9973, 9262, -9080, -854, 2656, 2701, -117, -12716, -2701, 330, 393, 519, 308, 1273, 219, 263, 161, 644
16013092, 9973, 9262, -9080, -854, 2656, 2701, -117, -12716, -2701, 330, 393, 519, 308, 1273, 219, 263, 161, 644
16013954, 9973, 9262, -9080, -854, 2656, 2701, -117, -12716, -2701, 330, 393, 519, 308, 1273, 219, 263, 161, 644
16014730, 9973, 9262, -9080, -854, 2656, 2701, -117, -12716, -2701, 330, 393, 519, 308, 1273, 219, 263, 161, 644
16019678, 9973, 9262, -9080, -854, 2656, 2701, -117, -12716, -2701, 330, 393, 519, 308, 1273, 219, 263, 161, 644
16020480, 9973, 9262, -9080, -854, 2656, 2701, -117, -12716, -2701, 330, 393, 519, 308, 1273, 219, 263, 161, 644
16021303, 9973, 9262, -9080, -854, 2656, 2701, -117, -12716, -2701, 330, 393, 519, 308, 1273, 219, 263, 161, 644
16022126, 9973, 9262, -9080, -854, 2656, 2701, -117, -12716, -2701, 330, 393, 519, 308, 1273, 219, 263, 161, 644
16027259, 9973, 9262, -9080, -854, 2656, 2701, -117, -12716, -2701, 330, 393, 519, 308, 1273, 219, 263, 161, 644
16028188, 11051, 7921, -8846, -2303, 4034, 474, -490, -12708, -888, -1621, 393, 519, 308, 1273, 219, 263, 161, 644
16029050, 11051, 7921, -8846, -2303, 4034, 474, -490, -12708, -888, -1621, 327, 249, 268, 1371, 261, 254, 155, 591
16029813, 11051, 7921, -8846, -2303, 4034, 474, -490, -12708, -888, -1621, 327, 249, 268, 1371, 261, 254, 155, 591
16034829, 11051, 7921, -8846, -2303, 4034, 474, -490, -12708, -888, -1621, 327, 249, 268, 1371, 261, 254, 155, 591
16035634, 11051, 7921, -8846, -2303, 4034, 474, -490, -12708, -888, -1621, 327, 249, 268, 1371, 261, 254, 155, 591
16036456, 11051, 7921, -8846, -2303, 4034, 474, -490, -12708, -888, -1621, 327, 249, 268, 1371, 261, 254, 155, 591
16037254, 11051, 7921, -8846, -2303, 4034, 474, -490, -12708, -888, -1621, 327, 249, 268, 1371, 261, 254, 155, 591
16042206, 11051, 7921, -8846, -2303, 4034, 474, -490, -12708, -888, -1621, 327, 249, 268, 1371, 261, 254, 155, 591
16043024, 11051, 7921, -8846, -2303, 4034, 474, -490, -12708, -888, -1621, 327, 249, 268, 1371, 261, 254, 155, 591
16043833, 11051, 7921, -8846, -2303, 4034, 474, -490, -12708, -888, -1621, 327, 249, 268, 1371, 261, 254, 155, 591
16044657, 11051, 7921, -8846, -2303, 4034, 474, -490, -12708, -888, -1621, 327, 249, 268, 1371, 261, 254, 155, 591
16049737, 11051, 7921, -8846, -2303, 4034, 474, -490, -12708, -888, -1621, 327, 249, 268, 1371, 261, 254, 155, 591
16050664, 11508, 7677, -8265, -2959, 3525, 6183, -1579, -4608, 1608, -2955, 327, 249, 268, 1371, 261, 254, 155, 591
16051485, 11508, 7677, -8265, -2959, 3525, 6183, -1579, -4608, 1608, -2955, 252, 299, 236, 1450, 246, 271, 143, 576
16052284, 11508, 7677, -8265, -2959, 3525, 6183, -1579, -4608, 1608, -2955, 252, 299, 236, 1450, 246, 271, 143, 576
16057306, 11508, 7677, -8265, -2959, 3525, 6183, -1579, -4608, 1608, -2955, 252, 299, 236, 1450, 246, 271, 143, 576
16058096, 11508, 7677, -8265, -2959, 3525, 6183, -1579, -4608, 1608, -2955, 252, 299, 236, 1450, 246, 271, 143, 576
16058948, 11508, 7677, -8265, -2959, 3525, 6183, -1579, -4608, 1608, -2955, 252, 299, 236, 1450, 246, 271, 143, 576
16059741, 11508, 7677, -8265, -2959, 3525, 6183, -1579, -4608, 1608, -2955, 252, 299, 236, 1450, 246, 271, 143, 576
16064693, 11508, 7677, -8265, -2959, 3525, 6183, -1579, -4608, 1608, -2955, 252, 299, 236, 1450, 246, 271, 143, 576
16065509, 11508, 7677, -8265, -2959, 3525, 6183, -1579, -4608, 1608, -2955, 252, 299, 236, 1450, 246, 271, 143, 576
16066331, 11508, 7677, -8265, -2959, 3525, 6183, -1579, -4608, 1608, -2955, 252, 299, 236, 1450, 246, 271, 143, 576
16067136, 11508, 7677, -8265, -2959, 3525, 6183, -1579, -4608, 1608, -2955, 252, 299, 236, 1450, 246, 271, 143, 576
16072210, 11508, 7677, -8265, -2959, 3525, 6183, -1579, -4608, 1608, -2955, 252, 299, 236, 1450, 246, 271, 143, 576
16073135, 11930, 6860, -8202, -3430, 2415, 2292, -6450, -5724, -622, 719, 252, 299, 236, 1450, 246, 271, 143, 576
16073955, 11930, 6860, -8202, -3430, 2415, 2292, -6450, -5724, -622, 719, 200, 416, 346, 1423, 255, 305, 137, 580
16074765, 11930, 6860, -8202, -3430, 2415, 2292, -6450, -5724, -622, 719, 200, 416, 346, 1423, 255, 305, 137, 580
16079780, 11930, 6860, -8202, -3430, 2415, 2292, -6450, -5724, -622, 719, 200, 416, 346, 1423, 255, 305, 137, 580
16080581, 11930, 6860, -8202, -3430, 2415, 2292, -6450, -5724, -622, 719, 200, 416, 346, 1423, 255, 305, 137, 580
16081400, 11930, 6860, -8202, -3430, 2415, 2292, -6450, -5724, -622, 719, 200, 416, 346, 1423, 255, 305, 137, 580
16082227, 11930, 6860, -8202, -3430, 2415, 2292, -6450, -5724, -622, 719, 200, 416, 346, 1423, 255, 305, 137, 580
16087227, 11930, 6860, -8202, -3430, 2415, 2292, -6450, -5724, -622, 719, 200, 416, 346, 1423, 255, 305, 137, 580
16088037, 11930, 6860, -8202, -3430, 2415, 2292, -6450, -5724, -622, 719, 200, 416, 346, 1423, 255, 305, 137, 580
16088854, 11930, 6860, -8202, -3430, 2415, 2292, -6450, -5724, -622, 719, 200, 416, 346, 1423, 255, 305, 137, 580
16089704, 11930, 6860, -8202, -3430, 2415, 2292, -6450, -5724, -622, 719, 200, 416, 346, 1423, 255, 305, 137, 580
16094729, 11930, 6860, -8202, -3430, 2415, 2292, -6450, -5724, -622, 719, 200, 416, 346, 1423, 255, 305, 137, 580
16095680, 11828, 7012, -8424, -2894, 5548, -792, -1648, 2623, 245, 2157, 200, 416, 346, 1423, 255, 305, 137, 580
16096478, 11828, 7012, -8424, -2894, 5548, -792, -1648, 2623, 245, 2157, 167, 406, 396, 1384, 255, 329, 113, 579
16097298, 11828, 7012, -8424, -2894, 5548, -792, -1648, 2623, 245, 2157, 167, 406, 396, 1384, 255, 329, 113, 579
16102302, 11828, 7012, -8424, -2894, 5548, -792, -1648, 2623, 245, 2157, 167, 406, 396, 1384, 255, 329, 113, 579
16103126, 11828, 7012, -8424, -2894, 5548, -792, -1648, 2623, 245, 2157, 167, 406, 396, 1384, 255, 329, 113, 579
16103954, 11828, 7012, -8424, -2894, 5548, -792, -1648, 2623, 245, 2157, 167, 406, 396, 1384, 255, 329, 113, 579
16104748, 11828, 7012, -8424, -2894, 5548, -792, -1648, 2623, 245, 2157, 167, 406, 396, 1384, 255, 329, 113, 579
16109702, 11828, 7012, -8424, -2894, 5548, -792, -1648, 2623, 245, 2157, 167, 406, 396, 1384, 255, 329, 113, 579
16110524, 11828, 7012, -8424, -2894, 5548, -792, -1648, 2623, 245, 2157, 167, 406, 396, 1384, 255, 329, 113, 579
16111332, 11828, 7012, -8424, -2894, 5548, -792, -1648, 2623, 245, 2157, 167, 406, 396, 1384, 255, 329, 113, 579
16112154, 11828, 7012, -8424, -2894, 5548, -792, -1648, 2623, 245, 2157, 167, 406, 396, 1384, 255, 329, 113, 579
16117229, 11828, 7012, -8424, -2894, 5548, -792, -1648, 2623, 245, 2157, 167, 406, 396, 1384, 255, 329, 113, 579
16118151, 11329, 7735, -8831, -1507, 4922, 1369, -1402, 8554, 962, 4029, 167, 406, 396, 1384, 255, 329, 113, 579
16118973, 11329, 7735, -8831, -1507, 4922, 1369, -1402, 8554, 962, 4029, 156, 409, 407, 1457, 251, 331, 93, 598
16119779, 11329, 7735, -8831, -1507, 4922, 1369, -1402, 8554, 962, 4029, 156, 409, 407, 1457, 251, 331, 93, 598
16124775, 11329, 7735, -8831, -1507, 4922, 1369, -1402, 8554, 962, 4029, 156, 409, 407, 1457, 251, 331, 93, 598
16125598, 11329, 7735, -8831, -1507, 4922, 1369, -1402, 8554, 962, 4029, 156, 409, 407, 1457, 251, 331, 93, 598
16126423, 11329, 7735, -8831, -1507, 4922, 1369, -1402, 8554, 962, 4029, 156, 409, 407, 1457, 251, 331, 93, 598
16127223, 11329, 7735, -8831, -1507, 4922, 1369, -1402, 8554, 962, 4029, 156, 409, 407, 1457, 251, 331, 93, 598
16132177, 11329, 7735, -8831, -1507, 4922, 1369, -1402, 8554, 962, 4029, 156, 409, 407, 1457, 251, 331, 93, 598
16133021, 11329, 7735, -8831, -1507, 4922, 1369, -1402, 8554, 962, 4029, 156, 409, 407, 1457, 251, 331, 93, 598
16133800, 11329, 7735, -8831, -1507, 4922, 1369, -1402, 8554, 962, 4029, 156, 409, 407, 1457, 251, 331, 93, 598
16134621, 11329, 7735, -8831, -1507, 4922, 1369, -1402, 8554, 962, 4029, 156, 409, 407, 1457, 251, 331, 93, 598
16139703, 11329, 7735, -8831, -1507, 4922, 1369, -1402, 8554, 962, 4029, 156, 409, 407, 1457, 251, 331, 93, 598
16140637, 10516, 8665, -9096, -67, 2507, 323, -338, 10268, 803, 2864, 156, 409, 407, 1457, 251, 331, 93, 598
16141455, 10516, 8665, -9096, -67, 2507, 323, -338, 10268, 803, 2864, 210, 425, 425, 1333, 166, 316, 102, 607
16142254, 10516, 8665, -9096, -67, 2507, 323, -338, 10268, 803, 2864, 210, 425, 425, 1333, 166, 316, 102, 607
16147276, 10516, 8665, -9096, -67, 2507, 323, -338, 10268, 803, 2864, 210, 425, 425, 1333, 166, 316, 102, 607
16148074, 10516, 8665, -9096, -67, 2507, 323, -338, 10268, 803, 2864, 210, 425, 425, 1333, 166, 316, 102, 607
16148951, 10516, 8665, -9096, -67, 2507, 323, -338, 10268, 803, 2864, 210, 425, 425, 1333, 166, 316, 102, 607
16149708, 10516, 8665, -9096, -67, 2507, 323, -338, 10268, 803, 2864, 210, 425, 425, 1333, 166, 316, 102, 607
16154725, 10516, 8665, -9096, -67, 2507, 323, -338, 10268, 803, 2864, 210, 425, 425, 1333, 166, 316, 102, 607
16155525, 10516, 8665, -9096, -67, 2507, 323, -338, 10268, 803, 2864, 210, 425, 425, 1333, 166, 316, 102, 607
16156356, 10516, 8665, -9096, -67, 2507, 323, -338, 10268, 803, 2864, 210, 425, 425, 1333, 166, 316, 102, 607
16157173, 10516, 8665, -9096, -67, 2507, 323, -338, 10268, 803, 2864, 210, 425, 425, 1333, 166, 316, 102, 607
16162225, 10516, 8665, -9096, -67, 2507, 323, -338, 10268, 803, 2864, 210, 425, 425, 1333, 166, 316, 102, 607
16163175, 9689, 9514, -9147, 603, 2475, 2277, 206, 7719, -870, -108, 210, 425, 425, 1333, 166, 316, 102, 607
16163973, 9689, 9514, -9147, 603, 2475, 2277, 206, 7719, -870, -108, 365, 396, 430, 1077, 146, 306, 101, 658
16164791, 9689, 9514, -9147, 603, 2475, 2277, 206, 7719, -870, -108, 365, 396, 430, 1077, 146, 306, 101, 658
16169804, 9689, 9514, -9147, 603, 2475, 2277, 206, 7719, -870, -108, 365, 396, 430, 1077, 146, 306, 101, 658
16170624, 9689, 9514, -9147, 603, 2475, 2277, 206, 7719, -870, -108, 365, 396, 430, 1077, 146, 306, 101, 658
16171421, 9689, 9514, -9147, 603, 2475, 2277, 206, 7719, -870, -108, 365, 396, 430, 1077, 146, 306, 101, 658
16172250, 9689, 9514, -9147, 603, 2475, 2277, 206, 7719, -870, -108, 365, 396, 430, 1077, 146, 306, 101, 658
16177203, 9689, 9514, -9147, 603, 2475, 2277, 206, 7719, -870, -108, 365, 396, 430, 1077, 146, 306, 101, 658
16178002, 9689, 9514, -9147, 603, 2475, 2277, 206, 7719, -870, -108, 365, 396, 430, 1077, 146, 306, 101, 658
16178819, 9689, 9514, -9147, 603, 2475, 2277, 206, 7719, -870, -108, 365, 396, 430, 1077, 146, 306, 101, 658
16179647, 9689, 9514, -9147, 603, 2475, 2277, 206, 7719, -870, -108, 365, 396, 430, 1077, 146, 306, 101, 658
16184725, 9689, 9514, -9147, 603, 2475, 2277, 206, 7719, -870, -108, 365, 396, 430, 1077, 146, 306, 101, 658
16185648, 9228, 10147, -8902, 1039, 2036, 1023, 1384, 5173, 431, -1331, 365, 396, 430, 1077, 146, 306, 101, 658
16186444, 9228, 10147, -8902, 1039, 2036, 1023, 1384, 5173, 431, -1331, 372, 250, 320, 986, 106, 255, 98, 665
16187265, 9228, 10147, -8902, 1039, 2036, 1023, 1384, 5173, 431, -1331, 372, 250, 320, 986, 106, 255, 98, 665
16192277, 9228, 10147, -8902, 1039, 2036, 1023, 1384, 5173, 431, -1331, 372, 250, 320, 986, 106, 255, 98, 665
16193108, 9228, 10147, -8902, 1039, 2036, 1023, 1384, 5173, 431, -1331, 372, 250, 320, 986, 106, 255, 98, 665
16193962, 9228, 10147, -8902, 1039, 2036, 1023, 1384, 5173, 431, -1331, 372, 250, 320, 986, 106, 255, 98, 665
16194724, 9228, 10147, -8902, 1039, 2036, 1023, 1384, 5173, 431, -1331, 372, 250, 320, 986, 106, 255, 98, 665
16199685, 9228, 10147, -8902, 1039, 2036, 1023, 1384, 5173, 431, -1331, 372, 250, 320, 986, 106, 255, 98, 665
16200481, 9228, 10147, -8902, 1039, 2036, 1023, 1384, 5173, 431, -1331, 372, 250, 320, 986, 106, 255, 98, 665
16201303, 9228, 10147, -8902, 1039, 2036, 1023, 1384, 5173, 431, -1331, 372, 250, 320, 986, 106, 255, 98, 665
16202121, 9228, 10147, -8902, 1039, 2036, 1023, 1384, 5173, 431, -1331, 372, 250, 320, 986, 106, 255, 98, 665
16207244, 9228, 10147, -8902, 1039, 2036, 1023, 1384, 5173, 431, -1331, 372, 250, 320, 986, 106, 255, 98, 665
16208170, 9017, 10298, -8946, 1016, 3555, 4214, -1250, 1122, -911, -303, 372, 250, 320, 986, 106, 255, 98, 665
16208990, 9017, 10298, -8946, 1016, 3555, 4214, -1250, 1122, -911, -303, 400, 246, 250, 1080, 93, 258, 109, 664
16209800, 9017, 10298, -8946, 1016, 3555, 4214, -1250, 1122, -911, -303, 400, 246, 250, 1080, 93, 258, 109, 664
16214814, 9017, 10298, -8946, 1016, 3555, 4214, -1250, 1122, -911, -303, 400, 246, 250, 1080, 93, 258, 109, 664
16215641, 9017, 10298, -8946, 1016, 3555, 4214, -1250, 1122, -911, -303, 400, 246, 250, 1080, 93, 258, 109, 664
16216651, 9017, 10298, -8946, 1016, 3555, 4214, -1250, 1122, -911, -303, 400, 246, 250, 1080, 93, 258, 109, 664
16217392, 9017, 10298, -8946, 1016, 3555, 4214, -1250, 1122, -911, -303, 400, 246, 250, 1080, 93, 258, 109, 664
16222201, 9017, 10298, -8946, 1016, 3555, 4214, -1250, 1122, -911, -303, 400, 246, 250, 1080, 93, 258, 109, 664
16223032, 9017, 10298, -8946, 1016, 3555, 4214, -1250, 1122, -911, -303, 400, 246, 250, 1080, 93, 258, 109, 664
16223846, 9017, 10298, -8946, 1016, 3555, 4214, -1250, 1122, -911, -303, 400, 246, 250, 1080, 93, 258, 109, 664
16224646, 9017, 10298, -8946, 1016, 3555, 4214, -1250, 1122, -911, -303, 400, 246, 250, 1080, 93, 258, 109, 664
16229708, 9017, 10298, -8946, 1016, 3555, 4214, -1250, 1122, -911, -303, 400, 246, 250, 1080, 93, 258, 109, 664
16230638, 9604, 9559, -9210, 23, 2142, 4622, -1546, -7490, -2268, -78, 400, 246, 250, 1080, 93, 258, 109, 664
16231485, 9604, 9559, -9210, 23, 2142, 4622, -1546, -7490, -2268, -78, 401, 238, 234, 991, 92, 273, 122, 629
16232270, 9604, 9559, -9210, 23, 2142, 4622, -1546, -7490, -2268, -78, 401, 238, 234, 991, 92, 273, 122, 629
16237293, 9604, 9559, -9210, 23, 2142, 4622, -1546, -7490, -2268, -78, 401, 238, 234, 991, 92, 273, 122, 629
16238091, 9604, 9559, -9210, 23, 2142, 4622, -1546, -7490, -2268, -78, 401, 238, 234, 991, 92, 273, 122, 629
16238945, 9604, 9559, -9210, 23, 2142, 4622, -1546, -7490, -2268, -78, 401, 238, 234, 991, 92, 273, 122, 629
16239767, 9604, 9559, -9210, 23, 2142, 4622, -1546, -7490, -2268, -78, 401, 238, 234, 991, 92, 273, 122, 629
16244694, 9604, 9559, -9210, 23, 2142, 4622, -1546, -7490, -2268, -78, 401, 238, 234, 991, 92, 273, 122, 629
16245487, 9604, 9559, -9210, 23, 2142, 4622, -1546, -7490, -2268, -78, 401, 238, 234, 991, 92, 273, 122, 629
16246315, 9604, 9559, -9210, 23, 2142, 4622, -1546, -7490, -2268, -78, 401, 238, 234, 991, 92, 273, 122, 629
16247112, 9604, 9559, -9210, 23, 2142, 4622, -1546, -7490, -2268, -78, 401, 238, 234, 991, 92, 273, 122, 629
16252194, 9604, 9559, -9210, 23, 2142, 4622, -1546, -7490, -2268, -78, 401, 238, 234, 991, 92, 273, 122, 629
16253113, 10680, 8154, -9259, -1467, 2924, 2698, -1001, -12992, -1615, -385, 401, 238, 234, 991, 92, 273, 122, 629
16253935, 10680, 8154, -9259, -1467, 2924, 2698, -1001, -12992, -1615, -385, 366, 206, 193, 990, 86, 266, 120, 676
16254747, 10680, 8154, -9259, -1467, 2924, 2698, -1001, -12992, -1615, -385, 366, 206, 193, 990, 86, 266, 120, 676
16259774, 10680, 8154, -9259, -1467, 2924, 2698, -1001, -12992, -1615, -385, 366, 206, 193, 990, 86, 266, 120, 676
16260589, 10680, 8154, -9259, -1467, 2924, 2698, -1001, -12992, -1615, -385, 366, 206, 193, 990, 86, 266, 120, 676
16261389, 10680, 8154, -9259, -1467, 2924, 2698, -1001, -12992, -1615, -385, 366, 206, 193, 990, 86, 266, 120, 676
16262211, 10680, 8154, -9259, -1467, 2924, 2698, -1001, -12992, -1615, -385, 366, 206, 193, 990, 86, 266, 120, 676
16267165, 10680, 8154, -9259, -1467, 2924, 2698, -1001, -12992, -1615, -385, 366, 206, 193, 990, 86, 266, 120, 676
16267957, 10680, 8154, -9259, -1467, 2924, 2698, -1001, -12992, -1615, -385, 366, 206, 193, 990, 86, 266, 120, 676
16268772, 10680, 8154, -9259, -1467, 2924, 2698, -1001, -12992, -1615, -385, 366, 206, 193, 990, 86, 266, 120, 676
16269592, 10680, 8154, -9259, -1467, 2924, 2698, -1001, -12992, -1615, -385, 366, 206, 193, 990, 86, 266, 120, 676
16274746, 10680, 8154, -9259, -1467, 2924, 2698, -1001, -12992, -1615, -385, 366, 206, 193, 990, 86, 266, 120, 676
16275664, 11664, 6974, -8791, -2540, 4516, 1729, -432, -10747, 1240, -1003, 366, 206, 193, 990, 86, 266, 120, 676
16276489, 11664, 6974, -8791, -2540, 4516, 1729, -432, -10747, 1240, -1003, 220, 159, 187, 1228, 129, 348, 137, 697
16277293, 11664, 6974, -8791, -2540, 4516, 1729, -432, -10747, 1240, -1003, 220, 159, 187, 1228, 129, 348, 137, 697
16282288, 11664, 6974, -8791, -2540, 4516, 1729, -432, -10747, 1240, -1003, 220, 159, 187, 1228, 129, 348, 137, 697
16283109, 11664, 6974, -8791, -2540, 4516, 1729, -432, -10747, 1240, -1003, 220, 159, 187, 1228, 129, 348, 137, 697
16283941, 11664, 6974, -8791, -2540, 4516, 1729, -432, -10747, 1240, -1003, 220, 159, 187, 1228, 129, 348, 137, 697
16284737, 11664, 6974, -8791, -2540, 4516, 1729, -432, -10747, 1240, -1003, 220, 159, 187, 1228, 129, 348, 137, 697
16289717, 11664, 6974, -8791, -2540, 4516, 1729, -432, -10747, 1240, -1003, 220, 159, 187, 1228, 129, 348, 137, 697
16290530, 11664, 6974, -8791, -2540, 4516, 1729, -432, -10747, 1240, -1003, 220, 159, 187, 1228, 129, 348, 137, 697
16291331, 11664, 6974, -8791, -2540, 4516, 1729, -432, -10747, 1240, -1003, 220, 159, 187, 1228, 129, 348, 137, 697
16292214, 11664, 6974, -8791, -2540, 4516, 1729, -432, -10747, 1240, -1003, 220, 159, 187, 1228, 129, 348, 137, 697
16297225, 11664, 6974, -8791, -2540, 4516, 1729, -432, -10747, 1240, -1003, 220, 159, 187, 1228, 129, 348, 137, 697
16298151, 11764, 6903, -8658, -2726, 1291, 4897, -6692, -1192, 327, -759, 220, 159, 187, 1228, 129, 348, 137, 697
16298981, 11764, 6903, -8658, -2726, 1291, 4897, -6692, -1192, 327, -759, 210, 505, 169, 1312, 134, 364, 145, 685
16299786, 11764, 6903, -8658, -2726, 1291, 4897, -6692, -1192, 327, -759, 210, 505, 169, 1312, 134, 364, 145, 685
16304781, 11764, 6903, -8658, -2726, 1291, 4897, -6692, -1192, 327, -759, 210, 505, 169, 1312, 134, 364, 145, 685
16305604, 11764, 6903, -8658, -2726, 1291, 4897, -6692, -1192, 327, -759, 210, 505, 169, 1312, 134, 364, 145, 685
16306412, 11764, 6903, -8658, -2726, 1291, 4897, -6692, -1192, 327, -759, 210, 505, 169, 1312, 134, 364, 145, 685
16307224, 11764, 6903, -8658, -2726, 1291, 4897, -6692, -1192, 327, -759, 210, 505, 169, 1312, 134, 364, 145, 685
16312177, 11764, 6903, -8658, -2726, 1291, 4897, -6692, -1192, 327, -759, 210, 505, 169, 1312, 134, 364, 145, 685
16313011, 11764, 6903, -8658, -2726, 1291, 4897, -6692, -1192, 327, -759, 210, 505, 169, 1312, 134, 364, 145, 685
16313817, 11764, 6903, -8658, -2726, 1291, 4897, -6692, -1192, 327, -759, 210, 505, 169, 1312, 134, 364, 145, 685
16314624, 11764, 6903, -8658, -2726, 1291, 4897, -6692, -1192, 327, -759, 210, 505, 169, 1312, 134, 364, 145, 685
16319701, 11764, 6903, -8658, -2726, 1291, 4897, -6692, -1192, 327, -759, 210, 505, 169, 1312, 134, 364, 145, 685
16320634, 11442, 6652, -9335, -2473, 4163, -2890, -2100, 1129, -3314, 3060, 210, 505, 169, 1312, 134, 364, 145, 685
16321451, 11442, 6652, -9335, -2473, 4163, -2890, -2100, 1129, -3314, 3060, 161, 665, 151, 1197, 144, 354, 149, 755
16322256, 11442, 6652, -9335, -2473, 4163, -2890, -2100, 1129, -3314, 3060, 161, 665, 151, 1197, 144, 354, 149, 755
16327279, 11442, 6652, -9335, -2473, 4163, -2890, -2100, 1129, -3314, 3060, 161, 665, 151, 1197, 144, 354, 149, 755
16328080, 11442, 6652, -9335, -2473, 4163, -2890, -2100, 1129, -3314, 3060, 161, 665, 151, 1197, 144, 354, 149, 755
16328963, 11442, 6652, -9335, -2473, 4163, -2890, -2100, 1129, -3314, 3060, 161, 665, 151, 1197, 144, 354, 149, 755
16329726, 11442, 6652, -9335, -2473, 4163, -2890, -2100, 1129, -3314, 3060, 161, 665, 151, 1197, 144, 354, 149, 755
16334729, 11442, 6652, -9335, -2473, 4163, -2890, -2100, 1129, -3314, 3060, 161, 665, 151, 1197, 144, 354, 149, 755
16335528, 11442, 6652, -9335, -2473, 4163, -2890, -2100, 1129, -3314, 3060, 161, 665, 151, 1197, 144, 354, 149, 755
16336352, 11442, 6652, -9335, -2473, 4163, -2890, -2100, 1129, -3314, 3060, 161, 665, 151, 1197, 144, 354, 149, 755
16337181, 11442, 6652, -9335, -2473, 4163, -2890, -2100, 1129, -3314, 3060, 161, 665, 151, 1197, 144, 354, 149, 755
16342226, 11442, 6652, -9335, -2473, 4163, -2890, -2100, 1129, -3314, 3060, 161, 665, 151, 1197, 144, 354, 149, 755
16343180, 10820, 7184, -9928, -1086, 4609, 250, -620, 8461, -701, 4569, 161, 665, 151, 1197, 144, 354, 149, 755
16343974, 10820, 7184, -9928, -1086, 4609, 250, -620, 8461, -701, 4569, 164, 671, 157, 1416, 149, 353, 139, 859
16344811, 10820, 7184, -9928, -1086, 4609, 250, -620, 8461, -701, 4569, 164, 671, 157, 1416, 149, 353, 139, 859
16349805, 10820, 7184, -9928, -1086, 4609, 250, -620, 8461, -701, 4569, 164, 671, 157, 1416, 149, 353, 139, 859
16350612, 10820, 7184, -9928, -1086, 4609, 250, -620, 8461, -701, 4569, 164, 671, 157, 1416, 149, 353, 139, 859
16351416, 10820, 7184, -9928, -1086, 4609, 250, -620, 8461, -701, 4569, 164, 671, 157, 1416, 149, 353, 139, 859
16352256, 10820, 7184, -9928, -1086, 4609, 250, -620, 8461, -701, 4569, 164, 671, 157, 1416, 149, 353, 139, 859
16357194, 10820, 7184, -9928, -1086, 4609, 250, -620, 8461, -701, 4569, 164, 671, 157, 1416, 149, 353, 139, 859
16358036, 10820, 7184, -9928, -1086, 4609, 250, -620, 8461, -701, 4569, 164, 671, 157, 1416, 149, 353, 139, 859
16358821, 10820, 7184, -9928, -1086, 4609, 250, -620, 8461, -701, 4569, 164, 671, 157, 1416, 149, 353, 139, 859
16359655, 10820, 7184, -9928, -1086, 4609, 250, -620, 8461, -701, 4569, 164, 671, 157, 1416, 149, 353, 139, 859
16364706, 10820, 7184, -9928, -1086, 4609, 250, -620, 8461, -701, 4569, 164, 671, 157, 1416, 149, 353, 139, 859
16365662, 9799, 8100, -10328, 379, 3264, -830, -813, 11000, -1017, 2592, 164, 671, 157, 1416, 149, 353, 139, 859
16366459, 9799, 8100, -10328, 379, 3264, -830, -813, 11000, -1017, 2592, 185, 693, 164, 1428, 151, 358, 139, 836
16367279, 9799, 8100, -10328, 379, 3264, -830, -813, 11000, -1017, 2592, 185, 693, 164, 1428, 151, 358, 139, 836
16372280, 9799, 8100, -10328, 379, 3264, -830, -813, 11000, -1017, 2592, 185, 693, 164, 1428, 151, 358, 139, 836
16373090, 9799, 8100, -10328, 379, 3264, -830, -813, 11000, -1017, 2592, 185, 693, 164, 1428, 151, 358, 139, 836
16374074, 9799, 8100, -10328, 379, 3264, -830, -813, 11000, -1017, 2592, 185, 693, 164, 1428, 151, 358, 139, 836
16374726, 9799, 8100, -10328, 379, 3264, -830, -813, 11000, -1017, 2592, 185, 693, 164, 1428, 151, 358, 139, 836
16379679, 9799, 8100, -10328, 379, 3264, -830, -813, 11000, -1017, 2592, 185, 693, 164, 1428, 151, 358, 139, 836
16380496, 9799, 8100, -10328, 379, 3264, -830, -813, 11000, -1017, 2592, 185, 693, 164, 1428, 151, 358, 139, 836
16381300, 9799, 8100, -10328, 379, 3264, -830, -813, 11000, -1017, 2592, 185, 693, 164, 1428, 151, 358, 139, 836
16382124, 9799, 8100, -10328, 379, 3264, -830, -813, 11000, -1017, 2592, 185, 693, 164, 1428, 151, 358, 139, 836
16387253, 9799, 8100, -10328, 379, 3264, -830, -813, 11000, -1017, 2592, 185, 693, 164, 1428, 151, 358, 139, 836
16388180, 8870, 8963, -10357, 1462, 3164, 1268, -822, 9334, -570, 707, 185, 693, 164, 1428, 151, 358, 139, 836
16389005, 8870, 8963, -10357, 1462, 3164, 1268, -822, 9334, -570, 707, 184, 754, 193, 1256, 462, 335, 120, 907
16389798, 8870, 8963, -10357, 1462, 3164, 1268, -822, 9334, -570, 707, 184, 754, 193, 1256, 462, 335, 120, 907
16402338, 8870, 8963, -10357, 1462, 3164, 1268, -822, 9334, -570, 707, 184, 754, 193, 1256, 462, 335, 120, 907
16403119, 8870, 8963, -10357, 1462, 3164, 1268, -822, 9334, -570, 707, 184, 754, 193, 1256, 462, 335, 120, 907
16403941, 8870, 8963, -10357, 1462, 3164, 1268, -822, 9334, -570, 707, 184, 754, 193, 1256, 462, 335, 120, 907
16404755, 8870, 8963, -10357, 1462, 3164, 1268, -822, 9334, -570, 707, 184, 754, 193, 1256, 462, 335, 120, 907
16409713, 8870, 8963, -10357, 1462, 3164, 1268, -822, 9334, -570, 707, 184, 754, 193, 1256, 462, 335, 120, 907
16410534, 8870, 8963, -10357, 1462, 3164, 1268, -822, 9334, -570, 707, 184, 754, 193, 1256, 462, 335, 120, 907
16411357, 8870, 8963, -10357, 1462, 3164, 1268, -822, 9334, -570, 707, 184, 754, 193, 1256, 462, 335, 120, 907
16412156, 8870, 8963, -10357, 1462, 3164, 1268, -822, 9334, -570, 707, 184, 754, 193, 1256, 462, 335, 120, 907
16417282, 8870, 8963, -10357, 1462, 3164, 1268, -822, 9334, -570, 707, 329, 795, 717, 1107, 794, 466, 109, 966
16418076, 8870, 8963, -10357, 1462, 3164, 1268, -822, 9334, -570, 707, 329, 795, 717, 1107, 794, 466, 109, 966
16418952, 8870, 8963, -10357, 1462, 3164, 1268, -822, 9334, -570, 707, 329, 795, 717, 1107, 794, 466, 109, 966
16419714, 8870, 8963, -10357, 1462, 3164, 1268, -822, 9334, -570, 707, 329, 795, 717, 1107, 794, 466, 109, 966
16424661, 8870, 8963, -10357, 1462, 3164, 1268, -822, 9334, -570, 707, 329, 795, 717, 1107, 794, 466, 109, 966
16425485, 8870, 8963, -10357, 1462, 3164, 1268, -822, 9334, -570, 707, 329, 795, 717, 1107, 794, 466, 109, 966
16426306, 8870, 8963, -10357, 1462, 3164, 1268, -822, 9334, -570, 707, 329, 795, 717, 1107, 794, 466, 109, 966
16427110, 8870, 8963, -10357, 1462, 3164, 1268, -822, 9334, -570, 707, 329, 795, 717, 1107, 794, 466, 109, 966
16432238, 8870, 8963, -10357, 1462, 3164, 1268, -822, 9334, -570, 707, 329, 795, 717, 1107, 794, 466, 109, 966
16433182, 8301, 9433, -10142, 2768, 3868, 4789, -1820, 2292, 1159, 1975, 329, 795, 717, 1107, 794, 466, 109, 966
16434009, 8301, 9433, -10142, 2768, 3868, 4789, -1820, 2292, 1159, 1975, 371, 739, 1080, 1187, 816, 567, 94, 923
16434823, 8301, 9433, -10142, 2768, 3868, 4789, -1820, 2292, 1159, 1975, 371, 739, 1080, 1187, 816, 567, 94, 923
16439810, 8301, 9433, -10142, 2768, 3868, 4789, -1820, 2292, 1159, 1975, 371, 739, 1080, 1187, 816, 567, 94, 923
16440638, 8301, 9433, -10142, 2768, 3868, 4789, -1820, 2292, 1159, 1975, 371, 739, 1080, 1187, 816, 567, 94, 923
16441461, 8301, 9433, -10142, 2768, 3868, 4789, -1820, 2292, 1159, 1975, 371, 739, 1080, 1187, 816, 567, 94, 923
16442259, 8301, 9433, -10142, 2768, 3868, 4789, -1820, 2292, 1159, 1975, 371, 739, 1080, 1187, 816, 567, 94, 923
16447207, 8301, 9433, -10142, 2768, 3868, 4789, -1820, 2292, 1159, 1975, 371, 739, 1080, 1187, 816, 567, 94, 923
16448007, 8301, 9433, -10142, 2768, 3868, 4789, -1820, 2292, 1159, 1975, 371, 739, 1080, 1187, 816, 567, 94, 923
16448834, 8301, 9433, -10142, 2768, 3868, 4789, -1820, 2292, 1159, 1975, 371, 739, 1080, 1187, 816, 567, 94, 923
16449650, 8301, 9433, -10142, 2768, 3868, 4789, -1820, 2292, 1159, 1975, 371, 739, 1080, 1187, 816, 567, 94, 923
16454729, 8301, 9433, -10142, 2768, 3868, 4789, -1820, 2292, 1159, 1975, 371, 739, 1080, 1187, 816, 567, 94, 923
16455651, 8448, 9086, -10353, 2704, 2368, 3553, -598, -1706, -24, 1851, 371, 739, 1080, 1187, 816, 567, 94, 923
16456489, 8448, 9086, -10353, 2704, 2368, 3553, -598, -1706, -24, 1851, 367, 842, 1281, 899, 817, 582, 100, 824
16457297, 8448, 9086, -10353, 2704, 2368, 3553, -598, -1706, -24, 1851, 367, 842, 1281, 899, 817, 582, 100, 824
16462281, 8448, 9086, -10353, 2704, 2368, 3553, -598, -1706, -24, 1851, 367, 842, 1281, 899, 817, 582, 100, 824
16463099, 8448, 9086, -10353, 2704, 2368, 3553, -598, -1706, -24, 1851, 367, 842, 1281, 899, 817, 582, 100, 824
16463948, 8448, 9086, -10353, 2704, 2368, 3553, -598, -1706, -24, 1851, 367, 842, 1281, 899, 817, 582, 100, 824
16464731, 8448, 9086, -10353, 2704, 2368, 3553, -598, -1706, -24, 1851, 367, 842, 1281, 899, 817, 582, 100, 824
16469680, 8448, 9086, -10353, 2704, 2368, 3553, -598, -1706, -24, 1851, 367, 842, 1281, 899, 817, 582, 100, 824
16470504, 8448, 9086, -10353, 2704, 2368, 3553, -598, -1706, -24, 1851, 367, 842, 1281, 899, 817, 582, 100, 824
16471306, 8448, 9086, -10353, 2704, 2368, 3553, -598, -1706, -24, 1851, 367, 842, 1281, 899, 817, 582, 100, 824
16472132, 8448, 9086, -10353, 2704, 2368, 3553, -598, -1706, -24, 1851, 367, 842, 1281, 899, 817, 582, 100, 824
16477205, 8448, 9086, -10353, 2704, 2368, 3553, -598, -1706, -24, 1851, 367, 842, 1281, 899, 817, 582, 100, 824
16478127, 8786, 8443, -10756, 2067, 3806, 559, -3122, -5540, -1353, 1375, 367, 842, 1281, 899, 817, 582, 100, 824
16478952, 8786, 8443, -10756, 2067, 3806, 559, -3122, -5540, -1353, 1375, 358, 831, 1305, 889, 819, 585, 91, 678
16479760, 8786, 8443, -10756, 2067, 3806, 559, -3122, -5540, -1353, 1375, 358, 831, 1305, 889, 819, 585, 91, 678
16484775, 8786, 8443, -10756, 2067, 3806, 559, -3122, -5540, -1353, 1375, 358, 831, 1305, 889, 819, 585, 91, 678
16485577, 8786, 8443, -10756, 2067, 3806, 559, -3122, -5540, -1353, 1375, 358, 831, 1305, 889, 819, 585, 91, 678
16486397, 8786, 8443, -10756, 2067, 3806, 559, -3122, -5540, -1353, 1375, 358, 831, 1305, 889, 819, 585, 91, 678
16487199, 8786, 8443, -10756, 2067, 3806, 559, -3122, -5540, -1353, 1375, 358, 831, 1305, 889, 819, 585, 91, 678
16492238, 8786, 8443, -10756, 2067, 3806, 559, -3122, -5540, -1353, 1375, 358, 831, 1305, 889, 819, 585, 91, 678
16493030, 8786, 8443, -10756, 2067, 3806, 559, -3122, -5540, -1353, 1375, 358, 831, 1305, 889, 819, 585, 91, 678
16493843, 8786, 8443, -10756, 2067, 3806, 559, -3122, -5540, -1353, 1375, 358, 831, 1305, 889, 819, 585, 91, 678
16494679, 8786, 8443, -10756, 2067, 3806, 559, -3122, -5540, -1353, 1375, 358, 831, 1305, 889, 819, 585, 91, 678
16499729, 8786, 8443, -10756, 2067, 3806, 559, -3122, -5540, -1353, 1375, 358, 831, 1305, 889, 819, 585, 91, 678
16500679, 9085, 7844, -11065, 1386, 4163, 597, -1912, -5469, -1380, 666, 358, 831, 1305, 889, 819, 585, 91, 678
16501474, 9085, 7844, -11065, 1386, 4163, 597, -1912, -5469, -1380, 666, 355, 783, 1299, 858, 688, 561, 89, 463
16502306, 9085, 7844, -11065, 1386, 4163, 597, -1912, -5469, -1380, 666, 355, 783, 1299, 858, 688, 561, 89, 463