Timestamp, Orientation x, Orientation y, Orientation z, Orientation w, Acceleration x, Acceleration y, Acceleration z, Rotation x, Rotation y, Rotation z, EMG 0, EMG 1, EMG 2, EMG 3, EMG 4, EMG 5, EMG 6, EMG 7
121316701, 9777, 5447, -11923, 1011, 4105, 1273, -1450, -88, 860, -1118, 0, 0, 0, 0, 0, 0, 0, 0
121324220, 9914, 5591, -11750, 897, 4042, 1404, -1344, -221, 964, -1382, 0, 0, 0, 0, 0, 0, 0, 0
121339223, 10079, 5738, -11547, 771, 3946, 1367, -1083, -304, 1080, -1571, 0, 0, 0, 0, 0, 0, 0, 0
121354202, 10264, 5901, -11308, 617, 3843, 1447, -1003, -358, 1223, -1725, 0, 0, 0, 0, 0, 0, 0, 0
121376763, 10446, 6088, -11047, 461, 3664, 1451, -916, -277, 1275, -1877, 0, 0, 0, 0, 0, 0, 0, 0
121384877, 10446, 6088, -11047, 461, 3664, 1451, -916, -277, 1275, -1877, 263, 302, 339, 77, 93, 43, 44, 129
121385656, 10446, 6088, -11047, 461, 3664, 1451, -916, -277, 1275, -1877, 263, 302, 339, 77, 93, 43, 44, 129
121391879, 10634, 6277, -10764, 288, 3540, 1658, -928, -350, 1363, -1983, 263, 302, 339, 77, 93, 43, 44, 129
121407352, 10634, 6277, -10764, 288, 3540, 1658, -928, -350, 1363, -1983, 283, 299, 336, 87, 86, 46, 137, 135
121408154, 10634, 6277, -10764, 288, 3540, 1658, -928, -350, 1363, -1983, 283, 299, 336, 87, 86, 46, 137, 135
121414298, 10839, 6446, -10459, 82, 3455, 1749, -855, -581, 1445, -2086, 283, 299, 336, 87, 86, 46, 137, 135
121429895, 10839, 6446, -10459, 82, 3455, 1749, -855, -581, 1445, -2086, 277, 282, 348, 79, 88, 50, 216, 139
121430688, 10839, 6446, -10459, 82, 3455, 1749, -855, -581, 1445, -2086, 277, 282, 348, 79, 88, 50, 216, 139
121436869, 11051, 6614, -10126, -128, 3267, 1554, -779, -626, 1570, -2187, 277, 282, 348, 79, 88, 50, 216, 139
121444871, 11051, 6614, -10126, -128, 3267, 1554, -779, -626, 1570, -2187, 262, 218, 267, 77, 87, 59, 250, 159
121445656, 11051, 6614, -10126, -128, 3267, 1554, -779, -626, 1570, -2187, 262, 218, 267, 77, 87, 59, 250, 159
121451794, 11246, 6788, -9786, -321, 2971, 1528, -902, -526, 1609, -2164, 262, 218, 267, 77, 87, 59, 250, 159
121467394, 11246, 6788, -9786, -321, 2971, 1528, -902, -526, 1609, -2164, 294, 154, 243, 78, 110, 71, 364, 198
121468186, 11246, 6788, -9786, -321, 2971, 1528, -902, -526, 1609, -2164, 294, 154, 243, 78, 110, 71, 364, 198
121474339, 11424, 6950, -9454, -498, 2860, 1584, -999, -498, 1572, -2051, 294, 154, 243, 78, 110, 71, 364, 198
121489867, 11424, 6950, -9454, -498, 2860, 1584, -999, -498, 1572, -2051, 260, 149, 205, 82, 132, 67, 472, 253
121490698, 11424, 6950, -9454, -498, 2860, 1584, -999, -498, 1572, -2051, 260, 149, 205, 82, 132, 67, 472, 253
121496865, 11602, 7077, -9125, -689, 2913, 1572, -898, -688, 1523, -2005, 260, 149, 205, 82, 132, 67, 472, 253
121504860, 11602, 7077, -9125, -689, 2913, 1572, -898, -688, 1523, -2005, 241, 128, 190, 95, 216, 69, 464, 259
121505643, 11602, 7077, -9125, -689, 2913, 1572, -898, -688, 1523, -2005, 241, 128, 190, 95, 216, 69, 464, 259
121511863, 11751, 7214, -8807, -860, 2807, 1515, -919, -511, 1448, -1951, 241, 128, 190, 95, 216, 69, 464, 259
121527367, 11751, 7214, -8807, -860, 2807, 1515, -919, -511, 1448, -1951, 252, 118, 159, 100, 235, 65, 441, 297
121528192, 11751, 7214, -8807, -860, 2807, 1515, -919, -511, 1448, -1951, 252, 118, 159, 100, 235, 65, 441, 297
121534343, 11872, 7328, -8529, -1019, 2679, 1440, -997, -509, 1236, -1752, 252, 118, 159, 100, 235, 65, 441, 297
121549867, 11872, 7328, -8529, -1019, 2679, 1440, -997, -509, 1236, -1752, 278, 118, 146, 114, 297, 70, 513, 310
121550682, 11872, 7328, -8529, -1019, 2679, 1440, -997, -509, 1236, -1752, 278, 118, 146, 114, 297, 70, 513, 310
121556875, 11932, 7403, -8369, -1104, 2734, 1483, -873, -564, 1077, -1485, 278, 118, 146, 114, 297, 70, 513, 310
121564858, 11932, 7403, -8369, -1104, 2734, 1483, -873, -564, 1077, -1485, 374, 112, 129, 123, 316, 59, 524, 307
121565707, 11932, 7403, -8369, -1104, 2734, 1483, -873, -564, 1077, -1485, 374, 112, 129, 123, 316, 59, 524, 307
121571855, 11962, 7483, -8246, -1160, 2782, 1467, -795, -342, 890, -1348, 374, 112, 129, 123, 316, 59, 524, 307
121587432, 11962, 7483, -8246, -1160, 2782, 1467, -795, -342, 890, -1348, 400, 91, 122, 121, 334, 61, 441, 302
121588199, 11962, 7483, -8246, -1160, 2782, 1467, -795, -342, 890, -1348, 400, 91, 122, 121, 334, 61, 441, 302
121594350, 11972, 7565, -8155, -1166, 2817, 1443, -766, -125, 831, -1119, 400, 91, 122, 121, 334, 61, 441, 302
121609876, 11972, 7565, -8155, -1166, 2817, 1443, -766, -125, 831, -1119, 413, 89, 120, 130, 405, 68, 444, 322
121610669, 11972, 7565, -8155, -1166, 2817, 1443, -766, -125, 831, -1119, 413, 89, 120, 130, 405, 68, 444, 322
121616861, 11966, 7654, -8081, -1167, 2685, 1596, -757, -37, 706, -983, 413, 89, 120, 130, 405, 68, 444, 322
121624870, 11966, 7654, -8081, -1167, 2685, 1596, -757, -37, 706, -983, 418, 103, 121, 150, 424, 68, 529, 306
121625681, 11966, 7654, -8081, -1167, 2685, 1596, -757, -37, 706, -983, 418, 103, 121, 150, 424, 68, 529, 306
121631875, 11944, 7723, -8047, -1168, 2578, 1682, -811, -88, 508, -771, 418, 103, 121, 150, 424, 68, 529, 306
121647366, 11944, 7723, -8047, -1168, 2578, 1682, -811, -88, 508, -771, 409, 100, 134, 142, 485, 63, 553, 284
121648162, 11944, 7723, -8047, -1168, 2578, 1682, -811, -88, 508, -771, 409, 100, 134, 142, 485, 63, 553, 284
121654342, 11922, 7742, -8064, -1157, 2709, 1583, -835, -238, 311, -541, 409, 100, 134, 142, 485, 63, 553, 284
121669864, 11922, 7742, -8064, -1157, 2709, 1583, -835, -238, 311, -541, 332, 90, 130, 132, 472, 63, 486, 269
121670755, 11922, 7742, -8064, -1157, 2709, 1583, -835, -238, 311, -541, 332, 90, 130, 132, 472, 63, 486, 269
121676868, 11900, 7744, -8099, -1122, 2708, 1558, -705, -178, 240, -352, 332, 90, 130, 132, 472, 63, 486, 269
121684860, 11900, 7744, -8099, -1122, 2708, 1558, -705, -178, 240, -352, 328, 97, 122, 142, 491, 81, 504, 238
121685670, 11900, 7744, -8099, -1122, 2708, 1558, -705, -178, 240, -352, 328, 97, 122, 142, 491, 81, 504, 238
121691863, 11869, 7760, -8136, -1074, 2681, 1646, -644, -29, 223, -279, 328, 97, 122, 142, 491, 81, 504, 238
121707337, 11869, 7760, -8136, -1074, 2681, 1646, -644, -29, 223, -279, 324, 98, 125, 208, 535, 157, 496, 193
121708163, 11869, 7760, -8136, -1074, 2681, 1646, -644, -29, 223, -279, 324, 98, 125, 208, 535, 157, 496, 193
121714314, 11826, 7796, -8169, -1023, 2547, 1658, -702, 73, 224, -276, 324, 98, 125, 208, 535, 157, 496, 193
121729876, 11826, 7796, -8169, -1023, 2547, 1658, -702, 73, 224, -276, 385, 89, 134, 218, 616, 184, 400, 162
121730657, 11826, 7796, -8169, -1023, 2547, 1658, -702, 73, 224, -276, 385, 89, 134, 218, 616, 184, 400, 162
121736874, 11798, 7783, -8226, -994, 2551, 1776, -770, -236, 108, -105, 385, 89, 134, 218, 616, 184, 400, 162
121744875, 11798, 7783, -8226, -994, 2551, 1776, -770, -236, 108, -105, 417, 173, 137, 251, 640, 214, 228, 191
121745653, 11798, 7783, -8226, -994, 2551, 1776, -770, -236, 108, -105, 417, 173, 137, 251, 640, 214, 228, 191
121751889, 11802, 7728, -8277, -948, 2636, 1679, -629, -392, 210, 25, 417, 173, 137, 251, 640, 214, 228, 191
121767341, 11802, 7728, -8277, -948, 2636, 1679, -629, -392, 210, 25, 610, 216, 170, 411, 864, 372, 219, 281
121768169, 11802, 7728, -8277, -948, 2636, 1679, -629, -392, 210, 25, 610, 216, 170, 411, 864, 372, 219, 281
121774316, 11808, 7668, -8329, -915, 2538, 1712, -518, -401, 133, 51, 610, 216, 170, 411, 864, 372, 219, 281
121789860, 11808, 7668, -8329, -915, 2538, 1712, -518, -401, 133, 51, 780, 256, 213, 540, 932, 477, 160, 404
121790665, 11808, 7668, -8329, -915, 2538, 1712, -518, -401, 133, 51, 780, 256, 213, 540, 932, 477, 160, 404
121796799, 11803, 7629, -8380, -829, 2505, 1337, -429, -88, 218, 102, 780, 256, 213, 540, 932, 477, 160, 404
121804890, 11803, 7629, -8380, -829, 2505, 1337, -429, -88, 218, 102, 868, 329, 247, 574, 1040, 547, 166, 488
121805665, 11803, 7629, -8380, -829, 2505, 1337, -429, -88, 218, 102, 868, 329, 247, 574, 1040, 547, 166, 488
121811865, 11745, 7695, -8412, -708, 2410, 1771, -494, 539, 271, 89, 868, 329, 247, 574, 1040, 547, 166, 488
121827346, 11745, 7695, -8412, -708, 2410, 1771, -494, 539, 271, 89, 967, 359, 274, 631, 1160, 640, 183, 542
121828136, 11745, 7695, -8412, -708, 2410, 1771, -494, 539, 271, 89, 967, 359, 274, 631, 1160, 640, 183, 542
121834293, 11726, 7709, -8435, -596, 2558, 2037, -473, 217, 377, 246, 967, 359, 274, 631, 1160, 640, 183, 542
121849856, 11726, 7709, -8435, -596, 2558, 2037, -473, 217, 377, 246, 1008, 382, 280, 704, 1364, 820, 209, 559
121850637, 11726, 7709, -8435, -596, 2558, 2037, -473, 217, 377, 246, 1008, 382, 280, 704, 1364, 820, 209, 559
121856883, 11757, 7656, -8448, -477, 2469, 1518, -217, -63, 466, 310, 1008, 382, 280, 704, 1364, 820, 209, 559
121864881, 11757, 7656, -8448, -477, 2469, 1518, -217, -63, 466, 310, 959, 379, 279, 636, 1325, 815, 220, 552
121865663, 11757, 7656, -8448, -477, 2469, 1518, -217, -63, 466, 310, 959, 379, 279, 636, 1325, 815, 220, 552
121871867, 11692, 7718, -8485, -408, 2355, 1435, -751, 316, 179, -153, 959, 379, 279, 636, 1325, 815, 220, 552
121887383, 11692, 7718, -8485, -408, 2355, 1435, -751, 316, 179, -153, 921, 399, 261, 620, 1348, 771, 325, 474
121888147, 11692, 7718, -8485, -408, 2355, 1435, -751, 316, 179, -153, 921, 399, 261, 620, 1348, 771, 325, 474
121894294, 11650, 7775, -8494, -326, 2586, 1885, -476, 380, 278, -72, 921, 399, 261, 620, 1348, 771, 325, 474
121909864, 11650, 7775, -8494, -326, 2586, 1885, -476, 380, 278, -72, 903, 362, 245, 689, 1298, 793, 402, 392
121910697, 11650, 7775, -8494, -326, 2586, 1885, -476, 380, 278, -72, 903, 362, 245, 689, 1298, 793, 402, 392
121916862, 11676, 7853, -8388, -239, 2727, 2476, 3660, 480, 737, -160, 903, 362, 245, 689, 1298, 793, 402, 392
121924869, 11676, 7853, -8388, -239, 2727, 2476, 3660, 480, 737, -160, 801, 342, 227, 777, 1299, 755, 443, 509
121925650, 11676, 7853, -8388, -239, 2727, 2476, 3660, 480, 737, -160, 801, 342, 227, 777, 1299, 755, 443, 509
121931789, 11802, 8015, -8055, 76, 1591, -1432, 1092, 1289, 2450, -379, 801, 342, 227, 777, 1299, 755, 443, 509
121947366, 11802, 8015, -8055, 76, 1591, -1432, 1092, 1289, 2450, -379, 793, 315, 296, 958, 1129, 601, 612, 735
121948187, 11802, 8015, -8055, 76, 1591, -1432, 1092, 1289, 2450, -379, 793, 315, 296, 958, 1129, 601, 612, 735
121954328, 11959, 7639, -8184, -253, 2830, 1991, -3611, -2862, -978, 58, 793, 315, 296, 958, 1129, 601, 612, 735
121969881, 11959, 7639, -8184, -253, 2830, 1991, -3611, -2862, -978, 58, 767, 330, 301, 1059, 1174, 592, 701, 744
121970690, 11959, 7639, -8184, -253, 2830, 1991, -3611, -2862, -978, 58, 767, 330, 301, 1059, 1174, 592, 701, 744
121976861, 11917, 7541, -8339, -82, 2840, -182, 745, 494, -513, 244, 767, 330, 301, 1059, 1174, 592, 701, 744
121984195, 11917, 7541, -8339, -82, 2840, -182, 745, 494, -513, 244, 670, 288, 298, 1025, 1139, 612, 672, 754
121992385, 11917, 7541, -8339, -82, 2840, -182, 745, 494, -513, 244, 670, 288, 298, 1025, 1139, 612, 672, 754
121993305, 11745, 7796, -8348, 94, 2349, 2386, -1255, 1855, 65, 34, 670, 288, 298, 1025, 1139, 612, 672, 754
122007374, 11745, 7796, -8348, 94, 2349, 2386, -1255, 1855, 65, 34, 632, 274, 296, 983, 1254, 572, 636, 759
122008193, 11745, 7796, -8348, 94, 2349, 2386, -1255, 1855, 65, 34, 632, 274, 296, 983, 1254, 572, 636, 759
122014339, 11694, 7848, -8371, -34, 2878, 3440, -914, -412, -175, -305, 632, 274, 296, 983, 1254, 572, 636, 759
122029857, 11694, 7848, -8371, -34, 2878, 3440, -914, -412, -175, -305, 674, 269, 286, 876, 1132, 542, 619, 657
122030668, 11694, 7848, -8371, -34, 2878, 3440, -914, -412, -175, -305, 674, 269, 286, 876, 1132, 542, 619, 657
122036868, 11728, 7734, -8429, -69, 2369, 1116, -244, -753, -98, -98, 674, 269, 286, 876, 1132, 542, 619, 657
122053017, 11728, 7734, -8429, -69, 2369, 1116, -244, -753, -98, -98, 600, 234, 206, 590, 1110, 483, 448, 358
122053860, 11728, 7734, -8429, -69, 2369, 1116, -244, -753, -98, -98, 600, 234, 206, 590, 1110, 483, 448, 358
122054810, 11657, 7799, -8468, -64, 2304, 1863, -691, 189, -51, -177, 600, 234, 206, 590, 1110, 483, 448, 358
122067336, 11657, 7799, -8468, -64, 2304, 1863, -691, 189, -51, -177, 547, 193, 188, 405, 1052, 426, 280, 282
122068163, 11657, 7799, -8468, -64, 2304, 1863, -691, 189, -51, -177, 547, 193, 188, 405, 1052, 426, 280, 282
122074315, 11600, 7845, -8504, -63, 2526, 2156, -702, 67, -11, -121, 547, 193, 188, 405, 1052, 426, 280, 282
122089862, 11600, 7845, -8504, -63, 2526, 2156, -702, 67, -11, -121, 530, 199, 174, 469, 1063, 388, 267, 237
122090648, 11600, 7845, -8504, -63, 2526, 2156, -702, 67, -11, -121, 530, 199, 174, 469, 1063, 388, 267, 237
122096872, 11557, 7864, -8545, -61, 2362, 1833, -703, -67, -3, -85, 530, 199, 174, 469, 1063, 388, 267, 237
122113048, 11557, 7864, -8545, -61, 2362, 1833, -703, -67, -3, -85, 488, 186, 159, 436, 857, 296, 255, 212
122113864, 11557, 7864, -8545, -61, 2362, 1833, -703, -67, -3, -85, 488, 186, 159, 436, 857, 296, 255, 212
122114885, 11505, 7889, -8592, -37, 2362, 1794, -684, 63, -12, -16, 488, 186, 159, 436, 857, 296, 255, 212
122127370, 11505, 7889, -8592, -37, 2362, 1794, -684, 63, -12, -16, 358, 180, 150, 453, 876, 293, 214, 173
122128198, 11505, 7889, -8592, -37, 2362, 1794, -684, 63, -12, -16, 358, 180, 150, 453, 876, 293, 214, 173
122134346, 11443, 7926, -8641, 4, 2385, 1867, -690, 198, -14, 54, 358, 180, 150, 453, 876, 293, 214, 173
122149865, 11443, 7926, -8641, 4, 2385, 1867, -690, 198, -14, 54, 364, 196, 140, 457, 818, 293, 204, 154
122150666, 11443, 7926, -8641, 4, 2385, 1867, -690, 198, -14, 54, 364, 196, 140, 457, 818, 293, 204, 154
122156863, 11395, 7944, -8687, 35, 2423, 1872, -661, 79, -9, 60, 364, 196, 140, 457, 818, 293, 204, 154
122173011, 11395, 7944, -8687, 35, 2423, 1872, -661, 79, -9, 60, 325, 178, 127, 436, 697, 260, 197, 141
122173860, 11395, 7944, -8687, 35, 2423, 1872, -661, 79, -9, 60, 325, 178, 127, 436, 697, 260, 197, 141
122174770, 11354, 7953, -8733, 67, 2380, 1806, -628, 45, -7, 80, 325, 178, 127, 436, 697, 260, 197, 141
122187339, 11354, 7953, -8733, 67, 2380, 1806, -628, 45, -7, 80, 282, 142, 119, 371, 624, 235, 158, 128
122188187, 11354, 7953, -8733, 67, 2380, 1806, -628, 45, -7, 80, 282, 142, 119, 371, 624, 235, 158, 128
122194321, 11312, 7961, -8779, 96, 2340, 1746, -617, 48, -34, 72, 282, 142, 119, 371, 624, 235, 158, 128
122209877, 11312, 7961, -8779, 96, 2340, 1746, -617, 48, -34, 72, 217, 137, 116, 387, 606, 218, 131, 120
122210652, 11312, 7961, -8779, 96, 2340, 1746, -617, 48, -34, 72, 217, 137, 116, 387, 606, 218, 131, 120
122216868, 11261, 7971, -8835, 125, 2338, 1730, -644, 81, -94, 98, 217, 137, 116, 387, 606, 218, 131, 120
122233044, 11261, 7971, -8835, 125, 2338, 1730, -644, 81, -94, 98, 203, 136, 142, 390, 562, 169, 120, 101
122233866, 11261, 7971, -8835, 125, 2338, 1730, -644, 81, -94, 98, 203, 136, 142, 390, 562, 169, 120, 101
122234868, 11197, 7989, -8900, 151, 2361, 1747, -649, 143, -188, 92, 203, 136, 142, 390, 562, 169, 120, 101
122247318, 11197, 7989, -8900, 151, 2361, 1747, -649, 143, -188, 92, 192, 94, 146, 385, 506, 155, 102, 101
122248140, 11197, 7989, -8900, 151, 2361, 1747, -649, 143, -188, 92, 192, 94, 146, 385, 506, 155, 102, 101
122254349, 11141, 7996, -8964, 163, 2391, 1893, -646, 58, -213, 127, 192, 94, 146, 385, 506, 155, 102, 101
122269863, 11141, 7996, -8964, 163, 2391, 1893, -646, 58, -213, 127, 178, 93, 146, 368, 491, 139, 86, 102
122270695, 11141, 7996, -8964, 163, 2391, 1893, -646, 58, -213, 127, 178, 93, 146, 368, 491, 139, 86, 102
122276864, 11084, 7992, -9037, 174, 2432, 1798, -637, 28, -265, 134, 178, 93, 146, 368, 491, 139, 86, 102
122293010, 11084, 7992, -9037, 174, 2432, 1798, -637, 28, -265, 134, 164, 88, 143, 315, 495, 136, 65, 108
122293858, 11084, 7992, -9037, 174, 2432, 1798, -637, 28, -265, 134, 164, 88, 143, 315, 495, 136, 65, 108
122294774, 11021, 8002, -9105, 197, 2361, 1804, -638, 139, -247, 163, 164, 88, 143, 315, 495, 136, 65, 108