Timestamp, Orientation x, Orientation y, Orientation z, Orientation w, Acceleration x, Acceleration y, Acceleration z, Rotation x, Rotation y, Rotation z, EMG 0, EMG 1, EMG 2, EMG 3, EMG 4, EMG 5, EMG 6, EMG 7
44495942, 8894, 5944, -12224, 2137, 4019, 904, -1698, -105, 0, -69, 0, 0, 0, 0, 0, 0, 0, 0
44496713, 8920, 5945, -12215, 2080, 4058, 973, -1696, -273, 20, -189, 0, 0, 0, 0, 0, 0, 0, 0
44497555, 8987, 5927, -12191, 1980, 4169, 942, -1796, -616, 209, -358, 0, 0, 0, 0, 0, 0, 0, 0
44509492, 9072, 5907, -12157, 1858, 4119, 848, -1796, -780, 307, -520, 0, 0, 0, 0, 0, 0, 0, 0
44532017, 9181, 5894, -12100, 1729, 4191, 793, -1710, -843, 415, -713, 0, 0, 0, 0, 0, 0, 0, 0
44555817, 9328, 5890, -12008, 1587, 4199, 835, -1523, -916, 602, -909, 0, 0, 0, 0, 0, 0, 0, 0
44556637, 9328, 5890, -12008, 1587, 4199, 835, -1523, -916, 602, -909, 58, 105, 111, 44, 31, 33, 35, 182
44557435, 9328, 5890, -12008, 1587, 4199, 835, -1523, -916, 602, -909, 58, 105, 111, 44, 31, 33, 35, 182
44570811, 9477, 5927, -11888, 1471, 4160, 918, -1414, -662, 720, -1051, 58, 105, 111, 44, 31, 33, 35, 182
44571600, 9477, 5927, -11888, 1471, 4160, 918, -1414, -662, 720, -1051, 73, 111, 181, 51, 34, 34, 36, 234
44572432, 9477, 5927, -11888, 1471, 4160, 918, -1414, -662, 720, -1051, 73, 111, 181, 51, 34, 34, 36, 234
44593330, 9627, 5999, -11746, 1340, 4212, 1121, -1411, -594, 781, -1253, 73, 111, 181, 51, 34, 34, 36, 234
44594155, 9627, 5999, -11746, 1340, 4212, 1121, -1411, -594, 781, -1253, 80, 151, 350, 64, 39, 47, 36, 241
44594954, 9627, 5999, -11746, 1340, 4212, 1121, -1411, -594, 781, -1253, 80, 151, 350, 64, 39, 47, 36, 241
44615807, 9820, 6078, -11562, 1169, 4236, 1312, -1217, -776, 962, -1507, 80, 151, 350, 64, 39, 47, 36, 241
44616607, 9820, 6078, -11562, 1169, 4236, 1312, -1217, -776, 962, -1507, 94, 183, 535, 58, 39, 140, 32, 228
44617428, 9820, 6078, -11562, 1169, 4236, 1312, -1217, -776, 962, -1507, 94, 183, 535, 58, 39, 140, 32, 228
44629488, 10083, 6162, -11311, 925, 4200, 1488, -1068, -1137, 1334, -1812, 94, 183, 535, 58, 39, 140, 32, 228
44637628, 10083, 6162, -11311, 925, 4200, 1488, -1068, -1137, 1334, -1812, 101, 183, 563, 61, 38, 143, 33, 209
44638444, 10083, 6162, -11311, 925, 4200, 1488, -1068, -1137, 1334, -1812, 101, 183, 563, 61, 38, 143, 33, 209
44653340, 10374, 6271, -11002, 662, 4054, 1548, -972, -1173, 1608, -2123, 101, 183, 563, 61, 38, 143, 33, 209
44654179, 10374, 6271, -11002, 662, 4054, 1548, -972, -1173, 1608, -2123, 107, 192, 613, 64, 39, 149, 58, 207
44654976, 10374, 6271, -11002, 662, 4054, 1548, -972, -1173, 1608, -2123, 107, 192, 613, 64, 39, 149, 58, 207
44675815, 10683, 6369, -10658, 363, 3860, 1498, -990, -1398, 1756, -2314, 107, 192, 613, 64, 39, 149, 58, 207
44676627, 10683, 6369, -10658, 363, 3860, 1498, -990, -1398, 1756, -2314, 115, 190, 602, 63, 39, 157, 64, 138
44677450, 10683, 6369, -10658, 363, 3860, 1498, -990, -1398, 1756, -2314, 115, 190, 602, 63, 39, 157, 64, 138
44689515, 10983, 6464, -10297, 74, 3585, 1365, -857, -1356, 1820, -2320, 115, 190, 602, 63, 39, 157, 64, 138
44697579, 10983, 6464, -10297, 74, 3585, 1365, -857, -1356, 1820, -2320, 140, 152, 533, 49, 35, 159, 80, 117
44698404, 10983, 6464, -10297, 74, 3585, 1365, -857, -1356, 1820, -2320, 140, 152, 533, 49, 35, 159, 80, 117
44713304, 11254, 6593, -9914, -163, 3402, 1289, -776, -988, 1922, -2314, 140, 152, 533, 49, 35, 159, 80, 117
44714100, 11254, 6593, -9914, -163, 3402, 1289, -776, -988, 1922, -2314, 147, 110, 349, 51, 34, 106, 92, 106
44714929, 11254, 6593, -9914, -163, 3402, 1289, -776, -988, 1922, -2314, 147, 110, 349, 51, 34, 106, 92, 106
44735829, 11493, 6755, -9517, -357, 3240, 1435, -830, -660, 1995, -2288, 147, 110, 349, 51, 34, 106, 92, 106
44736636, 11493, 6755, -9517, -357, 3240, 1435, -830, -660, 1995, -2288, 151, 93, 304, 48, 33, 116, 94, 109
44737450, 11493, 6755, -9517, -357, 3240, 1435, -830, -660, 1995, -2288, 151, 93, 304, 48, 33, 116, 94, 109
44749505, 11715, 6917, -9113, -556, 3058, 1557, -901, -657, 1974, -2315, 151, 93, 304, 48, 33, 116, 94, 109
44757604, 11715, 6917, -9113, -556, 3058, 1557, -901, -657, 1974, -2315, 164, 64, 186, 48, 33, 117, 86, 117
44758399, 11715, 6917, -9113, -556, 3058, 1557, -901, -657, 1974, -2315, 164, 64, 186, 48, 33, 117, 86, 117
44773304, 11905, 7073, -8725, -741, 2839, 1518, -1000, -578, 1856, -2218, 164, 64, 186, 48, 33, 117, 86, 117
44774124, 11905, 7073, -8725, -741, 2839, 1518, -1000, -578, 1856, -2218, 189, 58, 172, 44, 37, 109, 106, 137
44774927, 11905, 7073, -8725, -741, 2839, 1518, -1000, -578, 1856, -2218, 189, 58, 172, 44, 37, 109, 106, 137
44795832, 12071, 7193, -8374, -922, 2742, 1456, -975, -652, 1645, -2020, 189, 58, 172, 44, 37, 109, 106, 137
44796653, 12071, 7193, -8374, -922, 2742, 1456, -975, -652, 1645, -2020, 212, 60, 138, 44, 37, 109, 102, 167
44797481, 12071, 7193, -8374, -922, 2742, 1456, -975, -652, 1645, -2020, 212, 60, 138, 44, 37, 109, 102, 167
44809508, 12205, 7303, -8061, -1066, 2787, 1363, -919, -503, 1484, -1785, 212, 60, 138, 44, 37, 109, 102, 167
44817604, 12205, 7303, -8061, -1066, 2787, 1363, -919, -503, 1484, -1785, 210, 63, 130, 47, 39, 101, 129, 201
44818427, 12205, 7303, -8061, -1066, 2787, 1363, -919, -503, 1484, -1785, 210, 63, 130, 47, 39, 101, 129, 201
44833341, 12248, 7421, -7880, -1111, 2745, 1397, -917, -280, 1340, -1566, 210, 63, 130, 47, 39, 101, 129, 201
44834132, 12248, 7421, -7880, -1111, 2745, 1397, -917, -280, 1340, -1566, 233, 60, 116, 44, 42, 102, 142, 215
44834952, 12248, 7421, -7880, -1111, 2745, 1397, -917, -280, 1340, -1566, 233, 60, 116, 44, 42, 102, 142, 215
44855798, 12271, 7525, -7745, -1118, 2792, 1441, -903, -176, 1180, -1290, 233, 60, 116, 44, 42, 102, 142, 215
44856613, 12271, 7525, -7745, -1118, 2792, 1441, -903, -176, 1180, -1290, 255, 56, 93, 45, 43, 114, 162, 241
44857437, 12271, 7525, -7745, -1118, 2792, 1441, -903, -176, 1180, -1290, 255, 56, 93, 45, 43, 114, 162, 241
44869457, 12286, 7598, -7649, -1109, 2787, 1458, -836, -207, 1002, -1053, 255, 56, 93, 45, 43, 114, 162, 241
44877636, 12286, 7598, -7649, -1109, 2787, 1458, -836, -207, 1002, -1053, 263, 56, 80, 45, 41, 138, 181, 265
44878430, 12286, 7598, -7649, -1109, 2787, 1458, -836, -207, 1002, -1053, 263, 56, 80, 45, 41, 138, 181, 265
44893340, 12290, 7658, -7586, -1096, 2793, 1463, -711, -159, 789, -926, 263, 56, 80, 45, 41, 138, 181, 265
44894151, 12290, 7658, -7586, -1096, 2793, 1463, -711, -159, 789, -926, 234, 49, 61, 44, 40, 133, 184, 256
44894965, 12290, 7658, -7586, -1096, 2793, 1463, -711, -159, 789, -926, 234, 49, 61, 44, 40, 133, 184, 256
44915811, 12274, 7716, -7556, -1065, 2736, 1470, -682, -45, 626, -753, 234, 49, 61, 44, 40, 133, 184, 256
44916606, 12274, 7716, -7556, -1065, 2736, 1470, -682, -45, 626, -753, 231, 43, 52, 43, 54, 128, 178, 255
44917433, 12274, 7716, -7556, -1065, 2736, 1470, -682, -45, 626, -753, 231, 43, 52, 43, 54, 128, 178, 255
44929485, 12246, 7762, -7561, -1027, 2717, 1512, -733, -53, 472, -585, 231, 43, 52, 43, 54, 128, 178, 255
44937632, 12246, 7762, -7561, -1027, 2717, 1512, -733, -53, 472, -585, 237, 46, 46, 48, 53, 116, 180, 267
44938456, 12246, 7762, -7561, -1027, 2717, 1512, -733, -53, 472, -585, 237, 46, 46, 48, 53, 116, 180, 267
44953354, 12215, 7789, -7588, -988, 2757, 1518, -653, -68, 332, -484, 237, 46, 46, 48, 53, 116, 180, 267
44954150, 12215, 7789, -7588, -988, 2757, 1518, -653, -68, 332, -484, 217, 50, 44, 54, 67, 97, 200, 316
44954978, 12215, 7789, -7588, -988, 2757, 1518, -653, -68, 332, -484, 217, 50, 44, 54, 67, 97, 200, 316
44975803, 12205, 7786, -7613, -936, 2877, 1565, -596, -202, 407, -373, 217, 50, 44, 54, 67, 97, 200, 316
44976630, 12205, 7786, -7613, -936, 2877, 1565, -596, -202, 407, -373, 216, 54, 61, 86, 79, 57, 192, 293
44977451, 12205, 7786, -7613, -936, 2877, 1565, -596, -202, 407, -373, 216, 54, 61, 86, 79, 57, 192, 293
44989577, 12209, 7809, -7597, -820, 2636, 1356, -385, 129, 701, -237, 216, 54, 61, 86, 79, 57, 192, 293
44997581, 12209, 7809, -7597, -820, 2636, 1356, -385, 129, 701, -237, 261, 91, 95, 156, 151, 69, 190, 299
44998405, 12209, 7809, -7597, -820, 2636, 1356, -385, 129, 701, -237, 261, 91, 95, 156, 151, 69, 190, 299
45013309, 12146, 7925, -7591, -685, 2371, 1650, -654, 629, 622, -170, 261, 91, 95, 156, 151, 69, 190, 299
45014099, 12146, 7925, -7591, -685, 2371, 1650, -654, 629, 622, -170, 283, 94, 104, 187, 251, 71, 205, 280
45014930, 12146, 7925, -7591, -685, 2371, 1650, -654, 629, 622, -170, 283, 94, 104, 187, 251, 71, 205, 280
45035848, 12031, 8120, -7575, -595, 2208, 1821, -663, 990, 399, -485, 283, 94, 104, 187, 251, 71, 205, 280
45036648, 12031, 8120, -7575, -595, 2208, 1821, -663, 990, 399, -485, 280, 95, 104, 224, 329, 122, 208, 261
45037480, 12031, 8120, -7575, -595, 2208, 1821, -663, 990, 399, -485, 280, 95, 104, 224, 329, 122, 208, 261
45049521, 11973, 8060, -7728, -616, 2614, 1725, -1095, -636, -353, 9, 280, 95, 104, 224, 329, 122, 208, 261
45057619, 11973, 8060, -7728, -616, 2614, 1725, -1095, -636, -353, 9, 293, 100, 110, 229, 343, 266, 173, 360
45058438, 11973, 8060, -7728, -616, 2614, 1725, -1095, -636, -353, 9, 293, 100, 110, 229, 343, 266, 173, 360
45073300, 11970, 7974, -7827, -555, 2775, 1327, -79, -245, -130, 88, 293, 100, 110, 229, 343, 266, 173, 360
45074131, 11970, 7974, -7827, -555, 2775, 1327, -79, -245, -130, 88, 318, 99, 103, 223, 348, 329, 155, 384
45074967, 11970, 7974, -7827, -555, 2775, 1327, -79, -245, -130, 88, 318, 99, 103, 223, 348, 329, 155, 384
45095873, 11892, 8030, -7893, -464, 2605, 1739, -488, 443, 44, -34, 318, 99, 103, 223, 348, 329, 155, 384
45096649, 11892, 8030, -7893, -464, 2605, 1739, -488, 443, 44, -34, 354, 77, 78, 189, 336, 387, 153, 387
45097471, 11892, 8030, -7893, -464, 2605, 1739, -488, 443, 44, -34, 354, 77, 78, 189, 336, 387, 153, 387
45109511, 11807, 8089, -7966, -366, 2634, 1571, -376, 559, -39, -53, 354, 77, 78, 189, 336, 387, 153, 387
45117602, 11807, 8089, -7966, -366, 2634, 1571, -376, 559, -39, -53, 375, 91, 73, 186, 280, 436, 110, 407
45118428, 11807, 8089, -7966, -366, 2634, 1571, -376, 559, -39, -53, 375, 91, 73, 186, 280, 436, 110, 407
45133334, 11717, 8160, -8030, -270, 2544, 1854, -534, 565, 7, 35, 375, 91, 73, 186, 280, 436, 110, 407
45134125, 11717, 8160, -8030, -270, 2544, 1854, -534, 565, 7, 35, 446, 96, 73, 185, 215, 478, 83, 411
45134959, 11717, 8160, -8030, -270, 2544, 1854, -534, 565, 7, 35, 446, 96, 73, 185, 215, 478, 83, 411
45155816, 11641, 8195, -8106, -229, 2513, 1898, -729, 166, -103, -16, 446, 96, 73, 185, 215, 478, 83, 411
45156599, 11641, 8195, -8106, -229, 2513, 1898, -729, 166, -103, -16, 460, 100, 67, 179, 192, 421, 77, 285
45157429, 11641, 8195, -8106, -229, 2513, 1898, -729, 166, -103, -16, 460, 100, 67, 179, 192, 421, 77, 285
45169453, 11589, 8174, -8200, -269, 2429, 1792, -802, -364, -322, -132, 460, 100, 67, 179, 192, 421, 77, 285
45177630, 11589, 8174, -8200, -269, 2429, 1792, -802, -364, -322, -132, 432, 100, 66, 178, 180, 376, 72, 242
45178452, 11589, 8174, -8200, -269, 2429, 1792, -802, -364, -322, -132, 432, 100, 66, 178, 180, 376, 72, 242
45193333, 11611, 8077, -8261, -350, 2492, 1835, -437, -849, -240, -172, 432, 100, 66, 178, 180, 376, 72, 242
45194149, 11611, 8077, -8261, -350, 2492, 1835, -437, -849, -240, -172, 381, 94, 62, 178, 156, 321, 68, 222
45194949, 11611, 8077, -8261, -350, 2492, 1835, -437, -849, -240, -172, 381, 94, 62, 178, 156, 321, 68, 222
45215831, 11604, 8044, -8303, -355, 2543, 1573, -381, -278, -53, -214, 381, 94, 62, 178, 156, 321, 68, 222
45216608, 11604, 8044, -8303, -355, 2543, 1573, -381, -278, -53, -214, 348, 79, 60, 154, 132, 253, 66, 175
45217429, 11604, 8044, -8303, -355, 2543, 1573, -381, -278, -53, -214, 348, 79, 60, 154, 132, 253, 66, 175
45229479, 11557, 8063, -8353, -303, 2485, 1641, -616, 119, 51, -63, 348, 79, 60, 154, 132, 253, 66, 175
45237631, 11557, 8063, -8353, -303, 2485, 1641, -616, 119, 51, -63, 254, 70, 54, 94, 67, 129, 61, 155
45238451, 11557, 8063, -8353, -303, 2485, 1641, -616, 119, 51, -63, 254, 70, 54, 94, 67, 129, 61, 155
45253292, 11505, 8079, -8410, -261, 2553, 1761, -624, 102, -30, -45, 254, 70, 54, 94, 67, 129, 61, 155
45254109, 11505, 8079, -8410, -261, 2553, 1761, -624, 102, -30, -45, 208, 54, 49, 89, 55, 112, 63, 98
45254931, 11505, 8079, -8410, -261, 2553, 1761, -624, 102, -30, -45, 208, 54, 49, 89, 55, 112, 63, 98
45275839, 11483, 8069, -8451, -242, 2506, 1843, -612, -148, 42, -45, 208, 54, 49, 89, 55, 112, 63, 98
45276628, 11483, 8069, -8451, -242, 2506, 1843, -612, -148, 42, -45, 216, 66, 56, 82, 46, 104, 56, 90
45277456, 11483, 8069, -8451, -242, 2506, 1843, -612, -148, 42, -45, 216, 66, 56, 82, 46, 104, 56, 90
45289499, 11474, 8044, -8486, -216, 2505, 1670, -564, -198, 106, -47, 216, 66, 56, 82, 46, 104, 56, 90
45297615, 11474, 8044, -8486, -216, 2505, 1670, -564, -198, 106, -47, 239, 74, 66, 81, 53, 82, 55, 115
45298406, 11474, 8044, -8486, -216, 2505, 1670, -564, -198, 106, -47, 239, 74, 66, 81, 53, 82, 55, 115
45313310, 11485, 8011, -8504, -155, 2420, 1624, -529, -173, 310, 101, 239, 74, 66, 81, 53, 82, 55, 115
45314106, 11485, 8011, -8504, -155, 2420, 1624, -529, -173, 310, 101, 248, 80, 88, 120, 123, 81, 74, 277
45314930, 11485, 8011, -8504, -155, 2420, 1624, -529, -173, 310, 101, 248, 80, 88, 120, 123, 81, 74, 277
45335830, 11464, 8019, -8526, -39, 2468, 1646, -673, 189, 412, 207, 248, 80, 88, 120, 123, 81, 74, 277
45336654, 11464, 8019, -8526, -39, 2468, 1646, -673, 189, 412, 207, 244, 94, 115, 196, 205, 114, 89, 306
45337455, 11464, 8019, -8526, -39, 2468, 1646, -673, 189, 412, 207, 244, 94, 115, 196, 205, 114, 89, 306
45349508, 11378, 8134, -8533, -19, 2184, 1948, -785, 478, 50, -291, 244, 94, 115, 196, 205, 114, 89, 306
45357602, 11378, 8134, -8533, -19, 2184, 1948, -785, 478, 50, -291, 258, 103, 117, 250, 281, 240, 134, 311
45358426, 11378, 8134, -8533, -19, 2184, 1948, -785, 478, 50, -291, 258, 103, 117, 250, 281, 240, 134, 311
45373308, 11288, 8115, -8669, -1, 2612, 1418, -969, -95, -418, 78, 258, 103, 117, 250, 281, 240, 134, 311
45374132, 11288, 8115, -8669, -1, 2612, 1418, -969, -95, -418, 78, 274, 107, 130, 256, 298, 301, 162, 323
45374950, 11288, 8115, -8669, -1, 2612, 1418, -969, -95, -418, 78, 274, 107, 130, 256, 298, 301, 162, 323
45395855, 11257, 8112, -8712, 92, 2707, 1620, -190, 325, -7, 136, 274, 107, 130, 256, 298, 301, 162, 323
45396652, 11257, 8112, -8712, 92, 2707, 1620, -190, 325, -7, 136, 271, 112, 132, 259, 309, 332, 168, 318
45397474, 11257, 8112, -8712, 92, 2707, 1620, -190, 325, -7, 136, 271, 112, 132, 259, 309, 332, 168, 318
45409455, 11202, 8179, -8720, 156, 2684, 2136, -460, 508, 75, -56, 271, 112, 132, 259, 309, 332, 168, 318
45417600, 11202, 8179, -8720, 156, 2684, 2136, -460, 508, 75, -56, 293, 108, 119, 262, 321, 548, 163, 196
45418424, 11202, 8179, -8720, 156, 2684, 2136, -460, 508, 75, -56, 293, 108, 119, 262, 321, 548, 163, 196
45433331, 11152, 8215, -8748, 219, 2400, 1697, -496, 347, 26, 22, 293, 108, 119, 262, 321, 548, 163, 196
45434124, 11152, 8215, -8748, 219, 2400, 1697, -496, 347, 26, 22, 305, 103, 104, 339, 321, 640, 159, 169
45434955, 11152, 8215, -8748, 219, 2400, 1697, -496, 347, 26, 22, 305, 103, 104, 339, 321, 640, 159, 169
45454480, 11119, 8215, -8787, 300, 2478, 1757, -457, 237, 59, 236, 305, 103, 104, 339, 321, 640, 159, 169
45462625, 11119, 8215, -8787, 300, 2478, 1757, -457, 237, 59, 236, 319, 108, 109, 321, 297, 725, 124, 161
45463475, 11119, 8215, -8787, 300, 2478, 1757, -457, 237, 59, 236, 319, 108, 109, 321, 297, 725, 124, 161
45469614, 11055, 8246, -8835, 370, 2490, 1868, -740, 324, 6, 188, 319, 108, 109, 321, 297, 725, 124, 161
45477593, 11055, 8246, -8835, 370, 2490, 1868, -740, 324, 6, 188, 347, 103, 95, 322, 286, 736, 84, 138
45478408, 11055, 8246, -8835, 370, 2490, 1868, -740, 324, 6, 188, 347, 103, 95, 322, 286, 736, 84, 138
45491987, 11006, 8245, -8899, 348, 2500, 2011, -947, -177, -188, 34, 347, 103, 95, 322, 286, 736, 84, 138
45500130, 11006, 8245, -8899, 348, 2500, 2011, -947, -177, -188, 34, 330, 100, 93, 320, 279, 728, 68, 216
45500949, 11006, 8245, -8899, 348, 2500, 2011, -947, -177, -188, 34, 330, 100, 93, 320, 279, 728, 68, 216
45514457, 11067, 8120, -8942, 236, 2586, 1921, -456, -1065, -212, -66, 330, 100, 93, 320, 279, 728, 68, 216
45522620, 11067, 8120, -8942, 236, 2586, 1921, -456, -1065, -212, -66, 300, 104, 95, 306, 244, 587, 63, 253
45523454, 11067, 8120, -8942, 236, 2586, 1921, -456, -1065, -212, -66, 300, 104, 95, 306, 244, 587, 63, 253
45529598, 11104, 8052, -8958, 216, 2511, 1475, -348, -477, 29, -120, 300, 104, 95, 306, 244, 587, 63, 253
45537575, 11104, 8052, -8958, 216, 2511, 1475, -348, -477, 29, -120, 274, 99, 86, 157, 183, 487, 57, 249
45538403, 11104, 8052, -8958, 216, 2511, 1475, -348, -477, 29, -120, 274, 99, 86, 157, 183, 487, 57, 249
45551985, 11065, 8064, -8993, 303, 2508, 1327, -511, 294, 86, 56, 274, 99, 86, 157, 183, 487, 57, 249
45560132, 11065, 8064, -8993, 303, 2508, 1327, -511, 294, 86, 56, 249, 85, 76, 112, 111, 275, 54, 250
45560955, 11065, 8064, -8993, 303, 2508, 1327, -511, 294, 86, 56, 249, 85, 76, 112, 111, 275, 54, 250
45574458, 11014, 8104, -9017, 359, 2595, 1911, -665, 325, 47, 41, 249, 85, 76, 112, 111, 275, 54, 250
45582634, 11014, 8104, -9017, 359, 2595, 1911, -665, 325, 47, 41, 163, 75, 69, 94, 98, 169, 54, 257
45583432, 11014, 8104, -9017, 359, 2595, 1911, -665, 325, 47, 41, 163, 75, 69, 94, 98, 169, 54, 257
45589589, 11009, 8095, -9031, 370, 2624, 1953, -632, -110, 89, 5, 163, 75, 69, 94, 98, 169, 54, 257
45597630, 11009, 8095, -9031, 370, 2624, 1953, -632, -110, 89, 5, 176, 69, 60, 83, 77, 153, 56, 191
45598456, 11009, 8095, -9031, 370, 2624, 1953, -632, -110, 89, 5, 176, 69, 60, 83, 77, 153, 56, 191
45611961, 11027, 8057, -9042, 378, 2489, 1728, -555, -277, 148, 32, 176, 69, 60, 83, 77, 153, 56, 191
45620132, 11027, 8057, -9042, 378, 2489, 1728, -555, -277, 148, 32, 167, 59, 50, 68, 66, 151, 49, 135
45620933, 11027, 8057, -9042, 378, 2489, 1728, -555, -277, 148, 32, 167, 59, 50, 68, 66, 151, 49, 135
45637203, 11039, 8033, -9049, 404, 2434, 1659, -512, -138, 181, 40, 167, 59, 50, 68, 66, 151, 49, 135
45638033, 11464, 8019, -8526, -39, 2468, 1646, -673, 189, 412, 207, 167, 59, 50, 68, 66, 151, 49, 135
45638834, 11464, 8019, -8526, -39, 2468, 1646, -673, 189, 412, 207, 244, 94, 115, 196, 205, 114, 89, 306
45639651, 11464, 8019, -8526, -39, 2468, 1646, -673, 189, 412, 207, 244, 94, 115, 196, 205, 114, 89, 306
45644734, 11378, 8134, -8533, -19, 2184, 1948, -785, 478, 50, -291, 244, 94, 115, 196, 205, 114, 89, 306
45645549, 11378, 8134, -8533, -19, 2184, 1948, -785, 478, 50, -291, 258, 103, 117, 250, 281, 240, 134, 311
45646351, 11378, 8134, -8533, -19, 2184, 1948, -785, 478, 50, -291, 258, 103, 117, 250, 281, 240, 134, 311
45647176, 11378, 8134, -8533, -19, 2184, 1948, -785, 478, 50, -291, 258, 103, 117, 250, 281, 240, 134, 311
45652130, 11378, 8134, -8533, -19, 2184, 1948, -785, 478, 50, -291, 258, 103, 117, 250, 281, 240, 134, 311
45652931, 11378, 8134, -8533, -19, 2184, 1948, -785, 478, 50, -291, 258, 103, 117, 250, 281, 240, 134, 311
45653757, 11378, 8134, -8533, -19, 2184, 1948, -785, 478, 50, -291, 258, 103, 117, 250, 281, 240, 134, 311
45654574, 11378, 8134, -8533, -19, 2184, 1948, -785, 478, 50, -291, 258, 103, 117, 250, 281, 240, 134, 311
45659626, 11378, 8134, -8533, -19, 2184, 1948, -785, 478, 50, -291, 258, 103, 117, 250, 281, 240, 134, 311
45660569, 11288, 8115, -8669, -1, 2612, 1418, -969, -95, -418, 78, 258, 103, 117, 250, 281, 240, 134, 311
45661395, 11288, 8115, -8669, -1, 2612, 1418, -969, -95, -418, 78, 274, 107, 130, 256, 298, 301, 162, 323
45662201, 11288, 8115, -8669, -1, 2612, 1418, -969, -95, -418, 78, 274, 107, 130, 256, 298, 301, 162, 323
45667202, 11288, 8115, -8669, -1, 2612, 1418, -969, -95, -418, 78, 274, 107, 130, 256, 298, 301, 162, 323
45668024, 11288, 8115, -8669, -1, 2612, 1418, -969, -95, -418, 78, 274, 107, 130, 256, 298, 301, 162, 323
45668830, 11288, 8115, -8669, -1, 2612, 1418, -969, -95, -418, 78, 274, 107, 130, 256, 298, 301, 162, 323
45669651, 11288, 8115, -8669, -1, 2612, 1418, -969, -95, -418, 78, 274, 107, 130, 256, 298, 301, 162, 323
45674606, 11288, 8115, -8669, -1, 2612, 1418, -969, -95, -418, 78, 274, 107, 130, 256, 298, 301, 162, 323
45675403, 11288, 8115, -8669, -1, 2612, 1418, -969, -95, -418, 78, 274, 107, 130, 256, 298, 301, 162, 323
45676229, 11288, 8115, -8669, -1, 2612, 1418, -969, -95, -418, 78, 274, 107, 130, 256, 298, 301, 162, 323
45677058, 11288, 8115, -8669, -1, 2612, 1418, -969, -95, -418, 78, 274, 107, 130, 256, 298, 301, 162, 323
45682117, 11288, 8115, -8669, -1, 2612, 1418, -969, -95, -418, 78, 274, 107, 130, 256, 298, 301, 162, 323
45683047, 11257, 8112, -8712, 92, 2707, 1620, -190, 325, -7, 136, 274, 107, 130, 256, 298, 301, 162, 323
45683916, 11257, 8112, -8712, 92, 2707, 1620, -190, 325, -7, 136, 271, 112, 132, 259, 309, 332, 168, 318
45684640, 11257, 8112, -8712, 92, 2707, 1620, -190, 325, -7, 136, 271, 112, 132, 259, 309, 332, 168, 318
45689694, 11257, 8112, -8712, 92, 2707, 1620, -190, 325, -7, 136, 271, 112, 132, 259, 309, 332, 168, 318
45690514, 11257, 8112, -8712, 92, 2707, 1620, -190, 325, -7, 136, 271, 112, 132, 259, 309, 332, 168, 318
45691309, 11257, 8112, -8712, 92, 2707, 1620, -190, 325, -7, 136, 271, 112, 132, 259, 309, 332, 168, 318
45692135, 11257, 8112, -8712, 92, 2707, 1620, -190, 325, -7, 136, 271, 112, 132, 259, 309, 332, 168, 318
45697071, 11257, 8112, -8712, 92, 2707, 1620, -190, 325, -7, 136, 271, 112, 132, 259, 309, 332, 168, 318
45697934, 11257, 8112, -8712, 92, 2707, 1620, -190, 325, -7, 136, 271, 112, 132, 259, 309, 332, 168, 318
45698721, 11257, 8112, -8712, 92, 2707, 1620, -190, 325, -7, 136, 271, 112, 132, 259, 309, 332, 168, 318
45699532, 11257, 8112, -8712, 92, 2707, 1620, -190, 325, -7, 136, 271, 112, 132, 259, 309, 332, 168, 318
45704652, 11257, 8112, -8712, 92, 2707, 1620, -190, 325, -7, 136, 271, 112, 132, 259, 309, 332, 168, 318
45705819, 11202, 8179, -8720, 156, 2684, 2136, -460, 508, 75, -56, 271, 112, 132, 259, 309, 332, 168, 318
45706414, 11202, 8179, -8720, 156, 2684, 2136, -460, 508, 75, -56, 293, 108, 119, 262, 321, 548, 163, 196
45707210, 11202, 8179, -8720, 156, 2684, 2136, -460, 508, 75, -56, 293, 108, 119, 262, 321, 548, 163, 196
45712242, 11202, 8179, -8720, 156, 2684, 2136, -460, 508, 75, -56, 293, 108, 119, 262, 321, 548, 163, 196
45713030, 11202, 8179, -8720, 156, 2684, 2136, -460, 508, 75, -56, 293, 108, 119, 262, 321, 548, 163, 196
45713847, 11202, 8179, -8720, 156, 2684, 2136, -460, 508, 75, -56, 293, 108, 119, 262, 321, 548, 163, 196
45714680, 11202, 8179, -8720, 156, 2684, 2136, -460, 508, 75, -56, 293, 108, 119, 262, 321, 548, 163, 196
45719607, 11202, 8179, -8720, 156, 2684, 2136, -460, 508, 75, -56, 293, 108, 119, 262, 321, 548, 163, 196
45720431, 11202, 8179, -8720, 156, 2684, 2136, -460, 508, 75, -56, 293, 108, 119, 262, 321, 548, 163, 196
45721252, 11202, 8179, -8720, 156, 2684, 2136, -460, 508, 75, -56, 293, 108, 119, 262, 321, 548, 163, 196
45722050, 11202, 8179, -8720, 156, 2684, 2136, -460, 508, 75, -56, 293, 108, 119, 262, 321, 548, 163, 196
45727137, 11202, 8179, -8720, 156, 2684, 2136, -460, 508, 75, -56, 293, 108, 119, 262, 321, 548, 163, 196
45728070, 11152, 8215, -8748, 219, 2400, 1697, -496, 347, 26, 22, 293, 108, 119, 262, 321, 548, 163, 196
45728933, 11152, 8215, -8748, 219, 2400, 1697, -496, 347, 26, 22, 305, 103, 104, 339, 321, 640, 159, 169
45729715, 11152, 8215, -8748, 219, 2400, 1697, -496, 347, 26, 22, 305, 103, 104, 339, 321, 640, 159, 169
45734708, 11152, 8215, -8748, 219, 2400, 1697, -496, 347, 26, 22, 305, 103, 104, 339, 321, 640, 159, 169
45735504, 11152, 8215, -8748, 219, 2400, 1697, -496, 347, 26, 22, 305, 103, 104, 339, 321, 640, 159, 169
45736338, 11152, 8215, -8748, 219, 2400, 1697, -496, 347, 26, 22, 305, 103, 104, 339, 321, 640, 159, 169
45737160, 11152, 8215, -8748, 219, 2400, 1697, -496, 347, 26, 22, 305, 103, 104, 339, 321, 640, 159, 169
45740784, 11152, 8215, -8748, 219, 2400, 1697, -496, 347, 26, 22, 305, 103, 104, 339, 321, 640, 159, 169
45741607, 11152, 8215, -8748, 219, 2400, 1697, -496, 347, 26, 22, 318, 97, 96, 181, 333, 394, 70, 142
45742411, 11152, 8215, -8748, 219, 2400, 1697, -496, 347, 26, 22, 318, 97, 96, 181, 333, 394, 70, 142
45754463, 10862, 8046, -9234, 663, 2545, 1794, -555, 195, 73, 118, 318, 97, 96, 181, 333, 394, 70, 142
45762627, 10862, 8046, -9234, 663, 2545, 1794, -555, 195, 73, 118, 339, 110, 84, 160, 247, 493, 80, 150
45763422, 10862, 8046, -9234, 663, 2545, 1794, -555, 195, 73, 118, 339, 110, 84, 160, 247, 493, 80, 150
45769586, 10848, 8061, -9236, 686, 2722, 1928, -244, 215, -70, -25, 339, 110, 84, 160, 247, 493, 80, 150
45777657, 10848, 8061, -9236, 686, 2722, 1928, -244, 215, -70, -25, 388, 123, 93, 344, 235, 596, 91, 193
45778459, 10848, 8061, -9236, 686, 2722, 1928, -244, 215, -70, -25, 388, 123, 93, 344, 235, 596, 91, 193
45791964, 10784, 8127, -9248, 749, 2510, 1782, -519, 569, -37, 14, 388, 123, 93, 344, 235, 596, 91, 193
45800107, 10784, 8127, -9248, 749, 2510, 1782, -519, 569, -37, 14, 417, 127, 92, 433, 405, 649, 93, 213
45800928, 10784, 8127, -9248, 749, 2510, 1782, -519, 569, -37, 14, 417, 127, 92, 433, 405, 649, 93, 213
45814502, 10714, 8215, -9246, 812, 2279, 1775, -692, 624, 65, -11, 417, 127, 92, 433, 405, 649, 93, 213
45822632, 10714, 8215, -9246, 812, 2279, 1775, -692, 624, 65, -11, 447, 127, 93, 440, 396, 639, 94, 216
45823426, 10714, 8215, -9246, 812, 2279, 1775, -692, 624, 65, -11, 447, 127, 93, 440, 396, 639, 94, 216
45829597, 10633, 8233, -9328, 750, 2486, 1946, -1196, -158, -424, -16, 447, 127, 93, 440, 396, 639, 94, 216
45837649, 10633, 8233, -9328, 750, 2486, 1946, -1196, -158, -424, -16, 427, 126, 96, 438, 383, 570, 103, 208
45838429, 10633, 8233, -9328, 750, 2486, 1946, -1196, -158, -424, -16, 427, 126, 96, 438, 383, 570, 103, 208
45852011, 10710, 8096, -9371, 608, 2657, 1887, -376, -1151, -325, -49, 427, 126, 96, 438, 383, 570, 103, 208
45860106, 10710, 8096, -9371, 608, 2657, 1887, -376, -1151, -325, -49, 392, 115, 101, 436, 378, 486, 100, 268
45860931, 10710, 8096, -9371, 608, 2657, 1887, -376, -1151, -325, -49, 392, 115, 101, 436, 378, 486, 100, 268
45874538, 10772, 8027, -9362, 555, 2522, 1531, -323, -589, 49, -190, 392, 115, 101, 436, 378, 486, 100, 268
45882624, 10772, 8027, -9362, 555, 2522, 1531, -323, -589, 49, -190, 300, 112, 100, 309, 370, 358, 89, 265
45883422, 10772, 8027, -9362, 555, 2522, 1531, -323, -589, 49, -190, 300, 112, 100, 309, 370, 358, 89, 265
45889601, 10741, 8060, -9368, 584, 2354, 1460, -610, 200, 41, -134, 300, 112, 100, 309, 370, 358, 89, 265
45897652, 10741, 8060, -9368, 584, 2354, 1460, -610, 200, 41, -134, 313, 107, 92, 149, 164, 280, 83, 249
45898432, 10741, 8060, -9368, 584, 2354, 1460, -610, 200, 41, -134, 313, 107, 92, 149, 164, 280, 83, 249
45912583, 10712, 8066, -9395, 601, 2629, 1770, -687, 63, -54, 20, 313, 107, 92, 149, 164, 280, 83, 249
45920133, 10712, 8066, -9395, 601, 2629, 1770, -687, 63, -54, 20, 256, 104, 88, 114, 139, 276, 77, 241
45920928, 10712, 8066, -9395, 601, 2629, 1770, -687, 63, -54, 20, 256, 104, 88, 114, 139, 276, 77, 241
45934461, 10706, 8061, -9405, 596, 2613, 1870, -583, -67, -27, -34, 256, 104, 88, 114, 139, 276, 77, 241
45942593, 10706, 8061, -9405, 596, 2613, 1870, -583, -67, -27, -34, 248, 95, 83, 85, 116, 253, 59, 241
45943410, 10706, 8061, -9405, 596, 2613, 1870, -583, -67, -27, -34, 248, 95, 83, 85, 116, 253, 59, 241
45949567, 10708, 8049, -9413, 606, 2596, 1716, -556, -69, 47, -15, 248, 95, 83, 85, 116, 253, 59, 241
45957636, 10708, 8049, -9413, 606, 2596, 1716, -556, -69, 47, -15, 232, 91, 76, 81, 98, 256, 48, 168
45958430, 10708, 8049, -9413, 606, 2596, 1716, -556, -69, 47, -15, 232, 91, 76, 81, 98, 256, 48, 168
45971953, 10700, 8047, -9422, 637, 2516, 1697, -562, 62, 73, 52, 232, 91, 76, 81, 98, 256, 48, 168
45980088, 10700, 8047, -9422, 637, 2516, 1697, -562, 62, 73, 52, 224, 65, 46, 75, 112, 322, 41, 118
45980909, 10700, 8047, -9422, 637, 2516, 1697, -562, 62, 73, 52, 224, 65, 46, 75, 112, 322, 41, 118
45987063, 10681, 8050, -9440, 657, 2501, 1758, -637, 56, 0, 67, 224, 65, 46, 75, 112, 322, 41, 118
46002602, 10681, 8050, -9440, 657, 2501, 1758, -637, 56, 0, 67, 130, 54, 45, 71, 101, 317, 43, 101
46003428, 10681, 8050, -9440, 657, 2501, 1758, -637, 56, 0, 67, 130, 54, 45, 71, 101, 317, 43, 101
46009581, 10654, 8041, -9476, 674, 2545, 1697, -678, 8, -80, 105, 130, 54, 45, 71, 101, 317, 43, 101
46017637, 10654, 8041, -9476, 674, 2545, 1697, -678, 8, -80, 105, 137, 55, 53, 87, 99, 294, 47, 100
46018431, 10654, 8041, -9476, 674, 2545, 1697, -678, 8, -80, 105, 137, 55, 53, 87, 99, 294, 47, 100
46032012, 10637, 8021, -9512, 694, 2592, 1666, -615, -31, -80, 130, 137, 55, 53, 87, 99, 294, 47, 100
46040102, 10637, 8021, -9512, 694, 2592, 1666, -615, -31, -80, 130, 136, 57, 60, 84, 102, 288, 46, 91
46040917, 10637, 8021, -9512, 694, 2592, 1666, -615, -31, -80, 130, 136, 57, 60, 84, 102, 288, 46, 91
46047086, 10613, 8015, -9540, 729, 2622, 1694, -544, 123, -66, 133, 136, 57, 60, 84, 102, 288, 46, 91
46062614, 10613, 8015, -9540, 729, 2622, 1694, -544, 123, -66, 133, 133, 54, 56, 88, 100, 285, 45, 83
46063404, 10613, 8015, -9540, 729, 2622, 1694, -544, 123, -66, 133, 133, 54, 56, 88, 100, 285, 45, 83
46069557, 10596, 8014, -9557, 756, 2582, 1773, -576, 99, -18, 110, 133, 54, 56, 88, 100, 285, 45, 83
46076970, 10596, 8014, -9557, 756, 2582, 1773, -576, 99, -18, 110, 119, 52, 62, 357, 78, 211, 45, 92
46084460, 10596, 8014, -9557, 756, 2582, 1773, -576, 99, -18, 110, 119, 52, 62, 357, 78, 211, 45, 92
46092085, 10585, 7996, -9583, 780, 2531, 1729, -630, -15, -6, 178, 119, 52, 62, 357, 78, 211, 45, 92
46100134, 10585, 7996, -9583, 780, 2531, 1729, -630, -15, -6, 178, 118, 48, 65, 414, 58, 203, 45, 96
46100934, 10585, 7996, -9583, 780, 2531, 1729, -630, -15, -6, 178, 118, 48, 65, 414, 58, 203, 45, 96
46107085, 10576, 7954, -9626, 804, 2538, 1632, -619, -106, -60, 272, 118, 48, 65, 414, 58, 203, 45, 96
46122597, 10576, 7954, -9626, 804, 2538, 1632, -619, -106, -60, 272, 111, 51, 65, 428, 52, 196, 35, 97
46123430, 10576, 7954, -9626, 804, 2538, 1632, -619, -106, -60, 272, 111, 51, 65, 428, 52, 196, 35, 97
46129589, 10556, 7938, -9658, 843, 2580, 1700, -516, 108, -79, 241, 111, 51, 65, 428, 52, 196, 35, 97
46145118, 10556, 7938, -9658, 843, 2580, 1700, -516, 108, -79, 241, 105, 48, 60, 445, 50, 191, 40, 178
46145925, 10556, 7938, -9658, 843, 2580, 1700, -516, 108, -79, 241, 105, 48, 60, 445, 50, 191, 40, 178
46152058, 10538, 7944, -9670, 871, 2678, 1841, -529, 164, -35, 117, 105, 48, 60, 445, 50, 191, 40, 178
46160111, 10538, 7944, -9670, 871, 2678, 1841, -529, 164, -35, 117, 97, 46, 67, 471, 49, 187, 43, 194
46160927, 10538, 7944, -9670, 871, 2678, 1841, -529, 164, -35, 117, 97, 46, 67, 471, 49, 187, 43, 194
46167077, 10537, 7946, -9668, 891, 2598, 1836, -533, 82, 55, 77, 97, 46, 67, 471, 49, 187, 43, 194
46182602, 10537, 7946, -9668, 891, 2598, 1836, -533, 82, 55, 77, 95, 45, 68, 328, 55, 167, 44, 193
46183430, 10537, 7946, -9668, 891, 2598, 1836, -533, 82, 55, 77, 95, 45, 68, 328, 55, 167, 44, 193
46189578, 10541, 7936, -9672, 893, 2493, 1757, -633, -76, 65, 70, 95, 45, 68, 328, 55, 167, 44, 193
46205103, 10541, 7936, -9672, 893, 2493, 1757, -633, -76, 65, 70, 102, 47, 71, 299, 58, 168, 43, 190
46205937, 10541, 7936, -9672, 893, 2493, 1757, -633, -76, 65, 70, 102, 47, 71, 299, 58, 168, 43, 190
46212056, 10534, 7916, -9694, 907, 2517, 1607, -634, -60, -7, 123, 102, 47, 71, 299, 58, 168, 43, 190