Timestamp, Orientation x, Orientation y, Orientation z, Orientation w, Acceleration x, Acceleration y, Acceleration z, Rotation x, Rotation y, Rotation z, EMG 0, EMG 1, EMG 2, EMG 3, EMG 4, EMG 5, EMG 6, EMG 7
312132116, -3510, 7349, 9701, 10391, 1878, 1332, -153, -57, -150, -46, 0, 0, 0, 0, 0, 0, 0, 0
312132929, -3488, 7355, 9706, 10390, 1888, 1346, -166, -20, -137, -44, 0, 0, 0, 0, 0, 0, 0, 0
312153886, -3467, 7361, 9713, 10386, 1888, 1360, -187, 1, -137, -38, 0, 0, 0, 0, 0, 0, 0, 0
312168917, -3447, 7370, 9722, 10377, 1877, 1358, -175, 29, -165, -21, 0, 0, 0, 0, 0, 0, 0, 0
312191418, -3424, 7382, 9734, 10365, 1867, 1324, -156, 41, -210, -40, 0, 0, 0, 0, 0, 0, 0, 0
312199504, -3424, 7382, 9734, 10365, 1867, 1324, -156, 41, -210, -40, 32, 164, 127, 58, 29, 26, 36, 29
312200303, -3424, 7382, 9734, 10365, 1867, 1324, -156, 41, -210, -40, 32, 164, 127, 58, 29, 26, 36, 29
312213877, -3394, 7399, 9740, 10357, 1836, 1411, -116, 10, -254, 11, 32, 164, 127, 58, 29, 26, 36, 29
312222040, -3394, 7399, 9740, 10357, 1836, 1411, -116, 10, -254, 11, 42, 312, 145, 60, 32, 30, 61, 30
312222841, -3394, 7399, 9740, 10357, 1836, 1411, -116, 10, -254, 11, 42, 312, 145, 60, 32, 30, 61, 30
312236380, -3362, 7432, 9742, 10342, 1830, 1385, -96, -5, -339, 58, 42, 312, 145, 60, 32, 30, 61, 30
312244536, -3362, 7432, 9742, 10342, 1830, 1385, -96, -5, -339, 58, 54, 463, 163, 71, 48, 47, 67, 34
312245344, -3362, 7432, 9742, 10342, 1830, 1385, -96, -5, -339, 58, 54, 463, 163, 71, 48, 47, 67, 34
312251509, -3303, 7469, 9737, 10339, 1853, 1414, -8, -106, -450, -12, 54, 463, 163, 71, 48, 47, 67, 34
312259534, -3303, 7469, 9737, 10339, 1853, 1414, -8, -106, -450, -12, 80, 594, 205, 88, 55, 57, 75, 46
312260359, -3303, 7469, 9737, 10339, 1853, 1414, -8, -106, -450, -12, 80, 594, 205, 88, 55, 57, 75, 46
312273859, -3251, 7520, 9729, 10327, 1878, 1446, -12, -84, -507, 87, 80, 594, 205, 88, 55, 57, 75, 46
312282029, -3251, 7520, 9729, 10327, 1878, 1446, -12, -84, -507, 87, 91, 673, 281, 119, 59, 63, 79, 51
312282832, -3251, 7520, 9729, 10327, 1878, 1446, -12, -84, -507, 87, 91, 673, 281, 119, 59, 63, 79, 51
312299156, -3194, 7612, 9706, 10299, 1941, 1366, -61, -153, -671, 204, 91, 673, 281, 119, 59, 63, 79, 51
312299995, -3510, 7349, 9701, 10391, 1878, 1332, -153, -57, -150, -46, 91, 673, 281, 119, 59, 63, 79, 51
312300810, -3488, 7355, 9706, 10390, 1888, 1346, -166, -20, -137, -44, 91, 673, 281, 119, 59, 63, 79, 51
312301676, -3467, 7361, 9713, 10386, 1888, 1360, -187, 1, -137, -38, 91, 673, 281, 119, 59, 63, 79, 51
312314084, -3447, 7370, 9722, 10377, 1877, 1358, -175, 29, -165, -21, 91, 673, 281, 119, 59, 63, 79, 51
312314950, -3424, 7382, 9734, 10365, 1867, 1324, -156, 41, -210, -40, 91, 673, 281, 119, 59, 63, 79, 51
312315754, -3424, 7382, 9734, 10365, 1867, 1324, -156, 41, -210, -40, 32, 164, 127, 58, 29, 26, 36, 29
312316554, -3424, 7382, 9734, 10365, 1867, 1324, -156, 41, -210, -40, 32, 164, 127, 58, 29, 26, 36, 29
312321582, -3424, 7382, 9734, 10365, 1867, 1324, -156, 41, -210, -40, 42, 312, 145, 60, 32, 30, 61, 30
312322508, -3424, 7382, 9734, 10365, 1867, 1324, -156, 41, -210, -40, 42, 312, 145, 60, 32, 30, 61, 30
312323159, -3424, 7382, 9734, 10365, 1867, 1324, -156, 41, -210, -40, 42, 312, 145, 60, 32, 30, 61, 30
312324024, -3424, 7382, 9734, 10365, 1867, 1324, -156, 41, -210, -40, 42, 312, 145, 60, 32, 30, 61, 30
312328958, -3424, 7382, 9734, 10365, 1867, 1324, -156, 41, -210, -40, 42, 312, 145, 60, 32, 30, 61, 30
312329782, -3424, 7382, 9734, 10365, 1867, 1324, -156, 41, -210, -40, 42, 312, 145, 60, 32, 30, 61, 30
312330581, -3424, 7382, 9734, 10365, 1867, 1324, -156, 41, -210, -40, 42, 312, 145, 60, 32, 30, 61, 30
312331456, -3424, 7382, 9734, 10365, 1867, 1324, -156, 41, -210, -40, 42, 312, 145, 60, 32, 30, 61, 30
312336500, -3424, 7382, 9734, 10365, 1867, 1324, -156, 41, -210, -40, 42, 312, 145, 60, 32, 30, 61, 30
312337464, -3362, 7432, 9742, 10342, 1830, 1385, -96, -5, -339, 58, 42, 312, 145, 60, 32, 30, 61, 30
312338252, -3362, 7432, 9742, 10342, 1830, 1385, -96, -5, -339, 58, 54, 463, 163, 71, 48, 47, 67, 34
312339053, -3362, 7432, 9742, 10342, 1830, 1385, -96, -5, -339, 58, 54, 463, 163, 71, 48, 47, 67, 34
312344080, -3362, 7432, 9742, 10342, 1830, 1385, -96, -5, -339, 58, 54, 463, 163, 71, 48, 47, 67, 34
312344921, -3362, 7432, 9742, 10342, 1830, 1385, -96, -5, -339, 58, 54, 463, 163, 71, 48, 47, 67, 34
312345729, -3362, 7432, 9742, 10342, 1830, 1385, -96, -5, -339, 58, 54, 463, 163, 71, 48, 47, 67, 34
312346547, -3362, 7432, 9742, 10342, 1830, 1385, -96, -5, -339, 58, 54, 463, 163, 71, 48, 47, 67, 34
312351486, -3362, 7432, 9742, 10342, 1830, 1385, -96, -5, -339, 58, 54, 463, 163, 71, 48, 47, 67, 34
312352268, -3362, 7432, 9742, 10342, 1830, 1385, -96, -5, -339, 58, 54, 463, 163, 71, 48, 47, 67, 34
312353125, -3362, 7432, 9742, 10342, 1830, 1385, -96, -5, -339, 58, 54, 463, 163, 71, 48, 47, 67, 34
312353906, -3362, 7432, 9742, 10342, 1830, 1385, -96, -5, -339, 58, 54, 463, 163, 71, 48, 47, 67, 34
312359024, -3362, 7432, 9742, 10342, 1830, 1385, -96, -5, -339, 58, 54, 463, 163, 71, 48, 47, 67, 34
312359940, -3303, 7469, 9737, 10339, 1853, 1414, -8, -106, -450, -12, 54, 463, 163, 71, 48, 47, 67, 34
312360757, -3303, 7469, 9737, 10339, 1853, 1414, -8, -106, -450, -12, 80, 594, 205, 88, 55, 57, 75, 46
312361581, -3303, 7469, 9737, 10339, 1853, 1414, -8, -106, -450, -12, 54, 463, 163, 71, 48, 47, 67, 34
312366600, -3303, 7469, 9737, 10339, 1853, 1414, -8, -106, -450, -12, 80, 594, 205, 88, 55, 57, 75, 46
312367472, -3303, 7469, 9737, 10339, 1853, 1414, -8, -106, -450, -12, 80, 594, 205, 88, 55, 57, 75, 46
312368209, -3303, 7469, 9737, 10339, 1853, 1414, -8, -106, -450, -12, 80, 594, 205, 88, 55, 57, 75, 46
312369032, -3303, 7469, 9737, 10339, 1853, 1414, -8, -106, -450, -12, 80, 594, 205, 88, 55, 57, 75, 46
312373982, -3303, 7469, 9737, 10339, 1853, 1414, -8, -106, -450, -12, 80, 594, 205, 88, 55, 57, 75, 46
312374808, -3303, 7469, 9737, 10339, 1853, 1414, -8, -106, -450, -12, 80, 594, 205, 88, 55, 57, 75, 46
312375673, -3303, 7469, 9737, 10339, 1853, 1414, -8, -106, -450, -12, 80, 594, 205, 88, 55, 57, 75, 46
312376482, -3303, 7469, 9737, 10339, 1853, 1414, -8, -106, -450, -12, 80, 594, 205, 88, 55, 57, 75, 46
312381529, -3303, 7469, 9737, 10339, 1853, 1414, -8, -106, -450, -12, 80, 594, 205, 88, 55, 57, 75, 46
312382484, -3251, 7520, 9729, 10327, 1878, 1446, -12, -84, -507, 87, 80, 594, 205, 88, 55, 57, 75, 46
312383261, -3251, 7520, 9729, 10327, 1878, 1446, -12, -84, -507, 87, 91, 673, 281, 119, 59, 63, 79, 51
312384080, -3251, 7520, 9729, 10327, 1878, 1446, -12, -84, -507, 87, 91, 673, 281, 119, 59, 63, 79, 51
312389089, -3251, 7520, 9729, 10327, 1878, 1446, -12, -84, -507, 87, 91, 673, 281, 119, 59, 63, 79, 51
312389887, -3251, 7520, 9729, 10327, 1878, 1446, -12, -84, -507, 87, 91, 673, 281, 119, 59, 63, 79, 51
312390682, -3251, 7520, 9729, 10327, 1878, 1446, -12, -84, -507, 87, 91, 673, 281, 119, 59, 63, 79, 51
312391529, -3251, 7520, 9729, 10327, 1878, 1446, -12, -84, -507, 87, 91, 673, 281, 119, 59, 63, 79, 51
312396485, -3251, 7520, 9729, 10327, 1878, 1446, -12, -84, -507, 87, 91, 673, 281, 119, 59, 63, 79, 51
312397284, -3251, 7520, 9729, 10327, 1878, 1446, -12, -84, -507, 87, 91, 673, 281, 119, 59, 63, 79, 51
312398107, -3251, 7520, 9729, 10327, 1878, 1446, -12, -84, -507, 87, 91, 673, 281, 119, 59, 63, 79, 51
312398962, -3251, 7520, 9729, 10327, 1878, 1446, -12, -84, -507, 87, 91, 673, 281, 119, 59, 63, 79, 51
312403982, -3251, 7520, 9729, 10327, 1878, 1446, -12, -84, -507, 87, 91, 673, 281, 119, 59, 63, 79, 51
312404960, -3194, 7612, 9706, 10299, 1941, 1366, -61, -153, -671, 204, 91, 673, 281, 119, 59, 63, 79, 51
312405732, -3194, 7612, 9706, 10299, 1941, 1366, -61, -153, -671, 204, 96, 740, 306, 132, 63, 63, 76, 53
312406561, -3194, 7612, 9706, 10299, 1941, 1366, -61, -153, -671, 204, 96, 740, 306, 132, 63, 63, 76, 53
312411573, -3194, 7612, 9706, 10299, 1941, 1366, -61, -153, -671, 204, 96, 740, 306, 132, 63, 63, 76, 53
312412384, -3194, 7612, 9706, 10299, 1941, 1366, -61, -153, -671, 204, 96, 740, 306, 132, 63, 63, 76, 53
312413197, -3194, 7612, 9706, 10299, 1941, 1366, -61, -153, -671, 204, 96, 740, 306, 132, 63, 63, 76, 53
312414006, -3194, 7612, 9706, 10299, 1941, 1366, -61, -153, -671, 204, 96, 740, 306, 132, 63, 63, 76, 53
312419038, -3194, 7612, 9706, 10299, 1941, 1366, -61, -153, -671, 204, 96, 740, 306, 132, 63, 63, 76, 53
312419832, -3194, 7612, 9706, 10299, 1941, 1366, -61, -153, -671, 204, 96, 740, 306, 132, 63, 63, 76, 53
312420687, -3194, 7612, 9706, 10299, 1941, 1366, -61, -153, -671, 204, 96, 740, 306, 132, 63, 63, 76, 53
312421482, -3194, 7612, 9706, 10299, 1941, 1366, -61, -153, -671, 204, 96, 740, 306, 132, 63, 63, 76, 53
312426540, -3194, 7612, 9706, 10299, 1941, 1366, -61, -153, -671, 204, 96, 740, 306, 132, 63, 63, 76, 53
312427484, -3109, 7737, 9668, 10267, 2084, 1421, -20, -280, -919, 243, 96, 740, 306, 132, 63, 63, 76, 53
312428310, -3109, 7737, 9668, 10267, 2084, 1421, -20, -280, -919, 243, 109, 739, 340, 137, 70, 65, 69, 64
312429083, -3109, 7737, 9668, 10267, 2084, 1421, -20, -280, -919, 243, 109, 739, 340, 137, 70, 65, 69, 64
312434108, -3109, 7737, 9668, 10267, 2084, 1421, -20, -280, -919, 243, 109, 739, 340, 137, 70, 65, 69, 64
312434909, -3109, 7737, 9668, 10267, 2084, 1421, -20, -280, -919, 243, 109, 739, 340, 137, 70, 65, 69, 64
312435709, -3109, 7737, 9668, 10267, 2084, 1421, -20, -280, -919, 243, 109, 739, 340, 137, 70, 65, 69, 64
312436532, -3109, 7737, 9668, 10267, 2084, 1421, -20, -280, -919, 243, 109, 739, 340, 137, 70, 65, 69, 64
312441475, -3109, 7737, 9668, 10267, 2084, 1421, -20, -280, -919, 243, 109, 739, 340, 137, 70, 65, 69, 64
312442306, -3109, 7737, 9668, 10267, 2084, 1421, -20, -280, -919, 243, 109, 739, 340, 137, 70, 65, 69, 64
312443130, -3109, 7737, 9668, 10267, 2084, 1421, -20, -280, -919, 243, 109, 739, 340, 137, 70, 65, 69, 64
312443959, -3109, 7737, 9668, 10267, 2084, 1421, -20, -280, -919, 243, 109, 739, 340, 137, 70, 65, 69, 64
312449009, -3109, 7737, 9668, 10267, 2084, 1421, -20, -280, -919, 243, 109, 739, 340, 137, 70, 65, 69, 64
312449962, -3007, 7899, 9632, 10208, 2293, 1441, -103, -280, -1175, 283, 109, 739, 340, 137, 70, 65, 69, 64
312450758, -3007, 7899, 9632, 10208, 2293, 1441, -103, -280, -1175, 283, 108, 696, 355, 137, 61, 55, 65, 62
312451590, -3007, 7899, 9632, 10208, 2293, 1441, -103, -280, -1175, 283, 108, 696, 355, 137, 61, 55, 65, 62
312456587, -3007, 7899, 9632, 10208, 2293, 1441, -103, -280, -1175, 283, 108, 696, 355, 137, 61, 55, 65, 62
312457396, -3007, 7899, 9632, 10208, 2293, 1441, -103, -280, -1175, 283, 108, 696, 355, 137, 61, 55, 65, 62
312458206, -3007, 7899, 9632, 10208, 2293, 1441, -103, -280, -1175, 283, 108, 696, 355, 137, 61, 55, 65, 62
312459072, -3007, 7899, 9632, 10208, 2293, 1441, -103, -280, -1175, 283, 108, 696, 355, 137, 61, 55, 65, 62
312463982, -3007, 7899, 9632, 10208, 2293, 1441, -103, -280, -1175, 283, 108, 696, 355, 137, 61, 55, 65, 62
312464822, -3007, 7899, 9632, 10208, 2293, 1441, -103, -280, -1175, 283, 108, 696, 355, 137, 61, 55, 65, 62
312465620, -3007, 7899, 9632, 10208, 2293, 1441, -103, -280, -1175, 283, 108, 696, 355, 137, 61, 55, 65, 62
312466523, -3007, 7899, 9632, 10208, 2293, 1441, -103, -280, -1175, 283, 108, 696, 355, 137, 61, 55, 65, 62
312471504, -3007, 7899, 9632, 10208, 2293, 1441, -103, -280, -1175, 283, 108, 696, 355, 137, 61, 55, 65, 62
312472495, -2950, 8079, 9605, 10109, 2596, 1551, -52, 30, -1287, 490, 108, 696, 355, 137, 61, 55, 65, 62
312473208, -2950, 8079, 9605, 10109, 2596, 1551, -52, 30, -1287, 490, 112, 614, 347, 128, 59, 49, 57, 64
312474097, -2950, 8079, 9605, 10109, 2596, 1551, -52, 30, -1287, 490, 112, 614, 347, 128, 59, 49, 57, 64
312479112, -2950, 8079, 9605, 10109, 2596, 1551, -52, 30, -1287, 490, 112, 614, 347, 128, 59, 49, 57, 64
312479961, -2950, 8079, 9605, 10109, 2596, 1551, -52, 30, -1287, 490, 112, 614, 347, 128, 59, 49, 57, 64
312480732, -2950, 8079, 9605, 10109, 2596, 1551, -52, 30, -1287, 490, 112, 614, 347, 128, 59, 49, 57, 64
312481584, -2950, 8079, 9605, 10109, 2596, 1551, -52, 30, -1287, 490, 112, 614, 347, 128, 59, 49, 57, 64
312486515, -2950, 8079, 9605, 10109, 2596, 1551, -52, 30, -1287, 490, 112, 614, 347, 128, 59, 49, 57, 64
312487300, -2950, 8079, 9605, 10109, 2596, 1551, -52, 30, -1287, 490, 112, 614, 347, 128, 59, 49, 57, 64
312488134, -2950, 8079, 9605, 10109, 2596, 1551, -52, 30, -1287, 490, 112, 614, 347, 128, 59, 49, 57, 64
312488968, -2950, 8079, 9605, 10109, 2596, 1551, -52, 30, -1287, 490, 112, 614, 347, 128, 59, 49, 57, 64
312494045, -2950, 8079, 9605, 10109, 2596, 1551, -52, 30, -1287, 490, 112, 614, 347, 128, 59, 49, 57, 64
312495016, -2906, 8273, 9608, 9961, 2757, 1472, -167, 296, -1450, 480, 112, 614, 347, 128, 59, 49, 57, 64
312495753, -2906, 8273, 9608, 9961, 2757, 1472, -167, 296, -1450, 480, 126, 549, 317, 112, 62, 44, 53, 60
312496581, -2906, 8273, 9608, 9961, 2757, 1472, -167, 296, -1450, 480, 112, 614, 347, 128, 59, 49, 57, 64
312501565, -2906, 8273, 9608, 9961, 2757, 1472, -167, 296, -1450, 480, 126, 549, 317, 112, 62, 44, 53, 60
312502482, -2906, 8273, 9608, 9961, 2757, 1472, -167, 296, -1450, 480, 126, 549, 317, 112, 62, 44, 53, 60
312503200, -2906, 8273, 9608, 9961, 2757, 1472, -167, 296, -1450, 480, 126, 549, 317, 112, 62, 44, 53, 60
312504032, -2906, 8273, 9608, 9961, 2757, 1472, -167, 296, -1450, 480, 126, 549, 317, 112, 62, 44, 53, 60
312509024, -2906, 8273, 9608, 9961, 2757, 1472, -167, 296, -1450, 480, 126, 549, 317, 112, 62, 44, 53, 60
312509807, -2906, 8273, 9608, 9961, 2757, 1472, -167, 296, -1450, 480, 126, 549, 317, 112, 62, 44, 53, 60
312510648, -2906, 8273, 9608, 9961, 2757, 1472, -167, 296, -1450, 480, 126, 549, 317, 112, 62, 44, 53, 60
312511482, -2906, 8273, 9608, 9961, 2757, 1472, -167, 296, -1450, 480, 126, 549, 317, 112, 62, 44, 53, 60
312524039, -2906, 8273, 9608, 9961, 2757, 1472, -167, 296, -1450, 480, 126, 549, 317, 112, 62, 44, 53, 60
312524983, -2838, 8484, 9652, 9758, 2965, 1640, -242, 447, -1627, 511, 126, 549, 317, 112, 62, 44, 53, 60
312525781, -2838, 8484, 9652, 9758, 2965, 1640, -242, 447, -1627, 511, 160, 507, 310, 104, 62, 42, 55, 65
312526633, -2838, 8484, 9652, 9758, 2965, 1640, -242, 447, -1627, 511, 160, 507, 310, 104, 62, 42, 55, 65
312531607, -2838, 8484, 9652, 9758, 2965, 1640, -242, 447, -1627, 511, 160, 507, 310, 104, 62, 42, 55, 65
312532490, -2838, 8484, 9652, 9758, 2965, 1640, -242, 447, -1627, 511, 160, 507, 310, 104, 62, 42, 55, 65
312533185, -2838, 8484, 9652, 9758, 2965, 1640, -242, 447, -1627, 511, 160, 507, 310, 104, 62, 42, 55, 65
312534096, -2838, 8484, 9652, 9758, 2965, 1640, -242, 447, -1627, 511, 160, 507, 310, 104, 62, 42, 55, 65
312539007, -2838, 8484, 9652, 9758, 2965, 1640, -242, 447, -1627, 511, 160, 507, 310, 104, 62, 42, 55, 65
312539847, -2838, 8484, 9652, 9758, 2965, 1640, -242, 447, -1627, 511, 160, 507, 310, 104, 62, 42, 55, 65
312540632, -2838, 8484, 9652, 9758, 2965, 1640, -242, 447, -1627, 511, 160, 507, 310, 104, 62, 42, 55, 65
312541523, -2838, 8484, 9652, 9758, 2965, 1640, -242, 447, -1627, 511, 160, 507, 310, 104, 62, 42, 55, 65
312546507, -2838, 8484, 9652, 9758, 2965, 1640, -242, 447, -1627, 511, 160, 507, 310, 104, 62, 42, 55, 65
312547525, -2790, 8717, 9700, 9515, 3167, 1595, -271, 637, -1767, 664, 160, 507, 310, 104, 62, 42, 55, 65
312548263, -2790, 8717, 9700, 9515, 3167, 1595, -271, 637, -1767, 664, 172, 456, 273, 99, 55, 38, 46, 64
312549085, -2790, 8717, 9700, 9515, 3167, 1595, -271, 637, -1767, 664, 172, 456, 273, 99, 55, 38, 46, 64
312554084, -2790, 8717, 9700, 9515, 3167, 1595, -271, 637, -1767, 664, 172, 456, 273, 99, 55, 38, 46, 64
312554898, -2790, 8717, 9700, 9515, 3167, 1595, -271, 637, -1767, 664, 172, 456, 273, 99, 55, 38, 46, 64
312555684, -2790, 8717, 9700, 9515, 3167, 1595, -271, 637, -1767, 664, 172, 456, 273, 99, 55, 38, 46, 64
312556507, -2790, 8717, 9700, 9515, 3167, 1595, -271, 637, -1767, 664, 172, 456, 273, 99, 55, 38, 46, 64
312561459, -2790, 8717, 9700, 9515, 3167, 1595, -271, 637, -1767, 664, 172, 456, 273, 99, 55, 38, 46, 64
312562260, -2790, 8717, 9700, 9515, 3167, 1595, -271, 637, -1767, 664, 172, 456, 273, 99, 55, 38, 46, 64
312563081, -2790, 8717, 9700, 9515, 3167, 1595, -271, 637, -1767, 664, 172, 456, 273, 99, 55, 38, 46, 64
312563906, -2790, 8717, 9700, 9515, 3167, 1595, -271, 637, -1767, 664, 172, 456, 273, 99, 55, 38, 46, 64
312568982, -2790, 8717, 9700, 9515, 3167, 1595, -271, 637, -1767, 664, 172, 456, 273, 99, 55, 38, 46, 64
312569961, -2764, 8950, 9744, 9259, 3192, 1585, -218, 743, -1760, 763, 172, 456, 273, 99, 55, 38, 46, 64
312570730, -2764, 8950, 9744, 9259, 3192, 1585, -218, 743, -1760, 763, 212, 456, 256, 96, 55, 36, 44, 113
312571577, -2764, 8950, 9744, 9259, 3192, 1585, -218, 743, -1760, 763, 212, 456, 256, 96, 55, 36, 44, 113
312576557, -2764, 8950, 9744, 9259, 3192, 1585, -218, 743, -1760, 763, 212, 456, 256, 96, 55, 36, 44, 113
312577406, -2764, 8950, 9744, 9259, 3192, 1585, -218, 743, -1760, 763, 212, 456, 256, 96, 55, 36, 44, 113
312578181, -2764, 8950, 9744, 9259, 3192, 1585, -218, 743, -1760, 763, 212, 456, 256, 96, 55, 36, 44, 113
312579004, -2764, 8950, 9744, 9259, 3192, 1585, -218, 743, -1760, 763, 212, 456, 256, 96, 55, 36, 44, 113
312582408, -2764, 8950, 9744, 9259, 3192, 1585, -218, 743, -1760, 763, 212, 456, 256, 96, 55, 36, 44, 113
312583247, -2764, 8950, 9744, 9259, 3192, 1585, -218, 743, -1760, 763, 212, 456, 256, 96, 55, 36, 44, 113
312591519, -2764, 8950, 9744, 9259, 3192, 1585, -218, 743, -1760, 763, 212, 456, 256, 96, 55, 36, 44, 113
312592372, -2764, 8950, 9744, 9259, 3192, 1585, -218, 743, -1760, 763, 212, 456, 256, 96, 55, 36, 44, 113
312593138, -2764, 8950, 9744, 9259, 3192, 1585, -218, 743, -1760, 763, 212, 456, 256, 96, 55, 36, 44, 113
312594094, -2718, 9186, 9779, 9001, 3097, 1645, -433, 652, -1812, 758, 212, 456, 256, 96, 55, 36, 44, 113
312599108, -2718, 9186, 9779, 9001, 3097, 1645, -433, 652, -1812, 758, 230, 474, 265, 103, 54, 32, 44, 127
312599931, -2718, 9186, 9779, 9001, 3097, 1645, -433, 652, -1812, 758, 230, 474, 265, 103, 54, 32, 44, 127
312600732, -2718, 9186, 9779, 9001, 3097, 1645, -433, 652, -1812, 758, 230, 474, 265, 103, 54, 32, 44, 127
312601559, -2718, 9186, 9779, 9001, 3097, 1645, -433, 652, -1812, 758, 230, 474, 265, 103, 54, 32, 44, 127
312606483, -2718, 9186, 9779, 9001, 3097, 1645, -433, 652, -1812, 758, 230, 474, 265, 103, 54, 32, 44, 127
312607350, -2718, 9186, 9779, 9001, 3097, 1645, -433, 652, -1812, 758, 230, 474, 265, 103, 54, 32, 44, 127
312608107, -2718, 9186, 9779, 9001, 3097, 1645, -433, 652, -1812, 758, 230, 474, 265, 103, 54, 32, 44, 127
312608959, -2718, 9186, 9779, 9001, 3097, 1645, -433, 652, -1812, 758, 230, 474, 265, 103, 54, 32, 44, 127
312614007, -2718, 9186, 9779, 9001, 3097, 1645, -433, 652, -1812, 758, 230, 474, 265, 103, 54, 32, 44, 127
312614975, -2679, 9399, 9836, 8726, 3231, 1602, -410, 834, -1824, 650, 230, 474, 265, 103, 54, 32, 44, 127
312615760, -2679, 9399, 9836, 8726, 3231, 1602, -410, 834, -1824, 650, 245, 521, 244, 89, 47, 31, 56, 161
312616568, -2679, 9399, 9836, 8726, 3231, 1602, -410, 834, -1824, 650, 245, 521, 244, 89, 47, 31, 56, 161
312621558, -2679, 9399, 9836, 8726, 3231, 1602, -410, 834, -1824, 650, 245, 521, 244, 89, 47, 31, 56, 161
312622425, -2679, 9399, 9836, 8726, 3231, 1602, -410, 834, -1824, 650, 245, 521, 244, 89, 47, 31, 56, 161
312623208, -2679, 9399, 9836, 8726, 3231, 1602, -410, 834, -1824, 650, 245, 521, 244, 89, 47, 31, 56, 161
312624048, -2679, 9399, 9836, 8726, 3231, 1602, -410, 834, -1824, 650, 245, 521, 244, 89, 47, 31, 56, 161
312628957, -2679, 9399, 9836, 8726, 3231, 1602, -410, 834, -1824, 650, 245, 521, 244, 89, 47, 31, 56, 161
312629822, -2679, 9399, 9836, 8726, 3231, 1602, -410, 834, -1824, 650, 245, 521, 244, 89, 47, 31, 56, 161
312630582, -2679, 9399, 9836, 8726, 3231, 1602, -410, 834, -1824, 650, 245, 521, 244, 89, 47, 31, 56, 161
312631511, -2679, 9399, 9836, 8726, 3231, 1602, -410, 834, -1824, 650, 245, 521, 244, 89, 47, 31, 56, 161
312636533, -2679, 9399, 9836, 8726, 3231, 1602, -410, 834, -1824, 650, 245, 521, 244, 89, 47, 31, 56, 161
312637512, -2652, 9576, 9906, 8459, 3393, 1589, -508, 920, -1676, 507, 245, 521, 244, 89, 47, 31, 56, 161
312638287, -2652, 9576, 9906, 8459, 3393, 1589, -508, 920, -1676, 507, 279, 534, 226, 76, 43, 32, 57, 172
312639131, -2652, 9576, 9906, 8459, 3393, 1589, -508, 920, -1676, 507, 279, 534, 226, 76, 43, 32, 57, 172
312644118, -2652, 9576, 9906, 8459, 3393, 1589, -508, 920, -1676, 507, 279, 534, 226, 76, 43, 32, 57, 172
312644909, -2652, 9576, 9906, 8459, 3393, 1589, -508, 920, -1676, 507, 279, 534, 226, 76, 43, 32, 57, 172
312645747, -2652, 9576, 9906, 8459, 3393, 1589, -508, 920, -1676, 507, 279, 534, 226, 76, 43, 32, 57, 172
312646555, -2652, 9576, 9906, 8459, 3393, 1589, -508, 920, -1676, 507, 279, 534, 226, 76, 43, 32, 57, 172
312651534, -2652, 9576, 9906, 8459, 3393, 1589, -508, 920, -1676, 507, 279, 534, 226, 76, 43, 32, 57, 172
312652310, -2652, 9576, 9906, 8459, 3393, 1589, -508, 920, -1676, 507, 279, 534, 226, 76, 43, 32, 57, 172
312653155, -2652, 9576, 9906, 8459, 3393, 1589, -508, 920, -1676, 507, 279, 534, 226, 76, 43, 32, 57, 172
312653952, -2652, 9576, 9906, 8459, 3393, 1589, -508, 920, -1676, 507, 279, 534, 226, 76, 43, 32, 57, 172
312659012, -2652, 9576, 9906, 8459, 3393, 1589, -508, 920, -1676, 507, 279, 534, 226, 76, 43, 32, 57, 172
312659961, -2690, 9680, 9962, 8260, 3573, 1658, -551, 1148, -1507, 350, 279, 534, 226, 76, 43, 32, 57, 172
312660758, -2690, 9680, 9962, 8260, 3573, 1658, -551, 1148, -1507, 350, 354, 527, 214, 77, 45, 38, 60, 181
312661580, -2690, 9680, 9962, 8260, 3573, 1658, -551, 1148, -1507, 350, 354, 527, 214, 77, 45, 38, 60, 181
312666579, -2690, 9680, 9962, 8260, 3573, 1658, -551, 1148, -1507, 350, 354, 527, 214, 77, 45, 38, 60, 181
312667522, -2690, 9680, 9962, 8260, 3573, 1658, -551, 1148, -1507, 350, 354, 527, 214, 77, 45, 38, 60, 181
312668183, -2690, 9680, 9962, 8260, 3573, 1658, -551, 1148, -1507, 350, 354, 527, 214, 77, 45, 38, 60, 181
312669061, -2690, 9680, 9962, 8260, 3573, 1658, -551, 1148, -1507, 350, 354, 527, 214, 77, 45, 38, 60, 181
312673985, -2690, 9680, 9962, 8260, 3573, 1658, -551, 1148, -1507, 350, 354, 527, 214, 77, 45, 38, 60, 181
312674784, -2690, 9680, 9962, 8260, 3573, 1658, -551, 1148, -1507, 350, 354, 527, 214, 77, 45, 38, 60, 181
312675609, -2690, 9680, 9962, 8260, 3573, 1658, -551, 1148, -1507, 350, 354, 527, 214, 77, 45, 38, 60, 181
312676472, -2690, 9680, 9962, 8260, 3573, 1658, -551, 1148, -1507, 350, 354, 527, 214, 77, 45, 38, 60, 181
312681480, -2690, 9680, 9962, 8260, 3573, 1658, -551, 1148, -1507, 350, 354, 527, 214, 77, 45, 38, 60, 181
312682506, -2788, 9740, 10031, 8071, 3795, 1660, -666, 1386, -1198, 307, 354, 527, 214, 77, 45, 38, 60, 181
312683237, -2788, 9740, 10031, 8071, 3795, 1660, -666, 1386, -1198, 307, 354, 503, 200, 71, 41, 49, 66, 215
312684047, -2788, 9740, 10031, 8071, 3795, 1660, -666, 1386, -1198, 307, 354, 503, 200, 71, 41, 49, 66, 215
312689044, -2788, 9740, 10031, 8071, 3795, 1660, -666, 1386, -1198, 307, 354, 503, 200, 71, 41, 49, 66, 215
312689925, -2788, 9740, 10031, 8071, 3795, 1660, -666, 1386, -1198, 307, 354, 503, 200, 71, 41, 49, 66, 215
312690684, -2788, 9740, 10031, 8071, 3795, 1660, -666, 1386, -1198, 307, 354, 503, 200, 71, 41, 49, 66, 215
312691493, -2788, 9740, 10031, 8071, 3795, 1660, -666, 1386, -1198, 307, 354, 503, 200, 71, 41, 49, 66, 215
312696521, -2788, 9740, 10031, 8071, 3795, 1660, -666, 1386, -1198, 307, 354, 503, 200, 71, 41, 49, 66, 215
312697260, -2788, 9740, 10031, 8071, 3795, 1660, -666, 1386, -1198, 307, 354, 503, 200, 71, 41, 49, 66, 215
312698107, -2788, 9740, 10031, 8071, 3795, 1660, -666, 1386, -1198, 307, 354, 503, 200, 71, 41, 49, 66, 215
312698906, -2788, 9740, 10031, 8071, 3795, 1660, -666, 1386, -1198, 307, 354, 503, 200, 71, 41, 49, 66, 215
312704055, -2788, 9740, 10031, 8071, 3795, 1660, -666, 1386, -1198, 307, 354, 503, 200, 71, 41, 49, 66, 215
312704959, -2929, 9778, 10156, 7816, 3978, 1685, -647, 1727, -781, 316, 354, 503, 200, 71, 41, 49, 66, 215
312705823, -2929, 9778, 10156, 7816, 3978, 1685, -647, 1727, -781, 316, 365, 459, 151, 52, 40, 58, 137, 222
312706582, -2929, 9778, 10156, 7816, 3978, 1685, -647, 1727, -781, 316, 365, 459, 151, 52, 40, 58, 137, 222
312711614, -2929, 9778, 10156, 7816, 3978, 1685, -647, 1727, -781, 316, 365, 459, 151, 52, 40, 58, 137, 222
312712486, -2929, 9778, 10156, 7816, 3978, 1685, -647, 1727, -781, 316, 365, 459, 151, 52, 40, 58, 137, 222
312713178, -2929, 9778, 10156, 7816, 3978, 1685, -647, 1727, -781, 316, 365, 459, 151, 52, 40, 58, 137, 222
312714045, -2929, 9778, 10156, 7816, 3978, 1685, -647, 1727, -781, 316, 365, 459, 151, 52, 40, 58, 137, 222
312719009, -2929, 9778, 10156, 7816, 3978, 1685, -647, 1727, -781, 316, 365, 459, 151, 52, 40, 58, 137, 222
312719818, -2929, 9778, 10156, 7816, 3978, 1685, -647, 1727, -781, 316, 365, 459, 151, 52, 40, 58, 137, 222
312720607, -2929, 9778, 10156, 7816, 3978, 1685, -647, 1727, -781, 316, 365, 459, 151, 52, 40, 58, 137, 222
312721497, -2929, 9778, 10156, 7816, 3978, 1685, -647, 1727, -781, 316, 365, 459, 151, 52, 40, 58, 137, 222
312726514, -2929, 9778, 10156, 7816, 3978, 1685, -647, 1727, -781, 316, 365, 459, 151, 52, 40, 58, 137, 222
312727486, -3138, 9737, 10297, 7598, 4067, 1792, -538, 1968, -249, 152, 365, 459, 151, 52, 40, 58, 137, 222
312728252, -3138, 9737, 10297, 7598, 4067, 1792, -538, 1968, -249, 152, 397, 383, 125, 49, 45, 69, 160, 211
312729032, -3138, 9737, 10297, 7598, 4067, 1792, -538, 1968, -249, 152, 397, 383, 125, 49, 45, 69, 160, 211
312734138, -3138, 9737, 10297, 7598, 4067, 1792, -538, 1968, -249, 152, 397, 383, 125, 49, 45, 69, 160, 211
312734875, -3138, 9737, 10297, 7598, 4067, 1792, -538, 1968, -249, 152, 397, 383, 125, 49, 45, 69, 160, 211
312735723, -3138, 9737, 10297, 7598, 4067, 1792, -538, 1968, -249, 152, 397, 383, 125, 49, 45, 69, 160, 211
312736507, -3138, 9737, 10297, 7598, 4067, 1792, -538, 1968, -249, 152, 397, 383, 125, 49, 45, 69, 160, 211
312741504, -3138, 9737, 10297, 7598, 4067, 1792, -538, 1968, -249, 152, 397, 383, 125, 49, 45, 69, 160, 211
312742295, -3138, 9737, 10297, 7598, 4067, 1792, -538, 1968, -249, 152, 397, 383, 125, 49, 45, 69, 160, 211
312743148, -3138, 9737, 10297, 7598, 4067, 1792, -538, 1968, -249, 152, 397, 383, 125, 49, 45, 69, 160, 211
312743934, -3138, 9737, 10297, 7598, 4067, 1792, -538, 1968, -249, 152, 397, 383, 125, 49, 45, 69, 160, 211
312748106, -3138, 9737, 10297, 7598, 4067, 1792, -538, 1968, -249, 152, 397, 383, 125, 49, 45, 69, 160, 211
312749010, -3360, 9609, 10457, 7446, 3856, 1962, -457, 1935, 219, -213, 397, 383, 125, 49, 45, 69, 160, 211
312749873, -3360, 9609, 10457, 7446, 3856, 1962, -457, 1935, 219, -213, 410, 274, 115, 51, 42, 71, 163, 241
312756583, -3360, 9609, 10457, 7446, 3856, 1962, -457, 1935, 219, -213, 410, 274, 115, 51, 42, 71, 163, 241
312757360, -3360, 9609, 10457, 7446, 3856, 1962, -457, 1935, 219, -213, 410, 274, 115, 51, 42, 71, 163, 241
312758200, -3360, 9609, 10457, 7446, 3856, 1962, -457, 1935, 219, -213, 410, 274, 115, 51, 42, 71, 163, 241
312759003, -3360, 9609, 10457, 7446, 3856, 1962, -457, 1935, 219, -213, 410, 274, 115, 51, 42, 71, 163, 241
312764015, -3360, 9609, 10457, 7446, 3856, 1962, -457, 1935, 219, -213, 410, 274, 115, 51, 42, 71, 163, 241
312764807, -3360, 9609, 10457, 7446, 3856, 1962, -457, 1935, 219, -213, 410, 274, 115, 51, 42, 71, 163, 241
312765632, -3360, 9609, 10457, 7446, 3856, 1962, -457, 1935, 219, -213, 410, 274, 115, 51, 42, 71, 163, 241
312766506, -3360, 9609, 10457, 7446, 3856, 1962, -457, 1935, 219, -213, 410, 274, 115, 51, 42, 71, 163, 241
312771634, -3592, 9356, 10553, 7524, 3677, 2073, -405, 1503, 798, -504, 410, 274, 115, 51, 42, 71, 163, 241
312772510, -3592, 9356, 10553, 7524, 3677, 2073, -405, 1503, 798, -504, 404, 337, 136, 62, 63, 103, 167, 273
312773260, -3592, 9356, 10553, 7524, 3677, 2073, -405, 1503, 798, -504, 404, 337, 136, 62, 63, 103, 167, 273
312774111, -3592, 9356, 10553, 7524, 3677, 2073, -405, 1503, 798, -504, 404, 337, 136, 62, 63, 103, 167, 273
312778957, -3592, 9356, 10553, 7524, 3677, 2073, -405, 1503, 798, -504, 404, 337, 136, 62, 63, 103, 167, 273
312779822, -3592, 9356, 10553, 7524, 3677, 2073, -405, 1503, 798, -504, 404, 337, 136, 62, 63, 103, 167, 273
312780630, -3592, 9356, 10553, 7524, 3677, 2073, -405, 1503, 798, -504, 404, 337, 136, 62, 63, 103, 167, 273
312781522, -3592, 9356, 10553, 7524, 3677, 2073, -405, 1503, 798, -504, 404, 337, 136, 62, 63, 103, 167, 273
312786494, -3592, 9356, 10553, 7524, 3677, 2073, -405, 1503, 798, -504, 404, 337, 136, 62, 63, 103, 167, 273
312787514, -3822, 9056, 10616, 7688, 3453, 1964, -448, 1080, 1371, -677, 404, 337, 136, 62, 63, 103, 167, 273
312788163, -3822, 9056, 10616, 7688, 3453, 1964, -448, 1080, 1371, -677, 411, 303, 138, 70, 73, 108, 174, 275
312789079, -3822, 9056, 10616, 7688, 3453, 1964, -448, 1080, 1371, -677, 411, 303, 138, 70, 73, 108, 174, 275
312794058, -3822, 9056, 10616, 7688, 3453, 1964, -448, 1080, 1371, -677, 411, 303, 138, 70, 73, 108, 174, 275
312794898, -3822, 9056, 10616, 7688, 3453, 1964, -448, 1080, 1371, -677, 411, 303, 138, 70, 73, 108, 174, 275
312795681, -3822, 9056, 10616, 7688, 3453, 1964, -448, 1080, 1371, -677, 411, 303, 138, 70, 73, 108, 174, 275
312796535, -3822, 9056, 10616, 7688, 3453, 1964, -448, 1080, 1371, -677, 411, 303, 138, 70, 73, 108, 174, 275
312801482, -3822, 9056, 10616, 7688, 3453, 1964, -448, 1080, 1371, -677, 411, 303, 138, 70, 73, 108, 174, 275
312802301, -3822, 9056, 10616, 7688, 3453, 1964, -448, 1080, 1371, -677, 411, 303, 138, 70, 73, 108, 174, 275
312803113, -3822, 9056, 10616, 7688, 3453, 1964, -448, 1080, 1371, -677, 411, 303, 138, 70, 73, 108, 174, 275
312803883, -3822, 9056, 10616, 7688, 3453, 1964, -448, 1080, 1371, -677, 411, 303, 138, 70, 73, 108, 174, 275
312809035, -3822, 9056, 10616, 7688, 3453, 1964, -448, 1080, 1371, -677, 411, 303, 138, 70, 73, 108, 174, 275
312809959, -4044, 8736, 10688, 7843, 3118, 1742, -322, 815, 1892, -963, 411, 303, 138, 70, 73, 108, 174, 275
312810786, -4044, 8736, 10688, 7843, 3118, 1742, -322, 815, 1892, -963, 421, 299, 149, 72, 74, 111, 154, 279
312811582, -4044, 8736, 10688, 7843, 3118, 1742, -322, 815, 1892, -963, 421, 299, 149, 72, 74, 111, 154, 279
312816587, -4044, 8736, 10688, 7843, 3118, 1742, -322, 815, 1892, -963, 421, 299, 149, 72, 74, 111, 154, 279
312817498, -4044, 8736, 10688, 7843, 3118, 1742, -322, 815, 1892, -963, 421, 299, 149, 72, 74, 111, 154, 279
312818161, -4044, 8736, 10688, 7843, 3118, 1742, -322, 815, 1892, -963, 421, 299, 149, 72, 74, 111, 154, 279
312819073, -4044, 8736, 10688, 7843, 3118, 1742, -322, 815, 1892, -963, 421, 299, 149, 72, 74, 111, 154, 279
312823983, -4044, 8736, 10688, 7843, 3118, 1742, -322, 815, 1892, -963, 421, 299, 149, 72, 74, 111, 154, 279
312824836, -4044, 8736, 10688, 7843, 3118, 1742, -322, 815, 1892, -963, 421, 299, 149, 72, 74, 111, 154, 279
312825629, -4044, 8736, 10688, 7843, 3118, 1742, -322, 815, 1892, -963, 421, 299, 149, 72, 74, 111, 154, 279
312826505, -4044, 8736, 10688, 7843, 3118, 1742, -322, 815, 1892, -963, 421, 299, 149, 72, 74, 111, 154, 279
312831482, -4044, 8736, 10688, 7843, 3118, 1742, -322, 815, 1892, -963, 421, 299, 149, 72, 74, 111, 154, 279
312832524, -4293, 8329, 10792, 8009, 2474, 1599, -305, 1045, 2249, -1308, 421, 299, 149, 72, 74, 111, 154, 279
312833238, -4293, 8329, 10792, 8009, 2474, 1599, -305, 1045, 2249, -1308, 397, 334, 161, 77, 72, 108, 165, 288
312834098, -4293, 8329, 10792, 8009, 2474, 1599, -305, 1045, 2249, -1308, 397, 334, 161, 77, 72, 108, 165, 288
312839083, -4293, 8329, 10792, 8009, 2474, 1599, -305, 1045, 2249, -1308, 397, 334, 161, 77, 72, 108, 165, 288
312839894, -4293, 8329, 10792, 8009, 2474, 1599, -305, 1045, 2249, -1308, 397, 334, 161, 77, 72, 108, 165, 288
312840707, -4293, 8329, 10792, 8009, 2474, 1599, -305, 1045, 2249, -1308, 397, 334, 161, 77, 72, 108, 165, 288
312841534, -4293, 8329, 10792, 8009, 2474, 1599, -305, 1045, 2249, -1308, 397, 334, 161, 77, 72, 108, 165, 288
312846557, -4293, 8329, 10792, 8009, 2474, 1599, -305, 1045, 2249, -1308, 397, 334, 161, 77, 72, 108, 165, 288
312847294, -4293, 8329, 10792, 8009, 2474, 1599, -305, 1045, 2249, -1308, 397, 334, 161, 77, 72, 108, 165, 288
312848112, -4293, 8329, 10792, 8009, 2474, 1599, -305, 1045, 2249, -1308, 397, 334, 161, 77, 72, 108, 165, 288
312848907, -4293, 8329, 10792, 8009, 2474, 1599, -305, 1045, 2249, -1308, 397, 334, 161, 77, 72, 108, 165, 288
312854006, -4293, 8329, 10792, 8009, 2474, 1599, -305, 1045, 2249, -1308, 397, 334, 161, 77, 72, 108, 165, 288
312854908, -4538, 7896, 10899, 8167, 1906, 1390, -299, 1091, 2327, -1405, 397, 334, 161, 77, 72, 108, 165, 288
312855772, -4538, 7896, 10899, 8167, 1906, 1390, -299, 1091, 2327, -1405, 420, 362, 185, 80, 74, 108, 173, 277
312856554, -4538, 7896, 10899, 8167, 1906, 1390, -299, 1091, 2327, -1405, 420, 362, 185, 80, 74, 108, 173, 277
312860747, -4538, 7896, 10899, 8167, 1906, 1390, -299, 1091, 2327, -1405, 420, 362, 185, 80, 74, 108, 173, 277
312861554, -4538, 7896, 10899, 8167, 1906, 1390, -299, 1091, 2327, -1405, 420, 362, 185, 80, 74, 108, 173, 277
312862376, -4538, 7896, 10899, 8167, 1906, 1390, -299, 1091, 2327, -1405, 420, 362, 185, 80, 74, 108, 173, 277
312868989, -4538, 7896, 10899, 8167, 1906, 1390, -299, 1091, 2327, -1405, 420, 362, 185, 80, 74, 108, 173, 277
312869815, -4538, 7896, 10899, 8167, 1906, 1390, -299, 1091, 2327, -1405, 420, 362, 185, 80, 74, 108, 173, 277
312870648, -4538, 7896, 10899, 8167, 1906, 1390, -299, 1091, 2327, -1405, 420, 362, 185, 80, 74, 108, 173, 277
312871487, -4538, 7896, 10899, 8167, 1906, 1390, -299, 1091, 2327, -1405, 420, 362, 185, 80, 74, 108, 173, 277
312876534, -4538, 7896, 10899, 8167, 1906, 1390, -299, 1091, 2327, -1405, 420, 362, 185, 80, 74, 108, 173, 277
312877309, -4538, 7896, 10899, 8167, 1906, 1390, -299, 1091, 2327, -1405, 420, 362, 185, 80, 74, 108, 173, 277
312878257, -4804, 7441, 11009, 8292, 1798, 1383, -269, 1309, 2378, -1389, 420, 362, 185, 80, 74, 108, 173, 277
312879080, -4804, 7441, 11009, 8292, 1798, 1383, -269, 1309, 2378, -1389, 420, 302, 167, 78, 65, 85, 177, 282
312884122, -4804, 7441, 11009, 8292, 1798, 1383, -269, 1309, 2378, -1389, 420, 302, 167, 78, 65, 85, 177, 282
312884907, -4804, 7441, 11009, 8292, 1798, 1383, -269, 1309, 2378, -1389, 420, 302, 167, 78, 65, 85, 177, 282
312885708, -4804, 7441, 11009, 8292, 1798, 1383, -269, 1309, 2378, -1389, 420, 302, 167, 78, 65, 85, 177, 282
312886558, -4804, 7441, 11009, 8292, 1798, 1383, -269, 1309, 2378, -1389, 420, 302, 167, 78, 65, 85, 177, 282
312891479, -4804, 7441, 11009, 8292, 1798, 1383, -269, 1309, 2378, -1389, 420, 302, 167, 78, 65, 85, 177, 282
312892311, -4804, 7441, 11009, 8292, 1798, 1383, -269, 1309, 2378, -1389, 420, 302, 167, 78, 65, 85, 177, 282
312893106, -4804, 7441, 11009, 8292, 1798, 1383, -269, 1309, 2378, -1389, 420, 302, 167, 78, 65, 85, 177, 282
312893929, -4804, 7441, 11009, 8292, 1798, 1383, -269, 1309, 2378, -1389, 420, 302, 167, 78, 65, 85, 177, 282
312898967, -4804, 7441, 11009, 8292, 1798, 1383, -269, 1309, 2378, -1389, 420, 302, 167, 78, 65, 85, 177, 282
312899938, -5011, 6980, 11129, 8410, 1367, 1496, -526, 1209, 2196, -1551, 420, 302, 167, 78, 65, 85, 177, 282
312900754, -5011, 6980, 11129, 8410, 1367, 1496, -526, 1209, 2196, -1551, 409, 300, 167, 80, 63, 79, 182, 267
312901587, -5011, 6980, 11129, 8410, 1367, 1496, -526, 1209, 2196, -1551, 409, 300, 167, 80, 63, 79, 182, 267
312905009, -5011, 6980, 11129, 8410, 1367, 1496, -526, 1209, 2196, -1551, 409, 300, 167, 80, 63, 79, 182, 267
312905809, -5011, 6980, 11129, 8410, 1367, 1496, -526, 1209, 2196, -1551, 409, 300, 167, 80, 63, 79, 182, 267
312913959, -5011, 6980, 11129, 8410, 1367, 1496, -526, 1209, 2196, -1551, 409, 300, 167, 80, 63, 79, 182, 267
312914757, -5011, 6980, 11129, 8410, 1367, 1496, -526, 1209, 2196, -1551, 409, 300, 167, 80, 63, 79, 182, 267
312915612, -5011, 6980, 11129, 8410, 1367, 1496, -526, 1209, 2196, -1551, 409, 300, 167, 80, 63, 79, 182, 267
312916407, -5011, 6980, 11129, 8410, 1367, 1496, -526, 1209, 2196, -1551, 409, 300, 167, 80, 63, 79, 182, 267
312919912, -5011, 6980, 11129, 8410, 1367, 1496, -526, 1209, 2196, -1551, 409, 300, 167, 80, 63, 79, 182, 267
312920744, -5011, 6980, 11129, 8410, 1367, 1496, -526, 1209, 2196, -1551, 409, 300, 167, 80, 63, 79, 182, 267
312929007, -5011, 6980, 11129, 8410, 1367, 1496, -526, 1209, 2196, -1551, 409, 300, 167, 80, 63, 79, 182, 267
312929987, -5156, 6606, 11186, 8548, 1022, 1337, -641, 631, 1893, -1292, 409, 300, 167, 80, 63, 79, 182, 267
312930757, -5156, 6606, 11186, 8548, 1022, 1337, -641, 631, 1893, -1292, 408, 303, 160, 81, 64, 98, 187, 274
312931600, -5156, 6606, 11186, 8548, 1022, 1337, -641, 631, 1893, -1292, 408, 303, 160, 81, 64, 98, 187, 274
312936605, -5156, 6606, 11186, 8548, 1022, 1337, -641, 631, 1893, -1292, 408, 303, 160, 81, 64, 98, 187, 274
312937482, -5156, 6606, 11186, 8548, 1022, 1337, -641, 631, 1893, -1292, 408, 303, 160, 81, 64, 98, 187, 274
312938200, -5156, 6606, 11186, 8548, 1022, 1337, -641, 631, 1893, -1292, 408, 303, 160, 81, 64, 98, 187, 274
312939081, -5156, 6606, 11186, 8548, 1022, 1337, -641, 631, 1893, -1292, 408, 303, 160, 81, 64, 98, 187, 274
312943988, -5156, 6606, 11186, 8548, 1022, 1337, -641, 631, 1893, -1292, 408, 303, 160, 81, 64, 98, 187, 274
312944824, -5156, 6606, 11186, 8548, 1022, 1337, -641, 631, 1893, -1292, 408, 303, 160, 81, 64, 98, 187, 274
312945628, -5156, 6606, 11186, 8548, 1022, 1337, -641, 631, 1893, -1292, 408, 303, 160, 81, 64, 98, 187, 274
312946527, -5156, 6606, 11186, 8548, 1022, 1337, -641, 631, 1893, -1292, 408, 303, 160, 81, 64, 98, 187, 274
312951528, -5156, 6606, 11186, 8548, 1022, 1337, -641, 631, 1893, -1292, 408, 303, 160, 81, 64, 98, 187, 274
312952484, -5346, 6303, 11197, 8645, 1048, 1132, -777, 611, 1866, -737, 408, 303, 160, 81, 64, 98, 187, 274
312953263, -5346, 6303, 11197, 8645, 1048, 1132, -777, 611, 1866, -737, 417, 303, 166, 84, 65, 101, 169, 285
312954056, -5346, 6303, 11197, 8645, 1048, 1132, -777, 611, 1866, -737, 417, 303, 166, 84, 65, 101, 169, 285
312959095, -5346, 6303, 11197, 8645, 1048, 1132, -777, 611, 1866, -737, 417, 303, 166, 84, 65, 101, 169, 285
312959882, -5346, 6303, 11197, 8645, 1048, 1132, -777, 611, 1866, -737, 417, 303, 166, 84, 65, 101, 169, 285
312960697, -5346, 6303, 11197, 8645, 1048, 1132, -777, 611, 1866, -737, 417, 303, 166, 84, 65, 101, 169, 285
312961482, -5346, 6303, 11197, 8645, 1048, 1132, -777, 611, 1866, -737, 417, 303, 166, 84, 65, 101, 169, 285
312966522, -5346, 6303, 11197, 8645, 1048, 1132, -777, 611, 1866, -737, 417, 303, 166, 84, 65, 101, 169, 285
312967309, -5346, 6303, 11197, 8645, 1048, 1132, -777, 611, 1866, -737, 417, 303, 166, 84, 65, 101, 169, 285
312968082, -5346, 6303, 11197, 8645, 1048, 1132, -777, 611, 1866, -737, 417, 303, 166, 84, 65, 101, 169, 285
312968946, -5346, 6303, 11197, 8645, 1048, 1132, -777, 611, 1866, -737, 417, 303, 166, 84, 65, 101, 169, 285
312973998, -5346, 6303, 11197, 8645, 1048, 1132, -777, 611, 1866, -737, 417, 303, 166, 84, 65, 101, 169, 285
312974933, -5551, 6024, 11203, 8706, 931, 1339, -1128, 706, 1832, -487, 417, 303, 166, 84, 65, 101, 169, 285
312975759, -5551, 6024, 11203, 8706, 931, 1339, -1128, 706, 1832, -487, 361, 288, 136, 80, 66, 126, 230, 277
312976531, -5551, 6024, 11203, 8706, 931, 1339, -1128, 706, 1832, -487, 361, 288, 136, 80, 66, 126, 230, 277
312981586, -5551, 6024, 11203, 8706, 931, 1339, -1128, 706, 1832, -487, 361, 288, 136, 80, 66, 126, 230, 277
312982381, -5551, 6024, 11203, 8706, 931, 1339, -1128, 706, 1832, -487, 361, 288, 136, 80, 66, 126, 230, 277
312983217, -5551, 6024, 11203, 8706, 931, 1339, -1128, 706, 1832, -487, 361, 288, 136, 80, 66, 126, 230, 277
312984004, -5551, 6024, 11203, 8706, 931, 1339, -1128, 706, 1832, -487, 361, 288, 136, 80, 66, 126, 230, 277
312988973, -5551, 6024, 11203, 8706, 931, 1339, -1128, 706, 1832, -487, 361, 288, 136, 80, 66, 126, 230, 277
312989786, -5551, 6024, 11203, 8706, 931, 1339, -1128, 706, 1832, -487, 361, 288, 136, 80, 66, 126, 230, 277
312990581, -5551, 6024, 11203, 8706, 931, 1339, -1128, 706, 1832, -487, 361, 288, 136, 80, 66, 126, 230, 277
312991389, -5551, 6024, 11203, 8706, 931, 1339, -1128, 706, 1832, -487, 361, 288, 136, 80, 66, 126, 230, 277
312996507, -5551, 6024, 11203, 8706, 931, 1339, -1128, 706, 1832, -487, 361, 288, 136, 80, 66, 126, 230, 277
312997499, -5646, 5777, 11270, 8726, 1089, 1648, -1298, 620, 1497, -356, 361, 288, 136, 80, 66, 126, 230, 277
312998284, -5646, 5777, 11270, 8726, 1089, 1648, -1298, 620, 1497, -356, 301, 282, 136, 78, 57, 129, 237, 260
312999105, -5646, 5777, 11270, 8726, 1089, 1648, -1298, 620, 1497, -356, 301, 282, 136, 78, 57, 129, 237, 260
313004106, -5646, 5777, 11270, 8726, 1089, 1648, -1298, 620, 1497, -356, 301, 282, 136, 78, 57, 129, 237, 260
313004937, -5646, 5777, 11270, 8726, 1089, 1648, -1298, 620, 1497, -356, 301, 282, 136, 78, 57, 129, 237, 260
313005709, -5646, 5777, 11270, 8726, 1089, 1648, -1298, 620, 1497, -356, 301, 282, 136, 78, 57, 129, 237, 260
313006532, -5646, 5777, 11270, 8726, 1089, 1648, -1298, 620, 1497, -356, 301, 282, 136, 78, 57, 129, 237, 260
313011500, -5646, 5777, 11270, 8726, 1089, 1648, -1298, 620, 1497, -356, 301, 282, 136, 78, 57, 129, 237, 260
313012285, -5646, 5777, 11270, 8726, 1089, 1648, -1298, 620, 1497, -356, 301, 282, 136, 78, 57, 129, 237, 260
313013148, -5646, 5777, 11270, 8726, 1089, 1648, -1298, 620, 1497, -356, 301, 282, 136, 78, 57, 129, 237, 260
313013929, -5646, 5777, 11270, 8726, 1089, 1648, -1298, 620, 1497, -356, 301, 282, 136, 78, 57, 129, 237, 260
313018994, -5646, 5777, 11270, 8726, 1089, 1648, -1298, 620, 1497, -356, 301, 282, 136, 78, 57, 129, 237, 260
313019934, -5694, 5600, 11320, 8745, 1229, 1797, -1401, 320, 1180, -175, 301, 282, 136, 78, 57, 129, 237, 260
313020774, -5694, 5600, 11320, 8745, 1229, 1797, -1401, 320, 1180, -175, 311, 351, 126, 68, 46, 137, 251, 242
313021556, -5694, 5600, 11320, 8745, 1229, 1797, -1401, 320, 1180, -175, 311, 351, 126, 68, 46, 137, 251, 242
313026565, -5694, 5600, 11320, 8745, 1229, 1797, -1401, 320, 1180, -175, 311, 351, 126, 68, 46, 137, 251, 242
313027417, -5694, 5600, 11320, 8745, 1229, 1797, -1401, 320, 1180, -175, 311, 351, 126, 68, 46, 137, 251, 242
313028183, -5694, 5600, 11320, 8745, 1229, 1797, -1401, 320, 1180, -175, 311, 351, 126, 68, 46, 137, 251, 242
313029014, -5694, 5600, 11320, 8745, 1229, 1797, -1401, 320, 1180, -175, 311, 351, 126, 68, 46, 137, 251, 242
313033957, -5694, 5600, 11320, 8745, 1229, 1797, -1401, 320, 1180, -175, 311, 351, 126, 68, 46, 137, 251, 242
313034783, -5694, 5600, 11320, 8745, 1229, 1797, -1401, 320, 1180, -175, 311, 351, 126, 68, 46, 137, 251, 242
313035582, -5694, 5600, 11320, 8745, 1229, 1797, -1401, 320, 1180, -175, 311, 351, 126, 68, 46, 137, 251, 242
313036408, -5694, 5600, 11320, 8745, 1229, 1797, -1401, 320, 1180, -175, 311, 351, 126, 68, 46, 137, 251, 242
313041481, -5694, 5600, 11320, 8745, 1229, 1797, -1401, 320, 1180, -175, 311, 351, 126, 68, 46, 137, 251, 242
313042526, -5692, 5479, 11340, 8797, 1370, 1925, -1467, -125, 955, -103, 311, 351, 126, 68, 46, 137, 251, 242
313043175, -5692, 5479, 11340, 8797, 1370, 1925, -1467, -125, 955, -103, 378, 371, 118, 69, 49, 118, 234, 350
313044055, -5692, 5479, 11340, 8797, 1370, 1925, -1467, -125, 955, -103, 378, 371, 118, 69, 49, 118, 234, 350
313049031, -5692, 5479, 11340, 8797, 1370, 1925, -1467, -125, 955, -103, 378, 371, 118, 69, 49, 118, 234, 350
313049878, -5692, 5479, 11340, 8797, 1370, 1925, -1467, -125, 955, -103, 378, 371, 118, 69, 49, 118, 234, 350
313050656, -5692, 5479, 11340, 8797, 1370, 1925, -1467, -125, 955, -103, 378, 371, 118, 69, 49, 118, 234, 350
313051505, -5692, 5479, 11340, 8797, 1370, 1925, -1467, -125, 955, -103, 378, 371, 118, 69, 49, 118, 234, 350
313056481, -5692, 5479, 11340, 8797, 1370, 1925, -1467, -125, 955, -103, 378, 371, 118, 69, 49, 118, 234, 350
313057337, -5692, 5479, 11340, 8797, 1370, 1925, -1467, -125, 955, -103, 378, 371, 118, 69, 49, 118, 234, 350
313058107, -5692, 5479, 11340, 8797, 1370, 1925, -1467, -125, 955, -103, 378, 371, 118, 69, 49, 118, 234, 350
313058972, -5692, 5479, 11340, 8797, 1370, 1925, -1467, -125, 955, -103, 378, 371, 118, 69, 49, 118, 234, 350
313064012, -5692, 5479, 11340, 8797, 1370, 1925, -1467, -125, 955, -103, 378, 371, 118, 69, 49, 118, 234, 350
313064956, -5657, 5404, 11341, 8865, 1378, 1827, -1503, -432, 776, -85, 378, 371, 118, 69, 49, 118, 234, 350
313065759, -5657, 5404, 11341, 8865, 1378, 1827, -1503, -432, 776, -85, 425, 400, 101, 65, 51, 116, 227, 401
313066559, -5657, 5404, 11341, 8865, 1378, 1827, -1503, -432, 776, -85, 425, 400, 101, 65, 51, 116, 227, 401
313071587, -5657, 5404, 11341, 8865, 1378, 1827, -1503, -432, 776, -85, 425, 400, 101, 65, 51, 116, 227, 401
313072421, -5657, 5404, 11341, 8865, 1378, 1827, -1503, -432, 776, -85, 425, 400, 101, 65, 51, 116, 227, 401
313073210, -5657, 5404, 11341, 8865, 1378, 1827, -1503, -432, 776, -85, 425, 400, 101, 65, 51, 116, 227, 401
313074009, -5657, 5404, 11341, 8865, 1378, 1827, -1503, -432, 776, -85, 425, 400, 101, 65, 51, 116, 227, 401
313078962, -5657, 5404, 11341, 8865, 1378, 1827, -1503, -432, 776, -85, 425, 400, 101, 65, 51, 116, 227, 401
313079790, -5657, 5404, 11341, 8865, 1378, 1827, -1503, -432, 776, -85, 425, 400, 101, 65, 51, 116, 227, 401
313080607, -5657, 5404, 11341, 8865, 1378, 1827, -1503, -432, 776, -85, 425, 400, 101, 65, 51, 116, 227, 401
313081523, -5657, 5404, 11341, 8865, 1378, 1827, -1503, -432, 776, -85, 425, 400, 101, 65, 51, 116, 227, 401
313086477, -5657, 5404, 11341, 8865, 1378, 1827, -1503, -432, 776, -85, 425, 400, 101, 65, 51, 116, 227, 401
313087463, -5601, 5362, 11338, 8930, 1358, 1690, -1455, -552, 575, -79, 425, 400, 101, 65, 51, 116, 227, 401
313088137, -5601, 5362, 11338, 8930, 1358, 1690, -1455, -552, 575, -79, 484, 391, 98, 64, 49, 90, 165, 436
313089028, -5601, 5362, 11338, 8930, 1358, 1690, -1455, -552, 575, -79, 484, 391, 98, 64, 49, 90, 165, 436
313094075, -5601, 5362, 11338, 8930, 1358, 1690, -1455, -552, 575, -79, 484, 391, 98, 64, 49, 90, 165, 436
313094857, -5601, 5362, 11338, 8930, 1358, 1690, -1455, -552, 575, -79, 484, 391, 98, 64, 49, 90, 165, 436
313095708, -5601, 5362, 11338, 8930, 1358, 1690, -1455, -552, 575, -79, 484, 391, 98, 64, 49, 90, 165, 436
313096529, -5601, 5362, 11338, 8930, 1358, 1690, -1455, -552, 575, -79, 484, 391, 98, 64, 49, 90, 165, 436
313101523, -5601, 5362, 11338, 8930, 1358, 1690, -1455, -552, 575, -79, 484, 391, 98, 64, 49, 90, 165, 436
313102255, -5601, 5362, 11338, 8930, 1358, 1690, -1455, -552, 575, -79, 484, 391, 98, 64, 49, 90, 165, 436
313103110, -5601, 5362, 11338, 8930, 1358, 1690, -1455, -552, 575, -79, 484, 391, 98, 64, 49, 90, 165, 436
313103881, -5601, 5362, 11338, 8930, 1358, 1690, -1455, -552, 575, -79, 484, 391, 98, 64, 49, 90, 165, 436
313109032, -5601, 5362, 11338, 8930, 1358, 1690, -1455, -552, 575, -79, 484, 391, 98, 64, 49, 90, 165, 436
313109958, -5529, 5337, 11341, 8986, 1391, 1741, -1375, -528, 392, -54, 484, 391, 98, 64, 49, 90, 165, 436
313110796, -5529, 5337, 11341, 8986, 1391, 1741, -1375, -528, 392, -54, 492, 410, 122, 73, 65, 120, 186, 443
313111604, -5529, 5337, 11341, 8986, 1391, 1741, -1375, -528, 392, -54, 492, 410, 122, 73, 65, 120, 186, 443
313116606, -5529, 5337, 11341, 8986, 1391, 1741, -1375, -528, 392, -54, 492, 410, 122, 73, 65, 120, 186, 443
313117503, -5529, 5337, 11341, 8986, 1391, 1741, -1375, -528, 392, -54, 492, 410, 122, 73, 65, 120, 186, 443
313118200, -5529, 5337, 11341, 8986, 1391, 1741, -1375, -528, 392, -54, 492, 410, 122, 73, 65, 120, 186, 443
313119032, -5529, 5337, 11341, 8986, 1391, 1741, -1375, -528, 392, -54, 492, 410, 122, 73, 65, 120, 186, 443
313124023, -5529, 5337, 11341, 8986, 1391, 1741, -1375, -528, 392, -54, 492, 410, 122, 73, 65, 120, 186, 443
313124808, -5529, 5337, 11341, 8986, 1391, 1741, -1375, -528, 392, -54, 492, 410, 122, 73, 65, 120, 186, 443
313125647, -5529, 5337, 11341, 8986, 1391, 1741, -1375, -528, 392, -54, 492, 410, 122, 73, 65, 120, 186, 443
313126504, -5529, 5337, 11341, 8986, 1391, 1741, -1375, -528, 392, -54, 492, 410, 122, 73, 65, 120, 186, 443
313131493, -5529, 5337, 11341, 8986, 1391, 1741, -1375, -528, 392, -54, 492, 410, 122, 73, 65, 120, 186, 443
313132485, -5456, 5310, 11369, 9010, 1479, 1784, -1302, -316, 238, -66, 492, 410, 122, 73, 65, 120, 186, 443
313133258, -5456, 5310, 11369, 9010, 1479, 1784, -1302, -316, 238, -66, 508, 373, 134, 90, 71, 113, 176, 460
313134057, -5456, 5310, 11369, 9010, 1479, 1784, -1302, -316, 238, -66, 508, 373, 134, 90, 71, 113, 176, 460
313136897, -5456, 5310, 11369, 9010, 1479, 1784, -1302, -316, 238, -66, 508, 373, 134, 90, 71, 113, 176, 460
313146487, -5456, 5310, 11369, 9010, 1479, 1784, -1302, -316, 238, -66, 508, 373, 134, 90, 71, 113, 176, 460
313147286, -5456, 5310, 11369, 9010, 1479, 1784, -1302, -316, 238, -66, 508, 373, 134, 90, 71, 113, 176, 460
313148082, -5456, 5310, 11369, 9010, 1479, 1784, -1302, -316, 238, -66, 508, 373, 134, 90, 71, 113, 176, 460
313148922, -5456, 5310, 11369, 9010, 1479, 1784, -1302, -316, 238, -66, 508, 373, 134, 90, 71, 113, 176, 460
313153956, -5456, 5310, 11369, 9010, 1479, 1784, -1302, -316, 238, -66, 508, 373, 134, 90, 71, 113, 176, 460
313154824, -5456, 5310, 11369, 9010, 1479, 1784, -1302, -316, 238, -66, 508, 373, 134, 90, 71, 113, 176, 460
313155579, -5456, 5310, 11369, 9010, 1479, 1784, -1302, -316, 238, -66, 508, 373, 134, 90, 71, 113, 176, 460
313156488, -5456, 5310, 11369, 9010, 1479, 1784, -1302, -316, 238, -66, 508, 373, 134, 90, 71, 113, 176, 460
313161604, -5456, 5310, 11369, 9010, 1479, 1784, -1302, -316, 238, -66, 444, 352, 128, 101, 81, 118, 215, 384
313162371, -5456, 5310, 11369, 9010, 1479, 1784, -1302, -316, 238, -66, 444, 352, 128, 101, 81, 118, 215, 384
313163184, -5456, 5310, 11369, 9010, 1479, 1784, -1302, -316, 238, -66, 444, 352, 128, 101, 81, 118, 215, 384
313164006, -5456, 5310, 11369, 9010, 1479, 1784, -1302, -316, 238, -66, 444, 352, 128, 101, 81, 118, 215, 384
313168981, -5456, 5310, 11369, 9010, 1479, 1784, -1302, -316, 238, -66, 444, 352, 128, 101, 81, 118, 215, 384
313169779, -5456, 5310, 11369, 9010, 1479, 1784, -1302, -316, 238, -66, 444, 352, 128, 101, 81, 118, 215, 384
313170674, -5456, 5310, 11369, 9010, 1479, 1784, -1302, -316, 238, -66, 444, 352, 128, 101, 81, 118, 215, 384
313171480, -5456, 5310, 11369, 9010, 1479, 1784, -1302, -316, 238, -66, 444, 352, 128, 101, 81, 118, 215, 384
313176521, -5456, 5310, 11369, 9010, 1479, 1784, -1302, -316, 238, -66, 444, 352, 128, 101, 81, 118, 215, 384
313177484, -5332, 5219, 11481, 8995, 1535, 2044, -1228, 61, 171, -31, 444, 352, 128, 101, 81, 118, 215, 384
313178213, -5332, 5219, 11481, 8995, 1535, 2044, -1228, 61, 171, -31, 372, 271, 119, 102, 81, 119, 227, 320
313179057, -5332, 5219, 11481, 8995, 1535, 2044, -1228, 61, 171, -31, 372, 271, 119, 102, 81, 119, 227, 320
313183197, -5332, 5219, 11481, 8995, 1535, 2044, -1228, 61, 171, -31, 372, 271, 119, 102, 81, 119, 227, 320
313183983, -5332, 5219, 11481, 8995, 1535, 2044, -1228, 61, 171, -31, 372, 271, 119, 102, 81, 119, 227, 320
313184822, -5332, 5219, 11481, 8995, 1535, 2044, -1228, 61, 171, -31, 372, 271, 119, 102, 81, 119, 227, 320
313191495, -5332, 5219, 11481, 8995, 1535, 2044, -1228, 61, 171, -31, 372, 271, 119, 102, 81, 119, 227, 320
313192306, -5332, 5219, 11481, 8995, 1535, 2044, -1228, 61, 171, -31, 372, 271, 119, 102, 81, 119, 227, 320
313193104, -5332, 5219, 11481, 8995, 1535, 2044, -1228, 61, 171, -31, 372, 271, 119, 102, 81, 119, 227, 320
313193922, -5332, 5219, 11481, 8995, 1535, 2044, -1228, 61, 171, -31, 372, 271, 119, 102, 81, 119, 227, 320
313198967, -5332, 5219, 11481, 8995, 1535, 2044, -1228, 61, 171, -31, 372, 271, 119, 102, 81, 119, 227, 320
313199791, -5332, 5219, 11481, 8995, 1535, 2044, -1228, 61, 171, -31, 372, 271, 119, 102, 81, 119, 227, 320
313200723, -5252, 5187, 11530, 9000, 1535, 2117, -1144, -89, 52, -16, 372, 271, 119, 102, 81, 119, 227, 320
313201546, -5252, 5187, 11530, 9000, 1535, 2117, -1144, -89, 52, -16, 296, 273, 133, 107, 90, 125, 229, 285
313206581, -5252, 5187, 11530, 9000, 1535, 2117, -1144, -89, 52, -16, 296, 273, 133, 107, 90, 125, 229, 285
313207340, -5252, 5187, 11530, 9000, 1535, 2117, -1144, -89, 52, -16, 296, 273, 133, 107, 90, 125, 229, 285
313208157, -5252, 5187, 11530, 9000, 1535, 2117, -1144, -89, 52, -16, 296, 273, 133, 107, 90, 125, 229, 285
313208967, -5252, 5187, 11530, 9000, 1535, 2117, -1144, -89, 52, -16, 296, 273, 133, 107, 90, 125, 229, 285
313214016, -5252, 5187, 11530, 9000, 1535, 2117, -1144, -89, 52, -16, 296, 273, 133, 107, 90, 125, 229, 285
313214820, -5252, 5187, 11530, 9000, 1535, 2117, -1144, -89, 52, -16, 296, 273, 133, 107, 90, 125, 229, 285
313215611, -5252, 5187, 11530, 9000, 1535, 2117, -1144, -89, 52, -16, 296, 273, 133, 107, 90, 125, 229, 285
313216485, -5252, 5187, 11530, 9000, 1535, 2117, -1144, -89, 52, -16, 296, 273, 133, 107, 90, 125, 229, 285
313221515, -5252, 5187, 11530, 9000, 1535, 2117, -1144, -89, 52, -16, 296, 273, 133, 107, 90, 125, 229, 285
313222488, -5163, 5173, 11559, 9022, 1621, 2150, -1081, -247, -25, 4, 296, 273, 133, 107, 90, 125, 229, 285
313223232, -5163, 5173, 11559, 9022, 1621, 2150, -1081, -247, -25, 4, 286, 245, 116, 98, 85, 92, 200, 289
313224044, -5163, 5173, 11559, 9022, 1621, 2150, -1081, -247, -25, 4, 286, 245, 116, 98, 85, 92, 200, 289
313229075, -5163, 5173, 11559, 9022, 1621, 2150, -1081, -247, -25, 4, 286, 245, 116, 98, 85, 92, 200, 289
313229908, -5163, 5173, 11559, 9022, 1621, 2150, -1081, -247, -25, 4, 286, 245, 116, 98, 85, 92, 200, 289
313230730, -5163, 5173, 11559, 9022, 1621, 2150, -1081, -247, -25, 4, 286, 245, 116, 98, 85, 92, 200, 289
313231538, -5163, 5173, 11559, 9022, 1621, 2150, -1081, -247, -25, 4, 286, 245, 116, 98, 85, 92, 200, 289
313236488, -5163, 5173, 11559, 9022, 1621, 2150, -1081, -247, -25, 4, 286, 245, 116, 98, 85, 92, 200, 289
313237285, -5163, 5173, 11559, 9022, 1621, 2150, -1081, -247, -25, 4, 286, 245, 116, 98, 85, 92, 200, 289
313238123, -5163, 5173, 11559, 9022, 1621, 2150, -1081, -247, -25, 4, 286, 245, 116, 98, 85, 92, 200, 289
313238928, -5163, 5173, 11559, 9022, 1621, 2150, -1081, -247, -25, 4, 286, 245, 116, 98, 85, 92, 200, 289
313243995, -5163, 5173, 11559, 9022, 1621, 2150, -1081, -247, -25, 4, 286, 245, 116, 98, 85, 92, 200, 289
313244922, -5081, 5165, 11576, 9051, 1628, 2028, -1056, -314, 6, -10, 286, 245, 116, 98, 85, 92, 200, 289
313245743, -5081, 5165, 11576, 9051, 1628, 2028, -1056, -314, 6, -10, 266, 209, 106, 87, 82, 90, 182, 283
313246531, -5081, 5165, 11576, 9051, 1628, 2028, -1056, -314, 6, -10, 266, 209, 106, 87, 82, 90, 182, 283
313251586, -5081, 5165, 11576, 9051, 1628, 2028, -1056, -314, 6, -10, 266, 209, 106, 87, 82, 90, 182, 283
313252374, -5081, 5165, 11576, 9051, 1628, 2028, -1056, -314, 6, -10, 266, 209, 106, 87, 82, 90, 182, 283
313253215, -5081, 5165, 11576, 9051, 1628, 2028, -1056, -314, 6, -10, 266, 209, 106, 87, 82, 90, 182, 283
313253982, -5081, 5165, 11576, 9051, 1628, 2028, -1056, -314, 6, -10, 266, 209, 106, 87, 82, 90, 182, 283
313258960, -5081, 5165, 11576, 9051, 1628, 2028, -1056, -314, 6, -10, 266, 209, 106, 87, 82, 90, 182, 283
313259757, -5081, 5165, 11576, 9051, 1628, 2028, -1056, -314, 6, -10, 266, 209, 106, 87, 82, 90, 182, 283
313260579, -5081, 5165, 11576, 9051, 1628, 2028, -1056, -314, 6, -10, 266, 209, 106, 87, 82, 90, 182, 283
313261385, -5081, 5165, 11576, 9051, 1628, 2028, -1056, -314, 6, -10, 266, 209, 106, 87, 82, 90, 182, 283
313266526, -5081, 5165, 11576, 9051, 1628, 2028, -1056, -314, 6, -10, 266, 209, 106, 87, 82, 90, 182, 283
313267486, -5023, 5141, 11608, 9056, 1652, 1957, -971, -82, 37, -34, 266, 209, 106, 87, 82, 90, 182, 283
313268263, -5023, 5141, 11608, 9056, 1652, 1957, -971, -82, 37, -34, 262, 222, 108, 78, 73, 82, 130, 271
313269079, -5023, 5141, 11608, 9056, 1652, 1957, -971, -82, 37, -34, 262, 222, 108, 78, 73, 82, 130, 271
313274109, -5023, 5141, 11608, 9056, 1652, 1957, -971, -82, 37, -34, 262, 222, 108, 78, 73, 82, 130, 271
313274907, -5023, 5141, 11608, 9056, 1652, 1957, -971, -82, 37, -34, 262, 222, 108, 78, 73, 82, 130, 271
313275728, -5023, 5141, 11608, 9056, 1652, 1957, -971, -82, 37, -34, 262, 222, 108, 78, 73, 82, 130, 271
313276531, -5023, 5141, 11608, 9056, 1652, 1957, -971, -82, 37, -34, 262, 222, 108, 78, 73, 82, 130, 271
313281483, -5023, 5141, 11608, 9056, 1652, 1957, -971, -82, 37, -34, 262, 222, 108, 78, 73, 82, 130, 271
313282308, -5023, 5141, 11608, 9056, 1652, 1957, -971, -82, 37, -34, 262, 222, 108, 78, 73, 82, 130, 271
313283106, -5023, 5141, 11608, 9056, 1652, 1957, -971, -82, 37, -34, 262, 222, 108, 78, 73, 82, 130, 271
313283946, -5023, 5141, 11608, 9056, 1652, 1957, -971, -82, 37, -34, 262, 222, 108, 78, 73, 82, 130, 271
313288981, -5023, 5141, 11608, 9056, 1652, 1957, -971, -82, 37, -34, 262, 222, 108, 78, 73, 82, 130, 271
313289934, -4984, 5105, 11667, 9022, 1633, 1924, -1001, 203, 39, -19, 262, 222, 108, 78, 73, 82, 130, 271
313290773, -4984, 5105, 11667, 9022, 1633, 1924, -1001, 203, 39, -19, 295, 235, 105, 72, 76, 79, 103, 271
313291552, -4984, 5105, 11667, 9022, 1633, 1924, -1001, 203, 39, -19, 295, 235, 105, 72, 76, 79, 103, 271
313296564, -4984, 5105, 11667, 9022, 1633, 1924, -1001, 203, 39, -19, 295, 235, 105, 72, 76, 79, 103, 271
313297415, -4984, 5105, 11667, 9022, 1633, 1924, -1001, 203, 39, -19, 295, 235, 105, 72, 76, 79, 103, 271
313298194, -4984, 5105, 11667, 9022, 1633, 1924, -1001, 203, 39, -19, 295, 235, 105, 72, 76, 79, 103, 271
313299034, -4984, 5105, 11667, 9022, 1633, 1924, -1001, 203, 39, -19, 295, 235, 105, 72, 76, 79, 103, 271
313303958, -4984, 5105, 11667, 9022, 1633, 1924, -1001, 203, 39, -19, 295, 235, 105, 72, 76, 79, 103, 271
313304786, -4984, 5105, 11667, 9022, 1633, 1924, -1001, 203, 39, -19, 295, 235, 105, 72, 76, 79, 103, 271
313305604, -4984, 5105, 11667, 9022, 1633, 1924, -1001, 203, 39, -19, 295, 235, 105, 72, 76, 79, 103, 271
313306415, -4984, 5105, 11667, 9022, 1633, 1924, -1001, 203, 39, -19, 295, 235, 105, 72, 76, 79, 103, 271
313311482, -4984, 5105, 11667, 9022, 1633, 1924, -1001, 203, 39, -19, 295, 235, 105, 72, 76, 79, 103, 271
313312525, -4935, 5066, 11737, 8980, 1628, 2050, -1057, 261, -17, -19, 295, 235, 105, 72, 76, 79, 103, 271
313313183, -4935, 5066, 11737, 8980, 1628, 2050, -1057, 261, -17, -19, 283, 259, 113, 67, 75, 67, 85, 248
313314060, -4935, 5066, 11737, 8980, 1628, 2050, -1057, 261, -17, -19, 283, 259, 113, 67, 75, 67, 85, 248
313319032, -4935, 5066, 11737, 8980, 1628, 2050, -1057, 261, -17, -19, 283, 259, 113, 67, 75, 67, 85, 248
313319877, -4935, 5066, 11737, 8980, 1628, 2050, -1057, 261, -17, -19, 283, 259, 113, 67, 75, 67, 85, 248
313320657, -4935, 5066, 11737, 8980, 1628, 2050, -1057, 261, -17, -19, 283, 259, 113, 67, 75, 67, 85, 248
313321522, -4935, 5066, 11737, 8980, 1628, 2050, -1057, 261, -17, -19, 283, 259, 113, 67, 75, 67, 85, 248
313326490, -4935, 5066, 11737, 8980, 1628, 2050, -1057, 261, -17, -19, 283, 259, 113, 67, 75, 67, 85, 248
313327268, -4935, 5066, 11737, 8980, 1628, 2050, -1057, 261, -17, -19, 283, 259, 113, 67, 75, 67, 85, 248
313328057, -4935, 5066, 11737, 8980, 1628, 2050, -1057, 261, -17, -19, 283, 259, 113, 67, 75, 67, 85, 248
313328892, -4935, 5066, 11737, 8980, 1628, 2050, -1057, 261, -17, -19, 283, 259, 113, 67, 75, 67, 85, 248
313334025, -4935, 5066, 11737, 8980, 1628, 2050, -1057, 261, -17, -19, 283, 259, 113, 67, 75, 67, 85, 248
313334956, -4869, 5050, 11795, 8949, 1601, 2073, -1121, 99, -94, 27, 283, 259, 113, 67, 75, 67, 85, 248
313335756, -4869, 5050, 11795, 8949, 1601, 2073, -1121, 99, -94, 27, 283, 259, 106, 74, 71, 60, 76, 223
313336584, -4869, 5050, 11795, 8949, 1601, 2073, -1121, 99, -94, 27, 283, 259, 106, 74, 71, 60, 76, 223
313341588, -4869, 5050, 11795, 8949, 1601, 2073, -1121, 99, -94, 27, 283, 259, 106, 74, 71, 60, 76, 223
313342386, -4869, 5050, 11795, 8949, 1601, 2073, -1121, 99, -94, 27, 283, 259, 106, 74, 71, 60, 76, 223
313343210, -4869, 5050, 11795, 8949, 1601, 2073, -1121, 99, -94, 27, 283, 259, 106, 74, 71, 60, 76, 223
313343997, -4869, 5050, 11795, 8949, 1601, 2073, -1121, 99, -94, 27, 283, 259, 106, 74, 71, 60, 76, 223
313348933, -4869, 5050, 11795, 8949, 1601, 2073, -1121, 99, -94, 27, 283, 259, 106, 74, 71, 60, 76, 223
313349756, -4869, 5050, 11795, 8949, 1601, 2073, -1121, 99, -94, 27, 283, 259, 106, 74, 71, 60, 76, 223
313350556, -4869, 5050, 11795, 8949, 1601, 2073, -1121, 99, -94, 27, 283, 259, 106, 74, 71, 60, 76, 223
313351456, -4869, 5050, 11795, 8949, 1601, 2073, -1121, 99, -94, 27, 283, 259, 106, 74, 71, 60, 76, 223
313356476, -4869, 5050, 11795, 8949, 1601, 2073, -1121, 99, -94, 27, 283, 259, 106, 74, 71, 60, 76, 223
313357460, -4781, 5064, 11845, 8923, 1511, 1940, -1152, -51, -239, 50, 283, 259, 106, 74, 71, 60, 76, 223
313358173, -4781, 5064, 11845, 8923, 1511, 1940, -1152, -51, -239, 50, 247, 269, 130, 75, 71, 52, 68, 196
313359028, -4781, 5064, 11845, 8923, 1511, 1940, -1152, -51, -239, 50, 247, 269, 130, 75, 71, 52, 68, 196
