Timestamp, Orientation x, Orientation y, Orientation z, Orientation w, Acceleration x, Acceleration y, Acceleration z, Rotation x, Rotation y, Rotation z, EMG 0, EMG 1, EMG 2, EMG 3, EMG 4, EMG 5, EMG 6, EMG 7
428772503, -1394, -12769, -9990, -1915, 284, 795, -2876, 55, 20, 34, 0, 0, 0, 0, 0, 0, 0, 0
428773319, -1380, -12774, -9986, -1916, 278, 822, -2864, 64, 24, 36, 0, 0, 0, 0, 0, 0, 0, 0
428786297, -1367, -12778, -9982, -1916, 275, 816, -2861, 54, 20, 34, 0, 0, 0, 0, 0, 0, 0, 0
428808811, -1360, -12781, -9979, -1921, 270, 814, -2879, 12, 29, 28, 0, 0, 0, 0, 0, 0, 0, 0
428823857, -1355, -12783, -9976, -1925, 252, 810, -2858, 4, 32, 20, 0, 0, 0, 0, 0, 0, 0, 0
428839440, -1355, -12783, -9976, -1925, 252, 810, -2858, 4, 32, 20, 254, 364, 141, 153, 119, 24, 31, 53
428840258, -1355, -12783, -9976, -1925, 252, 810, -2858, 4, 32, 20, 254, 364, 141, 153, 119, 24, 31, 53
428846394, -1349, -12783, -9976, -1929, 265, 793, -2845, 7, 28, 6, 254, 364, 141, 153, 119, 24, 31, 53
428861933, -1349, -12783, -9976, -1929, 265, 793, -2845, 7, 28, 6, 288, 377, 141, 157, 120, 25, 31, 54
428862743, -1349, -12783, -9976, -1929, 265, 793, -2845, 7, 28, 6, 288, 377, 141, 157, 120, 25, 31, 54
428868971, -1343, -12784, -9975, -1932, 265, 795, -2843, 10, 23, 5, 288, 377, 141, 157, 120, 25, 31, 54
428885595, -1343, -12784, -9975, -1932, 265, 795, -2843, 10, 23, 5, 272, 374, 143, 171, 123, 27, 31, 52
428886392, -1343, -12784, -9975, -1932, 265, 795, -2843, 10, 23, 5, 272, 374, 143, 171, 123, 27, 31, 52
428887327, -1337, -12784, -9975, -1936, 269, 813, -2858, 16, 24, 6, 272, 374, 143, 171, 123, 27, 31, 52
428899469, -1337, -12784, -9975, -1936, 269, 813, -2858, 16, 24, 6, 365, 357, 135, 157, 102, 28, 33, 54
428900271, -1337, -12784, -9975, -1936, 269, 813, -2858, 16, 24, 6, 365, 357, 135, 157, 102, 28, 33, 54
428906431, -1337, -12784, -9975, -1936, 269, 797, -2865, 11, 13, -5, 365, 357, 135, 157, 102, 28, 33, 54
428921962, -1337, -12784, -9975, -1936, 269, 797, -2865, 11, 13, -5, 365, 357, 143, 159, 101, 28, 31, 48
428922772, -1337, -12784, -9975, -1936, 269, 797, -2865, 11, 13, -5, 365, 357, 143, 159, 101, 28, 31, 48
428936396, -1336, -12784, -9975, -1936, 275, 795, -2847, -8, 14, -11, 365, 357, 143, 159, 101, 28, 31, 48
428945109, -1336, -12784, -9975, -1936, 275, 795, -2847, -8, 14, -11, 350, 318, 152, 149, 96, 29, 34, 52
428945932, -1336, -12784, -9975, -1936, 275, 795, -2847, -8, 14, -11, 350, 318, 152, 149, 96, 29, 34, 52
428946854, -1336, -12784, -9975, -1936, 269, 778, -2848, -4, 9, -16, 350, 318, 152, 149, 96, 29, 34, 52
428959333, -1336, -12784, -9975, -1936, 269, 778, -2848, -4, 9, -16, 376, 288, 160, 153, 95, 28, 33, 56
428966975, -1336, -12784, -9975, -1936, 269, 778, -2848, -4, 9, -16, 376, 288, 160, 153, 95, 28, 33, 56
428967912, -1333, -12783, -9977, -1938, 284, 779, -2837, -9, 1, -19, 376, 288, 160, 153, 95, 28, 33, 56
428981911, -1333, -12783, -9977, -1938, 284, 779, -2837, -9, 1, -19, 392, 382, 224, 152, 152, 37, 43, 85
428982754, -1333, -12783, -9977, -1938, 284, 779, -2837, -9, 1, -19, 392, 382, 224, 152, 152, 37, 43, 85
428988936, -1340, -12782, -9976, -1939, 278, 804, -2781, -24, -36, -5, 392, 382, 224, 152, 152, 37, 43, 85
429005595, -1340, -12782, -9976, -1939, 278, 804, -2781, -24, -36, -5, 354, 429, 449, 204, 267, 74, 62, 132
429006436, -1340, -12782, -9976, -1939, 278, 804, -2781, -24, -36, -5, 354, 429, 449, 204, 267, 74, 62, 132
429007395, -1365, -12786, -9964, -1958, 298, 820, -2788, -171, -41, 52, 354, 429, 449, 204, 267, 74, 62, 132
429019402, -1365, -12786, -9964, -1958, 298, 820, -2788, -171, -41, 52, 476, 474, 721, 234, 477, 128, 80, 141
429020260, -1365, -12786, -9964, -1958, 298, 820, -2788, -171, -41, 52, 476, 474, 721, 234, 477, 128, 80, 141
429026429, -1402, -12790, -9946, -1996, 260, 964, -2810, -230, 28, 89, 476, 474, 721, 234, 477, 128, 80, 141
429041969, -1402, -12790, -9946, -1996, 260, 964, -2810, -230, 28, 89, 622, 552, 903, 288, 554, 197, 110, 207
429042774, -1402, -12790, -9946, -1996, 260, 964, -2810, -230, 28, 89, 622, 552, 903, 288, 554, 197, 110, 207
429048926, -1453, -12798, -9919, -2045, 226, 858, -2656, -376, 32, 135, 622, 552, 903, 288, 554, 197, 110, 207
429065099, -1453, -12798, -9919, -2045, 226, 858, -2656, -376, 32, 135, 737, 699, 1131, 344, 733, 235, 123, 274
429065956, -1453, -12798, -9919, -2045, 226, 858, -2656, -376, 32, 135, 737, 699, 1131, 344, 733, 235, 123, 274
429066854, -1460, -12812, -9888, -2101, 216, 772, -2708, -268, 220, 207, 737, 699, 1131, 344, 733, 235, 123, 274
429079455, -1460, -12812, -9888, -2101, 216, 772, -2708, -268, 220, 207, 889, 711, 1286, 565, 905, 262, 143, 327
429080245, -1460, -12812, -9888, -2101, 216, 772, -2708, -268, 220, 207, 889, 711, 1286, 565, 905, 262, 143, 327
429086409, -1475, -12820, -9867, -2141, 223, 697, -2872, -323, 138, 132, 889, 711, 1286, 565, 905, 262, 143, 327
429101950, -1475, -12820, -9867, -2141, 223, 697, -2872, -323, 138, 132, 961, 806, 1391, 679, 1023, 298, 161, 343
429102755, -1475, -12820, -9867, -2141, 223, 697, -2872, -323, 138, 132, 961, 806, 1391, 679, 1023, 298, 161, 343
429108930, -1500, -12829, -9841, -2191, 343, 979, -3056, -290, 105, 147, 961, 806, 1391, 679, 1023, 298, 161, 343
429131756, -1500, -12829, -9841, -2191, 343, 979, -3056, -290, 105, 147, 1058, 850, 1343, 738, 989, 285, 167, 369
429141441, -1500, -12829, -9841, -2191, 343, 979, -3056, -290, 105, 147, 1058, 850, 1343, 738, 989, 285, 167, 369
429142352, -1513, -12853, -9792, -2260, 457, 1012, -3168, -330, 163, 301, 1058, 850, 1343, 738, 989, 285, 167, 369
429143191, -1513, -12853, -9792, -2260, 457, 1012, -3168, -330, 163, 301, 1039, 858, 1388, 776, 998, 259, 160, 356
429143981, -1513, -12853, -9792, -2260, 457, 1012, -3168, -330, 163, 301, 1039, 858, 1388, 776, 998, 259, 160, 356
429149004, -1513, -12853, -9792, -2260, 457, 1012, -3168, -330, 163, 301, 1039, 858, 1388, 776, 998, 259, 160, 356
429149781, -1513, -12853, -9792, -2260, 457, 1012, -3168, -330, 163, 301, 1039, 858, 1388, 776, 998, 259, 160, 356
429150611, -1513, -12853, -9792, -2260, 457, 1012, -3168, -330, 163, 301, 1039, 858, 1388, 776, 998, 259, 160, 356
429151428, -1513, -12853, -9792, -2260, 457, 1012, -3168, -330, 163, 301, 1039, 858, 1388, 776, 998, 259, 160, 356
429156403, -1513, -12853, -9792, -2260, 457, 1012, -3168, -330, 163, 301, 1039, 858, 1388, 776, 998, 259, 160, 356
429157233, -1513, -12853, -9792, -2260, 457, 1012, -3168, -330, 163, 301, 1039, 858, 1388, 776, 998, 259, 160, 356
429158009, -1513, -12853, -9792, -2260, 457, 1012, -3168, -330, 163, 301, 1039, 858, 1388, 776, 998, 259, 160, 356
429158868, -1513, -12853, -9792, -2260, 457, 1012, -3168, -330, 163, 301, 1039, 858, 1388, 776, 998, 259, 160, 356
429163974, -1513, -12853, -9792, -2260, 457, 1012, -3168, -330, 163, 301, 1039, 858, 1388, 776, 998, 259, 160, 356
429164896, -1467, -12881, -9750, -2309, 468, 898, -3089, -37, 274, 317, 1039, 858, 1388, 776, 998, 259, 160, 356
429165750, -1467, -12881, -9750, -2309, 468, 898, -3089, -37, 274, 317, 1054, 878, 1374, 865, 992, 261, 164, 365
429166523, -1467, -12881, -9750, -2309, 468, 898, -3089, -37, 274, 317, 1054, 878, 1374, 865, 992, 261, 164, 365
429171525, -1467, -12881, -9750, -2309, 468, 898, -3089, -37, 274, 317, 1054, 878, 1374, 865, 992, 261, 164, 365
429172325, -1467, -12881, -9750, -2309, 468, 898, -3089, -37, 274, 317, 1054, 878, 1374, 865, 992, 261, 164, 365
429173126, -1467, -12881, -9750, -2309, 468, 898, -3089, -37, 274, 317, 1054, 878, 1374, 865, 992, 261, 164, 365
429173956, -1467, -12881, -9750, -2309, 468, 898, -3089, -37, 274, 317, 1054, 878, 1374, 865, 992, 261, 164, 365
429178932, -1467, -12881, -9750, -2309, 468, 898, -3089, -37, 274, 317, 1054, 878, 1374, 865, 992, 261, 164, 365
429179772, -1467, -12881, -9750, -2309, 468, 898, -3089, -37, 274, 317, 1054, 878, 1374, 865, 992, 261, 164, 365
429180558, -1467, -12881, -9750, -2309, 468, 898, -3089, -37, 274, 317, 1054, 878, 1374, 865, 992, 261, 164, 365
429181369, -1467, -12881, -9750, -2309, 468, 898, -3089, -37, 274, 317, 1054, 878, 1374, 865, 992, 261, 164, 365
429186426, -1467, -12881, -9750, -2309, 468, 898, -3089, -37, 274, 317, 1054, 878, 1374, 865, 992, 261, 164, 365
429187418, -1386, -12909, -9728, -2291, 282, 863, -2879, 386, 202, 251, 1054, 878, 1374, 865, 992, 261, 164, 365
429188194, -1386, -12909, -9728, -2291, 282, 863, -2879, 386, 202, 251, 1059, 937, 1276, 928, 937, 254, 166, 337
429189050, -1386, -12909, -9728, -2291, 282, 863, -2879, 386, 202, 251, 1059, 937, 1276, 928, 937, 254, 166, 337
429194031, -1386, -12909, -9728, -2291, 282, 863, -2879, 386, 202, 251, 1059, 937, 1276, 928, 937, 254, 166, 337
429194854, -1386, -12909, -9728, -2291, 282, 863, -2879, 386, 202, 251, 1059, 937, 1276, 928, 937, 254, 166, 337
429195635, -1386, -12909, -9728, -2291, 282, 863, -2879, 386, 202, 251, 1059, 937, 1276, 928, 937, 254, 166, 337
429196494, -1386, -12909, -9728, -2291, 282, 863, -2879, 386, 202, 251, 1059, 937, 1276, 928, 937, 254, 166, 337
429201465, -1386, -12909, -9728, -2291, 282, 863, -2879, 386, 202, 251, 1059, 937, 1276, 928, 937, 254, 166, 337
429202204, -1386, -12909, -9728, -2291, 282, 863, -2879, 386, 202, 251, 1059, 937, 1276, 928, 937, 254, 166, 337
429203070, -1386, -12909, -9728, -2291, 282, 863, -2879, 386, 202, 251, 1059, 937, 1276, 928, 937, 254, 166, 337
429203842, -1386, -12909, -9728, -2291, 282, 863, -2879, 386, 202, 251, 1059, 937, 1276, 928, 937, 254, 166, 337
429208925, -1386, -12909, -9728, -2291, 282, 863, -2879, 386, 202, 251, 1059, 937, 1276, 928, 937, 254, 166, 337
429209881, -1364, -12932, -9704, -2281, 182, 1080, -2782, 235, 88, 240, 1059, 937, 1276, 928, 937, 254, 166, 337
429210661, -1364, -12932, -9704, -2281, 182, 1080, -2782, 235, 88, 240, 1016, 932, 1239, 862, 845, 221, 145, 325
429211473, -1364, -12932, -9704, -2281, 182, 1080, -2782, 235, 88, 240, 1016, 932, 1239, 862, 845, 221, 145, 325
429216479, -1364, -12932, -9704, -2281, 182, 1080, -2782, 235, 88, 240, 1016, 932, 1239, 862, 845, 221, 145, 325
429217339, -1364, -12932, -9704, -2281, 182, 1080, -2782, 235, 88, 240, 1016, 932, 1239, 862, 845, 221, 145, 325
429218115, -1364, -12932, -9704, -2281, 182, 1080, -2782, 235, 88, 240, 1016, 932, 1239, 862, 845, 221, 145, 325
429218942, -1364, -12932, -9704, -2281, 182, 1080, -2782, 235, 88, 240, 1016, 932, 1239, 862, 845, 221, 145, 325
429223940, -1364, -12932, -9704, -2281, 182, 1080, -2782, 235, 88, 240, 1016, 932, 1239, 862, 845, 221, 145, 325
429224745, -1364, -12932, -9704, -2281, 182, 1080, -2782, 235, 88, 240, 1016, 932, 1239, 862, 845, 221, 145, 325
429225606, -1364, -12932, -9704, -2281, 182, 1080, -2782, 235, 88, 240, 1016, 932, 1239, 862, 845, 221, 145, 325
429226375, -1364, -12932, -9704, -2281, 182, 1080, -2782, 235, 88, 240, 1016, 932, 1239, 862, 845, 221, 145, 325
429231480, -1364, -12932, -9704, -2281, 182, 1080, -2782, 235, 88, 240, 1016, 932, 1239, 862, 845, 221, 145, 325
429232377, -1391, -12955, -9664, -2301, 219, 1041, -2822, -128, 37, 271, 1016, 932, 1239, 862, 845, 221, 145, 325
429233185, -1391, -12955, -9664, -2301, 219, 1041, -2822, -128, 37, 271, 937, 974, 1254, 843, 940, 234, 147, 312
429233983, -1391, -12955, -9664, -2301, 219, 1041, -2822, -128, 37, 271, 937, 974, 1254, 843, 940, 234, 147, 312
429236824, -1391, -12955, -9664, -2301, 219, 1041, -2822, -128, 37, 271, 937, 974, 1254, 843, 940, 234, 147, 312
429246413, -1391, -12955, -9664, -2301, 219, 1041, -2822, -128, 37, 271, 937, 974, 1254, 843, 940, 234, 147, 312
429247229, -1391, -12955, -9664, -2301, 219, 1041, -2822, -128, 37, 271, 937, 974, 1254, 843, 940, 234, 147, 312
429248034, -1391, -12955, -9664, -2301, 219, 1041, -2822, -128, 37, 271, 937, 974, 1254, 843, 940, 234, 147, 312
429248894, -1391, -12955, -9664, -2301, 219, 1041, -2822, -128, 37, 271, 937, 974, 1254, 843, 940, 234, 147, 312
429253930, -1391, -12955, -9664, -2301, 219, 1041, -2822, -128, 37, 271, 937, 974, 1254, 843, 940, 234, 147, 312
429254784, -1391, -12955, -9664, -2301, 219, 1041, -2822, -128, 37, 271, 937, 974, 1254, 843, 940, 234, 147, 312
429255579, -1391, -12955, -9664, -2301, 219, 1041, -2822, -128, 37, 271, 937, 974, 1254, 843, 940, 234, 147, 312
429256403, -1391, -12955, -9664, -2301, 219, 1041, -2822, -128, 37, 271, 937, 974, 1254, 843, 940, 234, 147, 312
429261491, -1391, -12955, -9664, -2301, 219, 1041, -2822, -128, 37, 271, 976, 1028, 1191, 887, 1016, 238, 144, 343
429262289, -1391, -12955, -9664, -2301, 219, 1041, -2822, -128, 37, 271, 976, 1028, 1191, 887, 1016, 238, 144, 343
429263091, -1391, -12955, -9664, -2301, 219, 1041, -2822, -128, 37, 271, 976, 1028, 1191, 887, 1016, 238, 144, 343
429263945, -1391, -12955, -9664, -2301, 219, 1041, -2822, -128, 37, 271, 976, 1028, 1191, 887, 1016, 238, 144, 343
429268944, -1391, -12955, -9664, -2301, 219, 1041, -2822, -128, 37, 271, 976, 1028, 1191, 887, 1016, 238, 144, 343
429269746, -1391, -12955, -9664, -2301, 219, 1041, -2822, -128, 37, 271, 976, 1028, 1191, 887, 1016, 238, 144, 343
429270561, -1391, -12955, -9664, -2301, 219, 1041, -2822, -128, 37, 271, 976, 1028, 1191, 887, 1016, 238, 144, 343
429271367, -1391, -12955, -9664, -2301, 219, 1041, -2822, -128, 37, 271, 976, 1028, 1191, 887, 1016, 238, 144, 343
429274164, -1391, -12955, -9664, -2301, 219, 1041, -2822, -128, 37, 271, 976, 1028, 1191, 887, 1016, 238, 144, 343
429291588, -1437, -13012, -9577, -2313, 329, 835, -2817, -68, -81, 259, 976, 1028, 1191, 887, 1016, 238, 144, 343
429292375, -1437, -13012, -9577, -2313, 329, 835, -2817, -68, -81, 259, 1020, 1010, 1149, 858, 995, 235, 163, 356
429293231, -1437, -13012, -9577, -2313, 329, 835, -2817, -68, -81, 259, 1020, 1010, 1149, 858, 995, 235, 163, 356
429294007, -1437, -13012, -9577, -2313, 329, 835, -2817, -68, -81, 259, 1020, 1010, 1149, 858, 995, 235, 163, 356
429298931, -1437, -13012, -9577, -2313, 329, 835, -2817, -68, -81, 259, 1020, 1010, 1149, 858, 995, 235, 163, 356
429299727, -1437, -13012, -9577, -2313, 329, 835, -2817, -68, -81, 259, 1020, 1010, 1149, 858, 995, 235, 163, 356
429300558, -1437, -13012, -9577, -2313, 329, 835, -2817, -68, -81, 259, 1020, 1010, 1149, 858, 995, 235, 163, 356
429301333, -1437, -13012, -9577, -2313, 329, 835, -2817, -68, -81, 259, 1020, 1010, 1149, 858, 995, 235, 163, 356
429306416, -1437, -13012, -9577, -2313, 329, 835, -2817, -68, -81, 259, 1020, 1010, 1149, 858, 995, 235, 163, 356
429307363, -1436, -13040, -9546, -2289, 266, 949, -2735, 112, -98, 237, 1020, 1010, 1149, 858, 995, 235, 163, 356
429308167, -1436, -13040, -9546, -2289, 266, 949, -2735, 112, -98, 237, 985, 1008, 1268, 769, 958, 262, 182, 441
429309012, -1436, -13040, -9546, -2289, 266, 949, -2735, 112, -98, 237, 985, 1008, 1268, 769, 958, 262, 182, 441
429313983, -1436, -13040, -9546, -2289, 266, 949, -2735, 112, -98, 237, 985, 1008, 1268, 769, 958, 262, 182, 441
429314842, -1436, -13040, -9546, -2289, 266, 949, -2735, 112, -98, 237, 985, 1008, 1268, 769, 958, 262, 182, 441
429315631, -1436, -13040, -9546, -2289, 266, 949, -2735, 112, -98, 237, 985, 1008, 1268, 769, 958, 262, 182, 441
429316466, -1436, -13040, -9546, -2289, 266, 949, -2735, 112, -98, 237, 985, 1008, 1268, 769, 958, 262, 182, 441
429321437, -1436, -13040, -9546, -2289, 266, 949, -2735, 112, -98, 237, 985, 1008, 1268, 769, 958, 262, 182, 441
429322272, -1436, -13040, -9546, -2289, 266, 949, -2735, 112, -98, 237, 985, 1008, 1268, 769, 958, 262, 182, 441
429323060, -1436, -13040, -9546, -2289, 266, 949, -2735, 112, -98, 237, 985, 1008, 1268, 769, 958, 262, 182, 441
429323905, -1436, -13040, -9546, -2289, 266, 949, -2735, 112, -98, 237, 985, 1008, 1268, 769, 958, 262, 182, 441
429328943, -1436, -13040, -9546, -2289, 266, 949, -2735, 112, -98, 237, 985, 1008, 1268, 769, 958, 262, 182, 441
429329879, -1455, -13062, -9521, -2257, 253, 957, -2753, 56, -191, 171, 985, 1008, 1268, 769, 958, 262, 182, 441
429330743, -1455, -13062, -9521, -2257, 253, 957, -2753, 56, -191, 171, 1041, 1052, 1234, 814, 1094, 339, 223, 488
429331546, -1455, -13062, -9521, -2257, 253, 957, -2753, 56, -191, 171, 1041, 1052, 1234, 814, 1094, 339, 223, 488
429336512, -1455, -13062, -9521, -2257, 253, 957, -2753, 56, -191, 171, 1041, 1052, 1234, 814, 1094, 339, 223, 488
429337346, -1455, -13062, -9521, -2257, 253, 957, -2753, 56, -191, 171, 1041, 1052, 1234, 814, 1094, 339, 223, 488
429338183, -1455, -13062, -9521, -2257, 253, 957, -2753, 56, -191, 171, 1041, 1052, 1234, 814, 1094, 339, 223, 488
429338956, -1455, -13062, -9521, -2257, 253, 957, -2753, 56, -191, 171, 1041, 1052, 1234, 814, 1094, 339, 223, 488
429343931, -1455, -13062, -9521, -2257, 253, 957, -2753, 56, -191, 171, 1041, 1052, 1234, 814, 1094, 339, 223, 488
429344737, -1455, -13062, -9521, -2257, 253, 957, -2753, 56, -191, 171, 1041, 1052, 1234, 814, 1094, 339, 223, 488
429345561, -1455, -13062, -9521, -2257, 253, 957, -2753, 56, -191, 171, 1041, 1052, 1234, 814, 1094, 339, 223, 488
429346344, -1455, -13062, -9521, -2257, 253, 957, -2753, 56, -191, 171, 1041, 1052, 1234, 814, 1094, 339, 223, 488
429351411, -1455, -13062, -9521, -2257, 253, 957, -2753, 56, -191, 171, 1041, 1052, 1234, 814, 1094, 339, 223, 488
429352327, -1492, -13076, -9503, -2223, 207, 922, -2661, -28, -238, 100, 1041, 1052, 1234, 814, 1094, 339, 223, 488
429353141, -1492, -13076, -9503, -2223, 207, 922, -2661, -28, -238, 100, 1093, 1062, 1214, 968, 1057, 359, 244, 543
429353984, -1492, -13076, -9503, -2223, 207, 922, -2661, -28, -238, 100, 1093, 1062, 1214, 968, 1057, 359, 244, 543
429358984, -1492, -13076, -9503, -2223, 207, 922, -2661, -28, -238, 100, 1093, 1062, 1214, 968, 1057, 359, 244, 543
429359801, -1492, -13076, -9503, -2223, 207, 922, -2661, -28, -238, 100, 1093, 1062, 1214, 968, 1057, 359, 244, 543
429360677, -1492, -13076, -9503, -2223, 207, 922, -2661, -28, -238, 100, 1093, 1062, 1214, 968, 1057, 359, 244, 543
429361459, -1492, -13076, -9503, -2223, 207, 922, -2661, -28, -238, 100, 1093, 1062, 1214, 968, 1057, 359, 244, 543
429366442, -1492, -13076, -9503, -2223, 207, 922, -2661, -28, -238, 100, 1093, 1062, 1214, 968, 1057, 359, 244, 543
429367193, -1492, -13076, -9503, -2223, 207, 922, -2661, -28, -238, 100, 1093, 1062, 1214, 968, 1057, 359, 244, 543
429368031, -1492, -13076, -9503, -2223, 207, 922, -2661, -28, -238, 100, 1093, 1062, 1214, 968, 1057, 359, 244, 543
429368837, -1492, -13076, -9503, -2223, 207, 922, -2661, -28, -238, 100, 1093, 1062, 1214, 968, 1057, 359, 244, 543
429373982, -1492, -13076, -9503, -2223, 207, 922, -2661, -28, -238, 100, 1093, 1062, 1214, 968, 1057, 359, 244, 543
429374906, -1523, -13084, -9494, -2192, 333, 990, -2820, 8, -261, 32, 1093, 1062, 1214, 968, 1057, 359, 244, 543
429375783, -1523, -13084, -9494, -2192, 333, 990, -2820, 8, -261, 32, 1048, 1023, 1175, 938, 1225, 436, 291, 601
429376555, -1523, -13084, -9494, -2192, 333, 990, -2820, 8, -261, 32, 1048, 1023, 1175, 938, 1225, 436, 291, 601
429381568, -1523, -13084, -9494, -2192, 333, 990, -2820, 8, -261, 32, 1048, 1023, 1175, 938, 1225, 436, 291, 601
429382344, -1523, -13084, -9494, -2192, 333, 990, -2820, 8, -261, 32, 1048, 1023, 1175, 938, 1225, 436, 291, 601
429383207, -1523, -13084, -9494, -2192, 333, 990, -2820, 8, -261, 32, 1048, 1023, 1175, 938, 1225, 436, 291, 601
429383983, -1523, -13084, -9494, -2192, 333, 990, -2820, 8, -261, 32, 1048, 1023, 1175, 938, 1225, 436, 291, 601
429388957, -1523, -13084, -9494, -2192, 333, 990, -2820, 8, -261, 32, 1048, 1023, 1175, 938, 1225, 436, 291, 601
429389744, -1523, -13084, -9494, -2192, 333, 990, -2820, 8, -261, 32, 1048, 1023, 1175, 938, 1225, 436, 291, 601
429390600, -1523, -13084, -9494, -2192, 333, 990, -2820, 8, -261, 32, 1048, 1023, 1175, 938, 1225, 436, 291, 601
429391397, -1523, -13084, -9494, -2192, 333, 990, -2820, 8, -261, 32, 1048, 1023, 1175, 938, 1225, 436, 291, 601
429394196, -1523, -13084, -9494, -2192, 333, 990, -2820, 8, -261, 32, 1048, 1023, 1175, 938, 1225, 436, 291, 601
429404062, -1495, -13091, -9487, -2202, 461, 870, -2913, 61, 61, 54, 1048, 1023, 1175, 938, 1225, 436, 291, 601
429404893, -1495, -13091, -9487, -2202, 461, 870, -2913, 61, 61, 54, 1025, 986, 1271, 969, 1355, 507, 324, 666
429405743, -1495, -13091, -9487, -2202, 461, 870, -2913, 61, 61, 54, 1048, 1023, 1175, 938, 1225, 436, 291, 601
429406523, -1495, -13091, -9487, -2202, 461, 870, -2913, 61, 61, 54, 1025, 986, 1271, 969, 1355, 507, 324, 666
429411441, -1495, -13091, -9487, -2202, 461, 870, -2913, 61, 61, 54, 1025, 986, 1271, 969, 1355, 507, 324, 666
429412220, -1495, -13091, -9487, -2202, 461, 870, -2913, 61, 61, 54, 1025, 986, 1271, 969, 1355, 507, 324, 666
429413063, -1495, -13091, -9487, -2202, 461, 870, -2913, 61, 61, 54, 1025, 986, 1271, 969, 1355, 507, 324, 666
429413865, -1495, -13091, -9487, -2202, 461, 870, -2913, 61, 61, 54, 1025, 986, 1271, 969, 1355, 507, 324, 666
429418916, -1495, -13091, -9487, -2202, 461, 870, -2913, 61, 61, 54, 1025, 986, 1271, 969, 1355, 507, 324, 666
429419855, -1391, -13095, -9495, -2215, 481, 818, -3012, 371, 341, 36, 1025, 986, 1271, 969, 1355, 507, 324, 666
429420702, -1391, -13095, -9495, -2215, 481, 818, -3012, 371, 341, 36, 1028, 997, 1194, 945, 1424, 607, 353, 795
429421463, -1391, -13095, -9495, -2215, 481, 818, -3012, 371, 341, 36, 1028, 997, 1194, 945, 1424, 607, 353, 795
429426500, -1391, -13095, -9495, -2215, 481, 818, -3012, 371, 341, 36, 1028, 997, 1194, 945, 1424, 607, 353, 795
429427305, -1391, -13095, -9495, -2215, 481, 818, -3012, 371, 341, 36, 1028, 997, 1194, 945, 1424, 607, 353, 795
429428115, -1391, -13095, -9495, -2215, 481, 818, -3012, 371, 341, 36, 1028, 997, 1194, 945, 1424, 607, 353, 795
429428946, -1391, -13095, -9495, -2215, 481, 818, -3012, 371, 341, 36, 1028, 997, 1194, 945, 1424, 607, 353, 795
429433930, -1391, -13095, -9495, -2215, 481, 818, -3012, 371, 341, 36, 1028, 997, 1194, 945, 1424, 607, 353, 795
429434771, -1391, -13095, -9495, -2215, 481, 818, -3012, 371, 341, 36, 1028, 997, 1194, 945, 1424, 607, 353, 795
429435556, -1391, -13095, -9495, -2215, 481, 818, -3012, 371, 341, 36, 1028, 997, 1194, 945, 1424, 607, 353, 795
429436404, -1391, -13095, -9495, -2215, 481, 818, -3012, 371, 341, 36, 1028, 997, 1194, 945, 1424, 607, 353, 795
429441437, -1391, -13095, -9495, -2215, 481, 818, -3012, 371, 341, 36, 1028, 997, 1194, 945, 1424, 607, 353, 795
429442404, -1281, -13087, -9523, -2204, 358, 1001, -3011, 600, 341, -63, 1028, 997, 1194, 945, 1424, 607, 353, 795
429443193, -1281, -13087, -9523, -2204, 358, 1001, -3011, 600, 341, -63, 1076, 936, 1233, 968, 1348, 592, 342, 931
429443999, -1281, -13087, -9523, -2204, 358, 1001, -3011, 600, 341, -63, 1076, 936, 1233, 968, 1348, 592, 342, 931
429449021, -1281, -13087, -9523, -2204, 358, 1001, -3011, 600, 341, -63, 1076, 936, 1233, 968, 1348, 592, 342, 931
429449826, -1281, -13087, -9523, -2204, 358, 1001, -3011, 600, 341, -63, 1076, 936, 1233, 968, 1348, 592, 342, 931
429450661, -1281, -13087, -9523, -2204, 358, 1001, -3011, 600, 341, -63, 1076, 936, 1233, 968, 1348, 592, 342, 931
429451453, -1281, -13087, -9523, -2204, 358, 1001, -3011, 600, 341, -63, 1076, 936, 1233, 968, 1348, 592, 342, 931
429456401, -1281, -13087, -9523, -2204, 358, 1001, -3011, 600, 341, -63, 1076, 936, 1233, 968, 1348, 592, 342, 931
429457224, -1281, -13087, -9523, -2204, 358, 1001, -3011, 600, 341, -63, 1076, 936, 1233, 968, 1348, 592, 342, 931
429458030, -1281, -13087, -9523, -2204, 358, 1001, -3011, 600, 341, -63, 1076, 936, 1233, 968, 1348, 592, 342, 931
429458850, -1281, -13087, -9523, -2204, 358, 1001, -3011, 600, 341, -63, 1076, 936, 1233, 968, 1348, 592, 342, 931
429463941, -1281, -13087, -9523, -2204, 358, 1001, -3011, 600, 341, -63, 1076, 936, 1233, 968, 1348, 592, 342, 931
429464868, -1251, -13068, -9552, -2211, 226, 1010, -2948, 202, 244, -129, 1076, 936, 1233, 968, 1348, 592, 342, 931
429465766, -1251, -13068, -9552, -2211, 226, 1010, -2948, 202, 244, -129, 1002, 938, 1264, 945, 1392, 627, 332, 930
429466449, -1251, -13068, -9552, -2211, 226, 1010, -2948, 202, 244, -129, 1002, 938, 1264, 945, 1392, 627, 332, 930
429471505, -1251, -13068, -9552, -2211, 226, 1010, -2948, 202, 244, -129, 1002, 938, 1264, 945, 1392, 627, 332, 930
429472297, -1251, -13068, -9552, -2211, 226, 1010, -2948, 202, 244, -129, 1002, 938, 1264, 945, 1392, 627, 332, 930
429473149, -1251, -13068, -9552, -2211, 226, 1010, -2948, 202, 244, -129, 1002, 938, 1264, 945, 1392, 627, 332, 930
429473930, -1251, -13068, -9552, -2211, 226, 1010, -2948, 202, 244, -129, 1002, 938, 1264, 945, 1392, 627, 332, 930
429478918, -1251, -13068, -9552, -2211, 226, 1010, -2948, 202, 244, -129, 1002, 938, 1264, 945, 1392, 627, 332, 930
429479743, -1251, -13068, -9552, -2211, 226, 1010, -2948, 202, 244, -129, 1002, 938, 1264, 945, 1392, 627, 332, 930
429480547, -1251, -13068, -9552, -2211, 226, 1010, -2948, 202, 244, -129, 1002, 938, 1264, 945, 1392, 627, 332, 930
429481409, -1251, -13068, -9552, -2211, 226, 1010, -2948, 202, 244, -129, 1002, 938, 1264, 945, 1392, 627, 332, 930
429486463, -1251, -13068, -9552, -2211, 226, 1010, -2948, 202, 244, -129, 1002, 938, 1264, 945, 1392, 627, 332, 930
429487413, -1263, -13048, -9571, -2240, 311, 789, -2854, -174, 150, -140, 1002, 938, 1264, 945, 1392, 627, 332, 930
429488221, -1263, -13048, -9571, -2240, 311, 789, -2854, -174, 150, -140, 1032, 942, 1371, 1026, 1292, 672, 330, 945
429489012, -1263, -13048, -9571, -2240, 311, 789, -2854, -174, 150, -140, 1032, 942, 1371, 1026, 1292, 672, 330, 945
429494010, -1263, -13048, -9571, -2240, 311, 789, -2854, -174, 150, -140, 1032, 942, 1371, 1026, 1292, 672, 330, 945
429494826, -1263, -13048, -9571, -2240, 311, 789, -2854, -174, 150, -140, 1032, 942, 1371, 1026, 1292, 672, 330, 945
429495635, -1263, -13048, -9571, -2240, 311, 789, -2854, -174, 150, -140, 1032, 942, 1371, 1026, 1292, 672, 330, 945
429496453, -1263, -13048, -9571, -2240, 311, 789, -2854, -174, 150, -140, 1032, 942, 1371, 1026, 1292, 672, 330, 945
429501404, -1263, -13048, -9571, -2240, 311, 789, -2854, -174, 150, -140, 1032, 942, 1371, 1026, 1292, 672, 330, 945
429502235, -1263, -13048, -9571, -2240, 311, 789, -2854, -174, 150, -140, 1032, 942, 1371, 1026, 1292, 672, 330, 945
429503034, -1263, -13048, -9571, -2240, 311, 789, -2854, -174, 150, -140, 1032, 942, 1371, 1026, 1292, 672, 330, 945
429503852, -1263, -13048, -9571, -2240, 311, 789, -2854, -174, 150, -140, 1032, 942, 1371, 1026, 1292, 672, 330, 945
429508934, -1263, -13048, -9571, -2240, 311, 789, -2854, -174, 150, -140, 1032, 942, 1371, 1026, 1292, 672, 330, 945
429509878, -1251, -13030, -9593, -2253, 371, 626, -2894, -101, 134, -155, 1032, 942, 1371, 1026, 1292, 672, 330, 945
429510770, -1251, -13030, -9593, -2253, 371, 626, -2894, -101, 134, -155, 984, 935, 1280, 1014, 1308, 669, 304, 950
429511530, -1251, -13030, -9593, -2253, 371, 626, -2894, -101, 134, -155, 984, 935, 1280, 1014, 1308, 669, 304, 950
429516546, -1251, -13030, -9593, -2253, 371, 626, -2894, -101, 134, -155, 984, 935, 1280, 1014, 1308, 669, 304, 950
429517334, -1251, -13030, -9593, -2253, 371, 626, -2894, -101, 134, -155, 984, 935, 1280, 1014, 1308, 669, 304, 950
429518183, -1251, -13030, -9593, -2253, 371, 626, -2894, -101, 134, -155, 984, 935, 1280, 1014, 1308, 669, 304, 950
429518956, -1251, -13030, -9593, -2253, 371, 626, -2894, -101, 134, -155, 984, 935, 1280, 1014, 1308, 669, 304, 950
429523945, -1251, -13030, -9593, -2253, 371, 626, -2894, -101, 134, -155, 984, 935, 1280, 1014, 1308, 669, 304, 950
429524765, -1251, -13030, -9593, -2253, 371, 626, -2894, -101, 134, -155, 984, 935, 1280, 1014, 1308, 669, 304, 950
429525538, -1251, -13030, -9593, -2253, 371, 626, -2894, -101, 134, -155, 984, 935, 1280, 1014, 1308, 669, 304, 950
429526350, -1251, -13030, -9593, -2253, 371, 626, -2894, -101, 134, -155, 984, 935, 1280, 1014, 1308, 669, 304, 950
429531408, -1251, -13030, -9593, -2253, 371, 626, -2894, -101, 134, -155, 984, 935, 1280, 1014, 1308, 669, 304, 950
429532352, -1208, -13018, -9617, -2248, 398, 746, -2924, 161, 137, -120, 984, 935, 1280, 1014, 1308, 669, 304, 950
429533195, -1208, -13018, -9617, -2248, 398, 746, -2924, 161, 137, -120, 964, 911, 1275, 1053, 1377, 580, 268, 903
429533967, -1208, -13018, -9617, -2248, 398, 746, -2924, 161, 137, -120, 964, 911, 1275, 1053, 1377, 580, 268, 903
429539002, -1208, -13018, -9617, -2248, 398, 746, -2924, 161, 137, -120, 964, 911, 1275, 1053, 1377, 580, 268, 903
429539801, -1208, -13018, -9617, -2248, 398, 746, -2924, 161, 137, -120, 964, 911, 1275, 1053, 1377, 580, 268, 903
429540651, -1208, -13018, -9617, -2248, 398, 746, -2924, 161, 137, -120, 964, 911, 1275, 1053, 1377, 580, 268, 903
429541437, -1208, -13018, -9617, -2248, 398, 746, -2924, 161, 137, -120, 964, 911, 1275, 1053, 1377, 580, 268, 903
429546402, -1208, -13018, -9617, -2248, 398, 746, -2924, 161, 137, -120, 964, 911, 1275, 1053, 1377, 580, 268, 903
429547193, -1208, -13018, -9617, -2248, 398, 746, -2924, 161, 137, -120, 964, 911, 1275, 1053, 1377, 580, 268, 903
429548007, -1208, -13018, -9617, -2248, 398, 746, -2924, 161, 137, -120, 964, 911, 1275, 1053, 1377, 580, 268, 903
429548915, -1208, -13018, -9617, -2248, 398, 746, -2924, 161, 137, -120, 964, 911, 1275, 1053, 1377, 580, 268, 903
429561482, -1208, -13018, -9617, -2248, 398, 746, -2924, 161, 137, -120, 964, 911, 1275, 1053, 1377, 580, 268, 903
429562401, -1184, -13007, -9637, -2238, 349, 952, -2968, 201, 79, -97, 964, 911, 1275, 1053, 1377, 580, 268, 903
429563194, -1184, -13007, -9637, -2238, 349, 952, -2968, 201, 79, -97, 892, 890, 1240, 1046, 1441, 604, 276, 751
429563981, -1184, -13007, -9637, -2238, 349, 952, -2968, 201, 79, -97, 892, 890, 1240, 1046, 1441, 604, 276, 751
429569018, -1184, -13007, -9637, -2238, 349, 952, -2968, 201, 79, -97, 892, 890, 1240, 1046, 1441, 604, 276, 751
429569826, -1184, -13007, -9637, -2238, 349, 952, -2968, 201, 79, -97, 892, 890, 1240, 1046, 1441, 604, 276, 751
429570675, -1184, -13007, -9637, -2238, 349, 952, -2968, 201, 79, -97, 892, 890, 1240, 1046, 1441, 604, 276, 751
429571475, -1184, -13007, -9637, -2238, 349, 952, -2968, 201, 79, -97, 892, 890, 1240, 1046, 1441, 604, 276, 751
429576442, -1184, -13007, -9637, -2238, 349, 952, -2968, 201, 79, -97, 892, 890, 1240, 1046, 1441, 604, 276, 751
429577225, -1184, -13007, -9637, -2238, 349, 952, -2968, 201, 79, -97, 892, 890, 1240, 1046, 1441, 604, 276, 751
429578050, -1184, -13007, -9637, -2238, 349, 952, -2968, 201, 79, -97, 892, 890, 1240, 1046, 1441, 604, 276, 751
429578848, -1184, -13007, -9637, -2238, 349, 952, -2968, 201, 79, -97, 892, 890, 1240, 1046, 1441, 604, 276, 751
429583911, -1184, -13007, -9637, -2238, 349, 952, -2968, 201, 79, -97, 892, 890, 1240, 1046, 1441, 604, 276, 751
429584838, -1186, -12994, -9654, -2238, 351, 954, -2961, 49, 43, -103, 892, 890, 1240, 1046, 1441, 604, 276, 751
429585676, -1186, -12994, -9654, -2238, 351, 954, -2961, 49, 43, -103, 913, 809, 1214, 965, 1446, 600, 281, 799
429586479, -1186, -12994, -9654, -2238, 351, 954, -2961, 49, 43, -103, 913, 809, 1214, 965, 1446, 600, 281, 799
429591481, -1186, -12994, -9654, -2238, 351, 954, -2961, 49, 43, -103, 913, 809, 1214, 965, 1446, 600, 281, 799
429592301, -1186, -12994, -9654, -2238, 351, 954, -2961, 49, 43, -103, 913, 809, 1214, 965, 1446, 600, 281, 799
429593142, -1186, -12994, -9654, -2238, 351, 954, -2961, 49, 43, -103, 913, 809, 1214, 965, 1446, 600, 281, 799
429593931, -1186, -12994, -9654, -2238, 351, 954, -2961, 49, 43, -103, 913, 809, 1214, 965, 1446, 600, 281, 799
429598952, -1186, -12994, -9654, -2238, 351, 954, -2961, 49, 43, -103, 913, 809, 1214, 965, 1446, 600, 281, 799
429599743, -1186, -12994, -9654, -2238, 351, 954, -2961, 49, 43, -103, 913, 809, 1214, 965, 1446, 600, 281, 799
429600548, -1186, -12994, -9654, -2238, 351, 954, -2961, 49, 43, -103, 913, 809, 1214, 965, 1446, 600, 281, 799
429601334, -1186, -12994, -9654, -2238, 351, 954, -2961, 49, 43, -103, 913, 809, 1214, 965, 1446, 600, 281, 799
429606418, -1186, -12994, -9654, -2238, 351, 954, -2961, 49, 43, -103, 913, 809, 1214, 965, 1446, 600, 281, 799
429607364, -1187, -12982, -9669, -2246, 376, 917, -2964, 7, 66, -96, 913, 809, 1214, 965, 1446, 600, 281, 799
429608167, -1187, -12982, -9669, -2246, 376, 917, -2964, 7, 66, -96, 856, 801, 1138, 948, 1462, 531, 281, 753
429608960, -1187, -12982, -9669, -2246, 376, 917, -2964, 7, 66, -96, 856, 801, 1138, 948, 1462, 531, 281, 753
429614042, -1187, -12982, -9669, -2246, 376, 917, -2964, 7, 66, -96, 856, 801, 1138, 948, 1462, 531, 281, 753
429614828, -1187, -12982, -9669, -2246, 376, 917, -2964, 7, 66, -96, 856, 801, 1138, 948, 1462, 531, 281, 753
429615663, -1187, -12982, -9669, -2246, 376, 917, -2964, 7, 66, -96, 856, 801, 1138, 948, 1462, 531, 281, 753
429616454, -1187, -12982, -9669, -2246, 376, 917, -2964, 7, 66, -96, 856, 801, 1138, 948, 1462, 531, 281, 753
429621393, -1187, -12982, -9669, -2246, 376, 917, -2964, 7, 66, -96, 856, 801, 1138, 948, 1462, 531, 281, 753
429622194, -1187, -12982, -9669, -2246, 376, 917, -2964, 7, 66, -96, 856, 801, 1138, 948, 1462, 531, 281, 753
429623002, -1187, -12982, -9669, -2246, 376, 917, -2964, 7, 66, -96, 856, 801, 1138, 948, 1462, 531, 281, 753
429623819, -1187, -12982, -9669, -2246, 376, 917, -2964, 7, 66, -96, 856, 801, 1138, 948, 1462, 531, 281, 753
429628915, -1187, -12982, -9669, -2246, 376, 917, -2964, 7, 66, -96, 856, 801, 1138, 948, 1462, 531, 281, 753
429629881, -1184, -12969, -9685, -2247, 348, 918, -2945, 51, 56, -98, 856, 801, 1138, 948, 1462, 531, 281, 753
429630675, -1184, -12969, -9685, -2247, 348, 918, -2945, 51, 56, -98, 812, 788, 1137, 901, 1318, 462, 268, 692
429631506, -1184, -12969, -9685, -2247, 348, 918, -2945, 51, 56, -98, 812, 788, 1137, 901, 1318, 462, 268, 692
429636479, -1184, -12969, -9685, -2247, 348, 918, -2945, 51, 56, -98, 812, 788, 1137, 901, 1318, 462, 268, 692
429637316, -1184, -12969, -9685, -2247, 348, 918, -2945, 51, 56, -98, 812, 788, 1137, 901, 1318, 462, 268, 692
429638141, -1184, -12969, -9685, -2247, 348, 918, -2945, 51, 56, -98, 812, 788, 1137, 901, 1318, 462, 268, 692
429638930, -1184, -12969, -9685, -2247, 348, 918, -2945, 51, 56, -98, 812, 788, 1137, 901, 1318, 462, 268, 692
429651456, -1184, -12969, -9685, -2247, 348, 918, -2945, 51, 56, -98, 812, 788, 1137, 901, 1318, 462, 268, 692
429652246, -1184, -12969, -9685, -2247, 348, 918, -2945, 51, 56, -98, 812, 788, 1137, 901, 1318, 462, 268, 692
429653089, -1184, -12969, -9685, -2247, 348, 918, -2945, 51, 56, -98, 812, 788, 1137, 901, 1318, 462, 268, 692
429653879, -1184, -12969, -9685, -2247, 348, 918, -2945, 51, 56, -98, 812, 788, 1137, 901, 1318, 462, 268, 692
429658922, -1184, -12969, -9685, -2247, 348, 918, -2945, 51, 56, -98, 812, 788, 1137, 901, 1318, 462, 268, 692
429659855, -1187, -12955, -9705, -2243, 335, 949, -2954, 59, 31, -123, 812, 788, 1137, 901, 1318, 462, 268, 692
429660717, -1187, -12955, -9705, -2243, 335, 949, -2954, 59, 31, -123, 741, 698, 1106, 874, 1162, 456, 255, 552
429661519, -1187, -12955, -9705, -2243, 335, 949, -2954, 59, 31, -123, 741, 698, 1106, 874, 1162, 456, 255, 552
429666547, -1187, -12955, -9705, -2243, 335, 949, -2954, 59, 31, -123, 741, 698, 1106, 874, 1162, 456, 255, 552
429667325, -1187, -12955, -9705, -2243, 335, 949, -2954, 59, 31, -123, 741, 698, 1106, 874, 1162, 456, 255, 552
429668144, -1187, -12955, -9705, -2243, 335, 949, -2954, 59, 31, -123, 741, 698, 1106, 874, 1162, 456, 255, 552
429668945, -1187, -12955, -9705, -2243, 335, 949, -2954, 59, 31, -123, 741, 698, 1106, 874, 1162, 456, 255, 552
429673919, -1187, -12955, -9705, -2243, 335, 949, -2954, 59, 31, -123, 741, 698, 1106, 874, 1162, 456, 255, 552
429674743, -1187, -12955, -9705, -2243, 335, 949, -2954, 59, 31, -123, 741, 698, 1106, 874, 1162, 456, 255, 552
429675553, -1187, -12955, -9705, -2243, 335, 949, -2954, 59, 31, -123, 741, 698, 1106, 874, 1162, 456, 255, 552
429676348, -1187, -12955, -9705, -2243, 335, 949, -2954, 59, 31, -123, 741, 698, 1106, 874, 1162, 456, 255, 552
429688986, -1187, -12955, -9705, -2243, 335, 949, -2954, 59, 31, -123, 741, 698, 1106, 874, 1162, 456, 255, 552
429689887, -1189, -12937, -9732, -2232, 332, 944, -2981, 79, 8, -168, 741, 698, 1106, 874, 1162, 456, 255, 552
429690743, -1189, -12937, -9732, -2232, 332, 944, -2981, 79, 8, -168, 650, 643, 1003, 864, 1052, 405, 243, 523
429691533, -1189, -12937, -9732, -2232, 332, 944, -2981, 79, 8, -168, 650, 643, 1003, 864, 1052, 405, 243, 523
429696531, -1189, -12937, -9732, -2232, 332, 944, -2981, 79, 8, -168, 650, 643, 1003, 864, 1052, 405, 243, 523
429697375, -1189, -12937, -9732, -2232, 332, 944, -2981, 79, 8, -168, 650, 643, 1003, 864, 1052, 405, 243, 523
429698164, -1189, -12937, -9732, -2232, 332, 944, -2981, 79, 8, -168, 650, 643, 1003, 864, 1052, 405, 243, 523
429698984, -1189, -12937, -9732, -2232, 332, 944, -2981, 79, 8, -168, 650, 643, 1003, 864, 1052, 405, 243, 523
429703904, -1189, -12937, -9732, -2232, 332, 944, -2981, 79, 8, -168, 650, 643, 1003, 864, 1052, 405, 243, 523
429704770, -1189, -12937, -9732, -2232, 332, 944, -2981, 79, 8, -168, 650, 643, 1003, 864, 1052, 405, 243, 523
429705552, -1189, -12937, -9732, -2232, 332, 944, -2981, 79, 8, -168, 650, 643, 1003, 864, 1052, 405, 243, 523
429706371, -1189, -12937, -9732, -2232, 332, 944, -2981, 79, 8, -168, 650, 643, 1003, 864, 1052, 405, 243, 523
429711452, -1189, -12937, -9732, -2232, 332, 944, -2981, 79, 8, -168, 650, 643, 1003, 864, 1052, 405, 243, 523
429712371, -1208, -12921, -9756, -2209, 310, 931, -2950, 47, -104, -166, 650, 643, 1003, 864, 1052, 405, 243, 523
429713170, -1208, -12921, -9756, -2209, 310, 931, -2950, 47, -104, -166, 655, 650, 974, 859, 956, 327, 229, 392
429713984, -1208, -12921, -9756, -2209, 310, 931, -2950, 47, -104, -166, 655, 650, 974, 859, 956, 327, 229, 392
429716779, -1208, -12921, -9756, -2209, 310, 931, -2950, 47, -104, -166, 655, 650, 974, 859, 956, 327, 229, 392
429726137, -1208, -12921, -9756, -2209, 310, 931, -2950, 47, -104, -166, 655, 650, 974, 859, 956, 327, 229, 392
429726953, -1208, -12921, -9756, -2209, 310, 931, -2950, 47, -104, -166, 655, 650, 974, 859, 956, 327, 229, 392
429727782, -1208, -12921, -9756, -2209, 310, 931, -2950, 47, -104, -166, 655, 650, 974, 859, 956, 327, 229, 392
429728568, -1208, -12921, -9756, -2209, 310, 931, -2950, 47, -104, -166, 655, 650, 974, 859, 956, 327, 229, 392
429733929, -1208, -12921, -9756, -2209, 310, 931, -2950, 47, -104, -166, 655, 650, 974, 859, 956, 327, 229, 392
429734713, -1208, -12921, -9756, -2209, 310, 931, -2950, 47, -104, -166, 655, 650, 974, 859, 956, 327, 229, 392
429735500, -1208, -12921, -9756, -2209, 310, 931, -2950, 47, -104, -166, 655, 650, 974, 859, 956, 327, 229, 392
429736441, -1208, -12921, -9756, -2209, 310, 931, -2950, 47, -104, -166, 795, 663, 839, 929, 822, 285, 176, 325
429741528, -1208, -12921, -9756, -2209, 310, 931, -2950, 47, -104, -166, 795, 663, 839, 929, 822, 285, 176, 325
429742313, -1208, -12921, -9756, -2209, 310, 931, -2950, 47, -104, -166, 795, 663, 839, 929, 822, 285, 176, 325
429743129, -1208, -12921, -9756, -2209, 310, 931, -2950, 47, -104, -166, 795, 663, 839, 929, 822, 285, 176, 325
429743945, -1208, -12921, -9756, -2209, 310, 931, -2950, 47, -104, -166, 795, 663, 839, 929, 822, 285, 176, 325
429748966, -1208, -12921, -9756, -2209, 310, 931, -2950, 47, -104, -166, 795, 663, 839, 929, 822, 285, 176, 325
429749729, -1208, -12921, -9756, -2209, 310, 931, -2950, 47, -104, -166, 795, 663, 839, 929, 822, 285, 176, 325
429750512, -1208, -12921, -9756, -2209, 310, 931, -2950, 47, -104, -166, 795, 663, 839, 929, 822, 285, 176, 325
429751344, -1208, -12921, -9756, -2209, 310, 931, -2950, 47, -104, -166, 795, 663, 839, 929, 822, 285, 176, 325
429756443, -1208, -12921, -9756, -2209, 310, 931, -2950, 47, -104, -166, 795, 663, 839, 929, 822, 285, 176, 325
429757342, -1347, -12892, -9814, -2032, 178, 840, -2831, -27, -730, -307, 795, 663, 839, 929, 822, 285, 176, 325
429758173, -1347, -12892, -9814, -2032, 178, 840, -2831, -27, -730, -307, 801, 637, 655, 1016, 768, 312, 169, 242
429758988, -1347, -12892, -9814, -2032, 178, 840, -2831, -27, -730, -307, 801, 637, 655, 1016, 768, 312, 169, 242
429764020, -1347, -12892, -9814, -2032, 178, 840, -2831, -27, -730, -307, 801, 637, 655, 1016, 768, 312, 169, 242
429764834, -1347, -12892, -9814, -2032, 178, 840, -2831, -27, -730, -307, 801, 637, 655, 1016, 768, 312, 169, 242
429765632, -1347, -12892, -9814, -2032, 178, 840, -2831, -27, -730, -307, 801, 637, 655, 1016, 768, 312, 169, 242
429766427, -1347, -12892, -9814, -2032, 178, 840, -2831, -27, -730, -307, 801, 637, 655, 1016, 768, 312, 169, 242
429771416, -1347, -12892, -9814, -2032, 178, 840, -2831, -27, -730, -307, 801, 637, 655, 1016, 768, 312, 169, 242
429772216, -1347, -12892, -9814, -2032, 178, 840, -2831, -27, -730, -307, 801, 637, 655, 1016, 768, 312, 169, 242
429773045, -1347, -12892, -9814, -2032, 178, 840, -2831, -27, -730, -307, 801, 637, 655, 1016, 768, 312, 169, 242
429773826, -1347, -12892, -9814, -2032, 178, 840, -2831, -27, -730, -307, 801, 637, 655, 1016, 768, 312, 169, 242
429778933, -1347, -12892, -9814, -2032, 178, 840, -2831, -27, -730, -307, 801, 637, 655, 1016, 768, 312, 169, 242
429779830, -1474, -12863, -9848, -1962, 334, 867, -2925, -318, -749, -377, 801, 637, 655, 1016, 768, 312, 169, 242
429780649, -1474, -12863, -9848, -1962, 334, 867, -2925, -318, -749, -377, 888, 682, 587, 1104, 763, 313, 176, 232
429781462, -1474, -12863, -9848, -1962, 334, 867, -2925, -318, -749, -377, 888, 682, 587, 1104, 763, 313, 176, 232
429786511, -1474, -12863, -9848, -1962, 334, 867, -2925, -318, -749, -377, 888, 682, 587, 1104, 763, 313, 176, 232
429787266, -1474, -12863, -9848, -1962, 334, 867, -2925, -318, -749, -377, 888, 682, 587, 1104, 763, 313, 176, 232
429788078, -1474, -12863, -9848, -1962, 334, 867, -2925, -318, -749, -377, 888, 682, 587, 1104, 763, 313, 176, 232
429788891, -1474, -12863, -9848, -1962, 334, 867, -2925, -318, -749, -377, 888, 682, 587, 1104, 763, 313, 176, 232
429793920, -1474, -12863, -9848, -1962, 334, 867, -2925, -318, -749, -377, 888, 682, 587, 1104, 763, 313, 176, 232
429794787, -1474, -12863, -9848, -1962, 334, 867, -2925, -318, -749, -377, 888, 682, 587, 1104, 763, 313, 176, 232
429795559, -1474, -12863, -9848, -1962, 334, 867, -2925, -318, -749, -377, 888, 682, 587, 1104, 763, 313, 176, 232
429796418, -1474, -12863, -9848, -1962, 334, 867, -2925, -318, -749, -377, 888, 682, 587, 1104, 763, 313, 176, 232
429801459, -1474, -12863, -9848, -1962, 334, 867, -2925, -318, -749, -377, 888, 682, 587, 1104, 763, 313, 176, 232
429802406, -1547, -12824, -9883, -1986, 533, 955, -3137, -408, -247, -375, 888, 682, 587, 1104, 763, 313, 176, 232
429803193, -1547, -12824, -9883, -1986, 533, 955, -3137, -408, -247, -375, 911, 767, 596, 1140, 772, 312, 170, 246
429804000, -1547, -12824, -9883, -1986, 533, 955, -3137, -408, -247, -375, 911, 767, 596, 1140, 772, 312, 170, 246
429809002, -1547, -12824, -9883, -1986, 533, 955, -3137, -408, -247, -375, 911, 767, 596, 1140, 772, 312, 170, 246
429809839, -1547, -12824, -9883, -1986, 533, 955, -3137, -408, -247, -375, 911, 767, 596, 1140, 772, 312, 170, 246
429810636, -1547, -12824, -9883, -1986, 533, 955, -3137, -408, -247, -375, 911, 767, 596, 1140, 772, 312, 170, 246
429811465, -1547, -12824, -9883, -1986, 533, 955, -3137, -408, -247, -375, 911, 767, 596, 1140, 772, 312, 170, 246
429816403, -1547, -12824, -9883, -1986, 533, 955, -3137, -408, -247, -375, 911, 767, 596, 1140, 772, 312, 170, 246
429817233, -1547, -12824, -9883, -1986, 533, 955, -3137, -408, -247, -375, 911, 767, 596, 1140, 772, 312, 170, 246
429818036, -1547, -12824, -9883, -1986, 533, 955, -3137, -408, -247, -375, 911, 767, 596, 1140, 772, 312, 170, 246
429818863, -1547, -12824, -9883, -1986, 533, 955, -3137, -408, -247, -375, 911, 767, 596, 1140, 772, 312, 170, 246
429823906, -1547, -12824, -9883, -1986, 533, 955, -3137, -408, -247, -375, 911, 767, 596, 1140, 772, 312, 170, 246
429824867, -1540, -12768, -9939, -2067, 481, 1013, -3209, -231, 339, -419, 911, 767, 596, 1140, 772, 312, 170, 246
429825742, -1540, -12768, -9939, -2067, 481, 1013, -3209, -231, 339, -419, 971, 780, 482, 1191, 721, 345, 169, 237
429826425, -1540, -12768, -9939, -2067, 481, 1013, -3209, -231, 339, -419, 971, 780, 482, 1191, 721, 345, 169, 237
429838997, -1540, -12768, -9939, -2067, 481, 1013, -3209, -231, 339, -419, 971, 780, 482, 1191, 721, 345, 169, 237
429839800, -1540, -12768, -9939, -2067, 481, 1013, -3209, -231, 339, -419, 971, 780, 482, 1191, 721, 345, 169, 237
429840650, -1540, -12768, -9939, -2067, 481, 1013, -3209, -231, 339, -419, 971, 780, 482, 1191, 721, 345, 169, 237
429841437, -1540, -12768, -9939, -2067, 481, 1013, -3209, -231, 339, -419, 971, 780, 482, 1191, 721, 345, 169, 237
429846391, -1540, -12768, -9939, -2067, 481, 1013, -3209, -231, 339, -419, 971, 780, 482, 1191, 721, 345, 169, 237
429847178, -1540, -12768, -9939, -2067, 481, 1013, -3209, -231, 339, -419, 971, 780, 482, 1191, 721, 345, 169, 237
429847984, -1540, -12768, -9939, -2067, 481, 1013, -3209, -231, 339, -419, 971, 780, 482, 1191, 721, 345, 169, 237
429848785, -1540, -12768, -9939, -2067, 481, 1013, -3209, -231, 339, -419, 971, 780, 482, 1191, 721, 345, 169, 237
429853997, -1540, -12768, -9939, -2067, 481, 1013, -3209, -231, 339, -419, 941, 727, 496, 1087, 619, 311, 162, 249
429854801, -1540, -12768, -9939, -2067, 481, 1013, -3209, -231, 339, -419, 941, 727, 496, 1087, 619, 311, 162, 249
429855619, -1540, -12768, -9939, -2067, 481, 1013, -3209, -231, 339, -419, 941, 727, 496, 1087, 619, 311, 162, 249
429856429, -1540, -12768, -9939, -2067, 481, 1013, -3209, -231, 339, -419, 941, 727, 496, 1087, 619, 311, 162, 249
429861378, -1540, -12768, -9939, -2067, 481, 1013, -3209, -231, 339, -419, 941, 727, 496, 1087, 619, 311, 162, 249
429862168, -1540, -12768, -9939, -2067, 481, 1013, -3209, -231, 339, -419, 941, 727, 496, 1087, 619, 311, 162, 249
429862982, -1540, -12768, -9939, -2067, 481, 1013, -3209, -231, 339, -419, 941, 727, 496, 1087, 619, 311, 162, 249
429863800, -1540, -12768, -9939, -2067, 481, 1013, -3209, -231, 339, -419, 941, 727, 496, 1087, 619, 311, 162, 249
429868884, -1540, -12768, -9939, -2067, 481, 1013, -3209, -231, 339, -419, 941, 727, 496, 1087, 619, 311, 162, 249
429869818, -1360, -12735, -10012, -2046, 294, 773, -2944, 581, 199, -48, 941, 727, 496, 1087, 619, 311, 162, 249
429870609, -1360, -12735, -10012, -2046, 294, 773, -2944, 581, 199, -48, 919, 726, 537, 1072, 595, 282, 149, 244
429871449, -1360, -12735, -10012, -2046, 294, 773, -2944, 581, 199, -48, 941, 727, 496, 1087, 619, 311, 162, 249
429876495, -1360, -12735, -10012, -2046, 294, 773, -2944, 581, 199, -48, 919, 726, 537, 1072, 595, 282, 149, 244
429877285, -1360, -12735, -10012, -2046, 294, 773, -2944, 581, 199, -48, 919, 726, 537, 1072, 595, 282, 149, 244
429878086, -1360, -12735, -10012, -2046, 294, 773, -2944, 581, 199, -48, 919, 726, 537, 1072, 595, 282, 149, 244
429878916, -1360, -12735, -10012, -2046, 294, 773, -2944, 581, 199, -48, 919, 726, 537, 1072, 595, 282, 149, 244
429883932, -1360, -12735, -10012, -2046, 294, 773, -2944, 581, 199, -48, 919, 726, 537, 1072, 595, 282, 149, 244
429884754, -1360, -12735, -10012, -2046, 294, 773, -2944, 581, 199, -48, 919, 726, 537, 1072, 595, 282, 149, 244
429885550, -1360, -12735, -10012, -2046, 294, 773, -2944, 581, 199, -48, 919, 726, 537, 1072, 595, 282, 149, 244
429886414, -1360, -12735, -10012, -2046, 294, 773, -2944, 581, 199, -48, 919, 726, 537, 1072, 595, 282, 149, 244
429891427, -1360, -12735, -10012, -2046, 294, 773, -2944, 581, 199, -48, 919, 726, 537, 1072, 595, 282, 149, 244
429892386, -1238, -12761, -10006, -1989, 307, 767, -2748, 736, 129, 172, 919, 726, 537, 1072, 595, 282, 149, 244
429893218, -1238, -12761, -10006, -1989, 307, 767, -2748, 736, 129, 172, 857, 694, 482, 1013, 527, 246, 134, 254
429894008, -1238, -12761, -10006, -1989, 307, 767, -2748, 736, 129, 172, 857, 694, 482, 1013, 527, 246, 134, 254
429899037, -1238, -12761, -10006, -1989, 307, 767, -2748, 736, 129, 172, 857, 694, 482, 1013, 527, 246, 134, 254
429899826, -1238, -12761, -10006, -1989, 307, 767, -2748, 736, 129, 172, 857, 694, 482, 1013, 527, 246, 134, 254
429900661, -1238, -12761, -10006, -1989, 307, 767, -2748, 736, 129, 172, 857, 694, 482, 1013, 527, 246, 134, 254
429901465, -1238, -12761, -10006, -1989, 307, 767, -2748, 736, 129, 172, 857, 694, 482, 1013, 527, 246, 134, 254
429906406, -1238, -12761, -10006, -1989, 307, 767, -2748, 736, 129, 172, 857, 694, 482, 1013, 527, 246, 134, 254
429907242, -1238, -12761, -10006, -1989, 307, 767, -2748, 736, 129, 172, 857, 694, 482, 1013, 527, 246, 134, 254
429908046, -1238, -12761, -10006, -1989, 307, 767, -2748, 736, 129, 172, 857, 694, 482, 1013, 527, 246, 134, 254
429908837, -1238, -12761, -10006, -1989, 307, 767, -2748, 736, 129, 172, 857, 694, 482, 1013, 527, 246, 134, 254
429913928, -1238, -12761, -10006, -1989, 307, 767, -2748, 736, 129, 172, 857, 694, 482, 1013, 527, 246, 134, 254
429914855, -1157, -12787, -9996, -1922, 225, 639, -2727, 544, -11, 163, 857, 694, 482, 1013, 527, 246, 134, 254
429915688, -1157, -12787, -9996, -1922, 225, 639, -2727, 544, -11, 163, 833, 613, 479, 954, 419, 203, 111, 245
429916471, -1157, -12787, -9996, -1922, 225, 639, -2727, 544, -11, 163, 833, 613, 479, 954, 419, 203, 111, 245
429921504, -1157, -12787, -9996, -1922, 225, 639, -2727, 544, -11, 163, 833, 613, 479, 954, 419, 203, 111, 245
429922298, -1157, -12787, -9996, -1922, 225, 639, -2727, 544, -11, 163, 833, 613, 479, 954, 419, 203, 111, 245
429923142, -1157, -12787, -9996, -1922, 225, 639, -2727, 544, -11, 163, 833, 613, 479, 954, 419, 203, 111, 245
429923931, -1157, -12787, -9996, -1922, 225, 639, -2727, 544, -11, 163, 833, 613, 479, 954, 419, 203, 111, 245
429928907, -1157, -12787, -9996, -1922, 225, 639, -2727, 544, -11, 163, 833, 613, 479, 954, 419, 203, 111, 245
429929743, -1157, -12787, -9996, -1922, 225, 639, -2727, 544, -11, 163, 833, 613, 479, 954, 419, 203, 111, 245
429930532, -1157, -12787, -9996, -1922, 225, 639, -2727, 544, -11, 163, 833, 613, 479, 954, 419, 203, 111, 245
429931322, -1157, -12787, -9996, -1922, 225, 639, -2727, 544, -11, 163, 833, 613, 479, 954, 419, 203, 111, 245
429936415, -1157, -12787, -9996, -1922, 225, 639, -2727, 544, -11, 163, 833, 613, 479, 954, 419, 203, 111, 245
429937335, -1174, -12791, -9992, -1909, 123, 932, -2810, 71, -38, 42, 833, 613, 479, 954, 419, 203, 111, 245
429938132, -1174, -12791, -9992, -1909, 123, 932, -2810, 71, -38, 42, 659, 544, 480, 864, 364, 134, 89, 222
429938931, -1174, -12791, -9992, -1909, 123, 932, -2810, 71, -38, 42, 659, 544, 480, 864, 364, 134, 89, 222
429943972, -1174, -12791, -9992, -1909, 123, 932, -2810, 71, -38, 42, 659, 544, 480, 864, 364, 134, 89, 222
429944784, -1174, -12791, -9992, -1909, 123, 932, -2810, 71, -38, 42, 659, 544, 480, 864, 364, 134, 89, 222
429945622, -1174, -12791, -9992, -1909, 123, 932, -2810, 71, -38, 42, 659, 544, 480, 864, 364, 134, 89, 222
429946394, -1174, -12791, -9992, -1909, 123, 932, -2810, 71, -38, 42, 659, 544, 480, 864, 364, 134, 89, 222
429951400, -1174, -12791, -9992, -1909, 123, 932, -2810, 71, -38, 42, 659, 544, 480, 864, 364, 134, 89, 222
429952248, -1174, -12791, -9992, -1909, 123, 932, -2810, 71, -38, 42, 659, 544, 480, 864, 364, 134, 89, 222
429953048, -1174, -12791, -9992, -1909, 123, 932, -2810, 71, -38, 42, 659, 544, 480, 864, 364, 134, 89, 222
429953892, -1174, -12791, -9992, -1909, 123, 932, -2810, 71, -38, 42, 659, 544, 480, 864, 364, 134, 89, 222
429958929, -1174, -12791, -9992, -1909, 123, 932, -2810, 71, -38, 42, 659, 544, 480, 864, 364, 134, 89, 222
429959884, -1249, -12788, -9978, -1955, 209, 879, -2730, -428, -32, 36, 659, 544, 480, 864, 364, 134, 89, 222
429960735, -1249, -12788, -9978, -1955, 209, 879, -2730, -428, -32, 36, 499, 530, 438, 829, 336, 118, 78, 197
429961443, -1249, -12788, -9978, -1955, 209, 879, -2730, -428, -32, 36, 499, 530, 438, 829, 336, 118, 78, 197
429966538, -1249, -12788, -9978, -1955, 209, 879, -2730, -428, -32, 36, 499, 530, 438, 829, 336, 118, 78, 197
429967316, -1249, -12788, -9978, -1955, 209, 879, -2730, -428, -32, 36, 499, 530, 438, 829, 336, 118, 78, 197
429968129, -1249, -12788, -9978, -1955, 209, 879, -2730, -428, -32, 36, 499, 530, 438, 829, 336, 118, 78, 197
429968939, -1249, -12788, -9978, -1955, 209, 879, -2730, -428, -32, 36, 499, 530, 438, 829, 336, 118, 78, 197
429973898, -1249, -12788, -9978, -1955, 209, 879, -2730, -428, -32, 36, 499, 530, 438, 829, 336, 118, 78, 197
429974773, -1249, -12788, -9978, -1955, 209, 879, -2730, -428, -32, 36, 499, 530, 438, 829, 336, 118, 78, 197
429975531, -1249, -12788, -9978, -1955, 209, 879, -2730, -428, -32, 36, 499, 530, 438, 829, 336, 118, 78, 197
429976373, -1249, -12788, -9978, -1955, 209, 879, -2730, -428, -32, 36, 499, 530, 438, 829, 336, 118, 78, 197
429981411, -1249, -12788, -9978, -1955, 209, 879, -2730, -428, -32, 36, 499, 530, 438, 829, 336, 118, 78, 197
429982393, -1284, -12791, -9963, -1984, 319, 725, -2854, -302, -19, 53, 499, 530, 438, 829, 336, 118, 78, 197
429983180, -1284, -12791, -9963, -1984, 319, 725, -2854, -302, -19, 53, 468, 507, 340, 713, 292, 83, 73, 193
429983974, -1284, -12791, -9963, -1984, 319, 725, -2854, -302, -19, 53, 468, 507, 340, 713, 292, 83, 73, 193
429996505, -1284, -12791, -9963, -1984, 319, 725, -2854, -302, -19, 53, 468, 507, 340, 713, 292, 83, 73, 193
429997306, -1284, -12791, -9963, -1984, 319, 725, -2854, -302, -19, 53, 468, 507, 340, 713, 292, 83, 73, 193
429998132, -1284, -12791, -9963, -1984, 319, 725, -2854, -302, -19, 53, 468, 507, 340, 713, 292, 83, 73, 193
429998932, -1284, -12791, -9963, -1984, 319, 725, -2854, -302, -19, 53, 468, 507, 340, 713, 292, 83, 73, 193
430003854, -1284, -12791, -9963, -1984, 319, 725, -2854, -302, -19, 53, 468, 507, 340, 713, 292, 83, 73, 193
430004742, -1284, -12791, -9963, -1984, 319, 725, -2854, -302, -19, 53, 468, 507, 340, 713, 292, 83, 73, 193
430005448, -1284, -12791, -9963, -1984, 319, 725, -2854, -302, -19, 53, 468, 507, 340, 713, 292, 83, 73, 193
430006340, -1284, -12791, -9963, -1984, 319, 725, -2854, -302, -19, 53, 468, 507, 340, 713, 292, 83, 73, 193
430011507, -1284, -12791, -9963, -1984, 319, 725, -2854, -302, -19, 53, 391, 445, 312, 581, 241, 77, 53, 160
430012310, -1284, -12791, -9963, -1984, 319, 725, -2854, -302, -19, 53, 391, 445, 312, 581, 241, 77, 53, 160
430013166, -1284, -12791, -9963, -1984, 319, 725, -2854, -302, -19, 53, 391, 445, 312, 581, 241, 77, 53, 160
430013952, -1284, -12791, -9963, -1984, 319, 725, -2854, -302, -19, 53, 391, 445, 312, 581, 241, 77, 53, 160
430018889, -1284, -12791, -9963, -1984, 319, 725, -2854, -302, -19, 53, 391, 445, 312, 581, 241, 77, 53, 160
430019743, -1284, -12791, -9963, -1984, 319, 725, -2854, -302, -19, 53, 391, 445, 312, 581, 241, 77, 53, 160
430020532, -1284, -12791, -9963, -1984, 319, 725, -2854, -302, -19, 53, 391, 445, 312, 581, 241, 77, 53, 160
430021333, -1284, -12791, -9963, -1984, 319, 725, -2854, -302, -19, 53, 391, 445, 312, 581, 241, 77, 53, 160
430026393, -1284, -12791, -9963, -1984, 319, 725, -2854, -302, -19, 53, 391, 445, 312, 581, 241, 77, 53, 160
430027300, -1211, -12784, -9991, -1935, 232, 734, -2898, 338, 37, -120, 391, 445, 312, 581, 241, 77, 53, 160
430028116, -1211, -12784, -9991, -1935, 232, 734, -2898, 338, 37, -120, 345, 380, 207, 503, 206, 73, 44, 121
430028921, -1211, -12784, -9991, -1935, 232, 734, -2898, 338, 37, -120, 345, 380, 207, 503, 206, 73, 44, 121
430033956, -1211, -12784, -9991, -1935, 232, 734, -2898, 338, 37, -120, 345, 380, 207, 503, 206, 73, 44, 121
430034815, -1211, -12784, -9991, -1935, 232, 734, -2898, 338, 37, -120, 345, 380, 207, 503, 206, 73, 44, 121
430035605, -1211, -12784, -9991, -1935, 232, 734, -2898, 338, 37, -120, 345, 380, 207, 503, 206, 73, 44, 121
430036427, -1211, -12784, -9991, -1935, 232, 734, -2898, 338, 37, -120, 345, 380, 207, 503, 206, 73, 44, 121
430041437, -1211, -12784, -9991, -1935, 232, 734, -2898, 338, 37, -120, 345, 380, 207, 503, 206, 73, 44, 121
430042220, -1211, -12784, -9991, -1935, 232, 734, -2898, 338, 37, -120, 345, 380, 207, 503, 206, 73, 44, 121
430043065, -1211, -12784, -9991, -1935, 232, 734, -2898, 338, 37, -120, 345, 380, 207, 503, 206, 73, 44, 121
430043852, -1211, -12784, -9991, -1935, 232, 734, -2898, 338, 37, -120, 345, 380, 207, 503, 206, 73, 44, 121
430048928, -1211, -12784, -9991, -1935, 232, 734, -2898, 338, 37, -120, 345, 380, 207, 503, 206, 73, 44, 121
430049866, -1176, -12772, -10018, -1898, 209, 881, -2870, 360, 8, -132, 345, 380, 207, 503, 206, 73, 44, 121
430050740, -1176, -12772, -10018, -1898, 209, 881, -2870, 360, 8, -132, 330, 324, 209, 430, 199, 56, 39, 93
430051417, -1176, -12772, -10018, -1898, 209, 881, -2870, 360, 8, -132, 330, 324, 209, 430, 199, 56, 39, 93
430056480, -1176, -12772, -10018, -1898, 209, 881, -2870, 360, 8, -132, 330, 324, 209, 430, 199, 56, 39, 93
430057282, -1176, -12772, -10018, -1898, 209, 881, -2870, 360, 8, -132, 330, 324, 209, 430, 199, 56, 39, 93
430058115, -1176, -12772, -10018, -1898, 209, 881, -2870, 360, 8, -132, 330, 324, 209, 430, 199, 56, 39, 93
430058930, -1176, -12772, -10018, -1898, 209, 881, -2870, 360, 8, -132, 330, 324, 209, 430, 199, 56, 39, 93
430063897, -1176, -12772, -10018, -1898, 209, 881, -2870, 360, 8, -132, 330, 324, 209, 430, 199, 56, 39, 93
430064739, -1176, -12772, -10018, -1898, 209, 881, -2870, 360, 8, -132, 330, 324, 209, 430, 199, 56, 39, 93
430065524, -1176, -12772, -10018, -1898, 209, 881, -2870, 360, 8, -132, 330, 324, 209, 430, 199, 56, 39, 93
430066390, -1176, -12772, -10018, -1898, 209, 881, -2870, 360, 8, -132, 330, 324, 209, 430, 199, 56, 39, 93
430071401, -1176, -12772, -10018, -1898, 209, 881, -2870, 360, 8, -132, 330, 324, 209, 430, 199, 56, 39, 93
430072393, -1182, -12749, -10047, -1890, 224, 878, -2871, 73, -2, -203, 330, 324, 209, 430, 199, 56, 39, 93
430073189, -1182, -12749, -10047, -1890, 224, 878, -2871, 73, -2, -203, 294, 253, 196, 358, 180, 47, 34, 67
430074022, -1182, -12749, -10047, -1890, 224, 878, -2871, 73, -2, -203, 294, 253, 196, 358, 180, 47, 34, 67
430078982, -1182, -12749, -10047, -1890, 224, 878, -2871, 73, -2, -203, 294, 253, 196, 358, 180, 47, 34, 67
430079827, -1182, -12749, -10047, -1890, 224, 878, -2871, 73, -2, -203, 294, 253, 196, 358, 180, 47, 34, 67
430080609, -1182, -12749, -10047, -1890, 224, 878, -2871, 73, -2, -203, 294, 253, 196, 358, 180, 47, 34, 67
430081452, -1182, -12749, -10047, -1890, 224, 878, -2871, 73, -2, -203, 294, 253, 196, 358, 180, 47, 34, 67
430086375, -1182, -12749, -10047, -1890, 224, 878, -2871, 73, -2, -203, 294, 253, 196, 358, 180, 47, 34, 67
430087233, -1182, -12749, -10047, -1890, 224, 878, -2871, 73, -2, -203, 294, 253, 196, 358, 180, 47, 34, 67
430088009, -1182, -12749, -10047, -1890, 224, 878, -2871, 73, -2, -203, 294, 253, 196, 358, 180, 47, 34, 67
430088833, -1182, -12749, -10047, -1890, 224, 878, -2871, 73, -2, -203, 294, 253, 196, 358, 180, 47, 34, 67
430093887, -1182, -12749, -10047, -1890, 224, 878, -2871, 73, -2, -203, 294, 253, 196, 358, 180, 47, 34, 67
430094843, -1213, -12718, -10080, -1907, 259, 801, -2868, -167, 0, -259, 294, 253, 196, 358, 180, 47, 34, 67
430095658, -1213, -12718, -10080, -1907, 259, 801, -2868, -167, 0, -259, 238, 237, 171, 329, 162, 41, 32, 55
430096451, -1213, -12718, -10080, -1907, 259, 801, -2868, -167, 0, -259, 238, 237, 171, 329, 162, 41, 32, 55
430101511, -1213, -12718, -10080, -1907, 259, 801, -2868, -167, 0, -259, 238, 237, 171, 329, 162, 41, 32, 55
430102308, -1213, -12718, -10080, -1907, 259, 801, -2868, -167, 0, -259, 238, 237, 171, 329, 162, 41, 32, 55
430103119, -1213, -12718, -10080, -1907, 259, 801, -2868, -167, 0, -259, 238, 237, 171, 329, 162, 41, 32, 55
430103936, -1213, -12718, -10080, -1907, 259, 801, -2868, -167, 0, -259, 238, 237, 171, 329, 162, 41, 32, 55
430108043, -1213, -12718, -10080, -1907, 259, 801, -2868, -167, 0, -259, 238, 237, 171, 329, 162, 41, 32, 55
430108854, -1213, -12718, -10080, -1907, 259, 801, -2868, -167, 0, -259, 238, 237, 171, 329, 162, 41, 32, 55
430109672, -1213, -12718, -10080, -1907, 259, 801, -2868, -167, 0, -259, 238, 237, 171, 329, 162, 41, 32, 55
430116448, -1213, -12718, -10080, -1907, 259, 801, -2868, -167, 0, -259, 238, 237, 171, 329, 162, 41, 32, 55
430117229, -1213, -12718, -10080, -1907, 259, 801, -2868, -167, 0, -259, 238, 237, 171, 329, 162, 41, 32, 55
430118172, -1252, -12685, -10112, -1929, 291, 745, -2882, -263, -20, -278, 238, 237, 171, 329, 162, 41, 32, 55
430118992, -1252, -12685, -10112, -1929, 291, 745, -2882, -263, -20, -278, 165, 241, 176, 249, 168, 39, 29, 53
430123997, -1252, -12685, -10112, -1929, 291, 745, -2882, -263, -20, -278, 165, 241, 176, 249, 168, 39, 29, 53
430124812, -1252, -12685, -10112, -1929, 291, 745, -2882, -263, -20, -278, 165, 241, 176, 249, 168, 39, 29, 53
430125644, -1252, -12685, -10112, -1929, 291, 745, -2882, -263, -20, -278, 165, 241, 176, 249, 168, 39, 29, 53
430126429, -1252, -12685, -10112, -1929, 291, 745, -2882, -263, -20, -278, 165, 241, 176, 249, 168, 39, 29, 53
430131387, -1252, -12685, -10112, -1929, 291, 745, -2882, -263, -20, -278, 165, 241, 176, 249, 168, 39, 29, 53
430132195, -1252, -12685, -10112, -1929, 291, 745, -2882, -263, -20, -278, 165, 241, 176, 249, 168, 39, 29, 53
430133012, -1252, -12685, -10112, -1929, 291, 745, -2882, -263, -20, -278, 165, 241, 176, 249, 168, 39, 29, 53
430133801, -1252, -12685, -10112, -1929, 291, 745, -2882, -263, -20, -278, 165, 241, 176, 249, 168, 39, 29, 53
430138903, -1252, -12685, -10112, -1929, 291, 745, -2882, -263, -20, -278, 165, 241, 176, 249, 168, 39, 29, 53
430139841, -1275, -12654, -10146, -1943, 329, 698, -2866, -192, -20, -280, 165, 241, 176, 249, 168, 39, 29, 53
430140635, -1275, -12654, -10146, -1943, 329, 698, -2866, -192, -20, -280, 166, 257, 168, 296, 133, 34, 26, 44
430141488, -1275, -12654, -10146, -1943, 329, 698, -2866, -192, -20, -280, 166, 257, 168, 296, 133, 34, 26, 44
430146455, -1275, -12654, -10146, -1943, 329, 698, -2866, -192, -20, -280, 166, 257, 168, 296, 133, 34, 26, 44
430147293, -1275, -12654, -10146, -1943, 329, 698, -2866, -192, -20, -280, 166, 257, 168, 296, 133, 34, 26, 44
430148085, -1275, -12654, -10146, -1943, 329, 698, -2866, -192, -20, -280, 166, 257, 168, 296, 133, 34, 26, 44
430148909, -1275, -12654, -10146, -1943, 329, 698, -2866, -192, -20, -280, 166, 257, 168, 296, 133, 34, 26, 44
430153853, -1275, -12654, -10146, -1943, 329, 698, -2866, -192, -20, -280, 166, 257, 168, 296, 133, 34, 26, 44
430154683, -1275, -12654, -10146, -1943, 329, 698, -2866, -192, -20, -280, 166, 257, 168, 296, 133, 34, 26, 44
430155479, -1275, -12654, -10146, -1943, 329, 698, -2866, -192, -20, -280, 166, 257, 168, 296, 133, 34, 26, 44
430156288, -1275, -12654, -10146, -1943, 329, 698, -2866, -192, -20, -280, 166, 257, 168, 296, 133, 34, 26, 44
430161414, -1275, -12654, -10146, -1943, 329, 698, -2866, -192, -20, -280, 166, 257, 168, 296, 133, 34, 26, 44
430162378, -1266, -12627, -10181, -1941, 342, 669, -2893, -15, 15, -255, 166, 257, 168, 296, 133, 34, 26, 44
430163189, -1266, -12627, -10181, -1941, 342, 669, -2893, -15, 15, -255, 163, 260, 137, 286, 136, 31, 24, 42
430163983, -1266, -12627, -10181, -1941, 342, 669, -2893, -15, 15, -255, 163, 260, 137, 286, 136, 31, 24, 42
430168986, -1266, -12627, -10181, -1941, 342, 669, -2893, -15, 15, -255, 163, 260, 137, 286, 136, 31, 24, 42
430169801, -1266, -12627, -10181, -1941, 342, 669, -2893, -15, 15, -255, 163, 260, 137, 286, 136, 31, 24, 42
430170609, -1266, -12627, -10181, -1941, 342, 669, -2893, -15, 15, -255, 163, 260, 137, 286, 136, 31, 24, 42
430171427, -1266, -12627, -10181, -1941, 342, 669, -2893, -15, 15, -255, 163, 260, 137, 286, 136, 31, 24, 42
430176401, -1266, -12627, -10181, -1941, 342, 669, -2893, -15, 15, -255, 163, 260, 137, 286, 136, 31, 24, 42
430177243, -1266, -12627, -10181, -1941, 342, 669, -2893, -15, 15, -255, 163, 260, 137, 286, 136, 31, 24, 42
430178035, -1266, -12627, -10181, -1941, 342, 669, -2893, -15, 15, -255, 163, 260, 137, 286, 136, 31, 24, 42
430178855, -1266, -12627, -10181, -1941, 342, 669, -2893, -15, 15, -255, 163, 260, 137, 286, 136, 31, 24, 42
