Timestamp, Orientation x, Orientation y, Orientation z, Orientation w, Acceleration x, Acceleration y, Acceleration z, Rotation x, Rotation y, Rotation z, EMG 0, EMG 1, EMG 2, EMG 3, EMG 4, EMG 5, EMG 6, EMG 7
409392665, -1200, -12642, -10334, -634, 37, 474, -2442, -27, -32, -35, 0, 0, 0, 0, 0, 0, 0, 0
409393475, -1206, -12638, -10338, -646, 42, 463, -2442, -37, -31, -41, 0, 0, 0, 0, 0, 0, 0, 0
409406944, -1208, -12633, -10343, -659, 62, 480, -2425, -14, -26, -48, 0, 0, 0, 0, 0, 0, 0, 0
409429448, -1208, -12628, -10348, -670, 67, 513, -2442, 15, -24, -50, 0, 0, 0, 0, 0, 0, 0, 0
409451954, -1207, -12622, -10354, -683, 79, 510, -2448, 12, -24, -57, 0, 0, 0, 0, 0, 0, 0, 0
409460087, -1207, -12622, -10354, -683, 79, 510, -2448, 12, -24, -57, 84, 181, 38, 74, 61, 25, 28, 51
409460865, -1207, -12622, -10354, -683, 79, 510, -2448, 12, -24, -57, 84, 181, 38, 74, 61, 25, 28, 51
409467023, -1212, -12616, -10361, -697, 70, 508, -2539, -32, -33, -62, 84, 181, 38, 74, 61, 25, 28, 51
409482536, -1212, -12616, -10361, -697, 70, 508, -2539, -32, -33, -62, 95, 181, 38, 72, 61, 26, 26, 28
409483335, -1212, -12616, -10361, -697, 70, 508, -2539, -32, -33, -62, 95, 181, 38, 72, 61, 26, 26, 28
409489564, -1226, -12605, -10371, -713, 69, 546, -2673, -72, -53, -92, 95, 181, 38, 72, 61, 26, 26, 28
409505108, -1226, -12605, -10371, -713, 69, 546, -2673, -72, -53, -92, 86, 191, 41, 70, 60, 26, 28, 31
409505897, -1226, -12605, -10371, -713, 69, 546, -2673, -72, -53, -92, 86, 191, 41, 70, 60, 26, 28, 31
409512090, -1231, -12591, -10385, -750, 184, 590, -2772, -104, 13, -120, 86, 191, 41, 70, 60, 26, 28, 31
409520052, -1231, -12591, -10385, -750, 184, 590, -2772, -104, 13, -120, 93, 202, 41, 40, 33, 27, 28, 30
409520852, -1231, -12591, -10385, -750, 184, 590, -2772, -104, 13, -120, 93, 202, 41, 40, 33, 27, 28, 30
409527041, -1222, -12580, -10394, -819, 279, 597, -2904, -168, 154, -83, 93, 202, 41, 40, 33, 27, 28, 30
409543034, -1222, -12580, -10394, -819, 279, 597, -2904, -168, 154, -83, 105, 185, 38, 36, 32, 25, 30, 34
409543812, -1222, -12580, -10394, -819, 279, 597, -2904, -168, 154, -83, 105, 185, 38, 36, 32, 25, 30, 34
409549589, -1204, -12570, -10400, -921, 311, 607, -3028, -267, 324, -50, 105, 185, 38, 36, 32, 25, 30, 34
409565111, -1204, -12570, -10400, -921, 311, 607, -3028, -267, 324, -50, 123, 131, 35, 27, 29, 25, 30, 36
409565904, -1204, -12570, -10400, -921, 311, 607, -3028, -267, 324, -50, 123, 131, 35, 27, 29, 25, 30, 36
409580902, -1175, -12559, -10405, -1045, 299, 589, -3130, -329, 482, -31, 123, 131, 35, 27, 29, 25, 30, 36
409581771, -1175, -12559, -10405, -1045, 299, 589, -3130, -329, 482, -31, 142, 131, 35, 24, 26, 28, 30, 46
409582428, -1175, -12559, -10405, -1045, 299, 589, -3130, -329, 482, -31, 142, 131, 35, 24, 26, 28, 30, 46
409594431, -1110, -12549, -10408, -1193, 338, 527, -3207, -312, 734, 12, 142, 131, 35, 24, 26, 28, 30, 46
409602605, -1110, -12549, -10408, -1193, 338, 527, -3207, -312, 734, 12, 161, 124, 34, 28, 37, 33, 31, 47
409603414, -1110, -12549, -10408, -1193, 338, 527, -3207, -312, 734, 12, 161, 124, 34, 28, 37, 33, 31, 47
409609544, -1015, -12535, -10409, -1397, 419, 510, -3227, -410, 1079, 28, 161, 124, 34, 28, 37, 33, 31, 47
409625106, -1015, -12535, -10409, -1397, 419, 510, -3227, -410, 1079, 28, 172, 114, 31, 31, 40, 37, 39, 46
409625888, -1015, -12535, -10409, -1397, 419, 510, -3227, -410, 1079, 28, 172, 114, 31, 31, 40, 37, 39, 46
409632045, -885, -12510, -10417, -1631, 420, 543, -3323, -375, 1401, -2, 172, 114, 31, 31, 40, 37, 39, 46
409640087, -885, -12510, -10417, -1631, 420, 543, -3323, -375, 1401, -2, 223, 137, 32, 33, 42, 42, 37, 49
409640932, -885, -12510, -10417, -1631, 420, 543, -3323, -375, 1401, -2, 223, 137, 32, 33, 42, 42, 37, 49
409657209, -719, -12465, -10438, -1897, 389, 552, -3455, -265, 1767, -82, 223, 137, 32, 33, 42, 42, 37, 49
409658015, -1200, -12642, -10334, -634, 37, 474, -2442, -27, -32, -35, 223, 137, 32, 33, 42, 42, 37, 49
409658848, -1206, -12638, -10338, -646, 42, 463, -2442, -37, -31, -41, 223, 137, 32, 33, 42, 42, 37, 49
409659711, -1208, -12633, -10343, -659, 62, 480, -2425, -14, -26, -48, 223, 137, 32, 33, 42, 42, 37, 49
409664589, -1208, -12628, -10348, -670, 67, 513, -2442, 15, -24, -50, 223, 137, 32, 33, 42, 42, 37, 49
409665404, -1207, -12622, -10354, -683, 79, 510, -2448, 12, -24, -57, 223, 137, 32, 33, 42, 42, 37, 49
409666220, -1207, -12622, -10354, -683, 79, 510, -2448, 12, -24, -57, 84, 181, 38, 74, 61, 25, 28, 51
409667035, -1207, -12622, -10354, -683, 79, 510, -2448, 12, -24, -57, 84, 181, 38, 74, 61, 25, 28, 51
409672182, -1207, -12622, -10354, -683, 79, 510, -2448, 12, -24, -57, 95, 181, 38, 72, 61, 26, 26, 28
409672995, -1207, -12622, -10354, -683, 79, 510, -2448, 12, -24, -57, 95, 181, 38, 72, 61, 26, 26, 28
409673828, -1207, -12622, -10354, -683, 79, 510, -2448, 12, -24, -57, 95, 181, 38, 72, 61, 26, 26, 28
409674608, -1207, -12622, -10354, -683, 79, 510, -2448, 12, -24, -57, 95, 181, 38, 72, 61, 26, 26, 28
409679556, -1207, -12622, -10354, -683, 79, 510, -2448, 12, -24, -57, 95, 181, 38, 72, 61, 26, 26, 28
409680417, -1207, -12622, -10354, -683, 79, 510, -2448, 12, -24, -57, 95, 181, 38, 72, 61, 26, 26, 28
409681194, -1207, -12622, -10354, -683, 79, 510, -2448, 12, -24, -57, 95, 181, 38, 72, 61, 26, 26, 28
409682050, -1207, -12622, -10354, -683, 79, 510, -2448, 12, -24, -57, 95, 181, 38, 72, 61, 26, 26, 28
409687086, -1207, -12622, -10354, -683, 79, 510, -2448, 12, -24, -57, 95, 181, 38, 72, 61, 26, 26, 28
409688037, -1226, -12605, -10371, -713, 69, 546, -2673, -72, -53, -92, 95, 181, 38, 72, 61, 26, 26, 28
409688836, -1226, -12605, -10371, -713, 69, 546, -2673, -72, -53, -92, 86, 191, 41, 70, 60, 26, 28, 31
409689639, -1226, -12605, -10371, -713, 69, 546, -2673, -72, -53, -92, 86, 191, 41, 70, 60, 26, 28, 31
409693749, -1226, -12605, -10371, -713, 69, 546, -2673, -72, -53, -92, 86, 191, 41, 70, 60, 26, 28, 31
409694558, -1226, -12605, -10371, -713, 69, 546, -2673, -72, -53, -92, 86, 191, 41, 70, 60, 26, 28, 31
409695349, -1226, -12605, -10371, -713, 69, 546, -2673, -72, -53, -92, 86, 191, 41, 70, 60, 26, 28, 31
409702036, -1226, -12605, -10371, -713, 69, 546, -2673, -72, -53, -92, 86, 191, 41, 70, 60, 26, 28, 31
409702882, -1226, -12605, -10371, -713, 69, 546, -2673, -72, -53, -92, 86, 191, 41, 70, 60, 26, 28, 31
409703661, -1226, -12605, -10371, -713, 69, 546, -2673, -72, -53, -92, 86, 191, 41, 70, 60, 26, 28, 31
409704504, -1226, -12605, -10371, -713, 69, 546, -2673, -72, -53, -92, 86, 191, 41, 70, 60, 26, 28, 31
409709545, -1226, -12605, -10371, -713, 69, 546, -2673, -72, -53, -92, 86, 191, 41, 70, 60, 26, 28, 31
409710416, -1226, -12605, -10371, -713, 69, 546, -2673, -72, -53, -92, 86, 191, 41, 70, 60, 26, 28, 31
409711315, -1231, -12591, -10385, -750, 184, 590, -2772, -104, 13, -120, 86, 191, 41, 70, 60, 26, 28, 31
409712142, -1231, -12591, -10385, -750, 184, 590, -2772, -104, 13, -120, 93, 202, 41, 40, 33, 27, 28, 30
409717125, -1231, -12591, -10385, -750, 184, 590, -2772, -104, 13, -120, 93, 202, 41, 40, 33, 27, 28, 30
409717970, -1231, -12591, -10385, -750, 184, 590, -2772, -104, 13, -120, 93, 202, 41, 40, 33, 27, 28, 30
409718775, -1231, -12591, -10385, -750, 184, 590, -2772, -104, 13, -120, 93, 202, 41, 40, 33, 27, 28, 30
409719582, -1231, -12591, -10385, -750, 184, 590, -2772, -104, 13, -120, 93, 202, 41, 40, 33, 27, 28, 30
409724529, -1231, -12591, -10385, -750, 184, 590, -2772, -104, 13, -120, 93, 202, 41, 40, 33, 27, 28, 30
409725373, -1231, -12591, -10385, -750, 184, 590, -2772, -104, 13, -120, 93, 202, 41, 40, 33, 27, 28, 30
409726163, -1231, -12591, -10385, -750, 184, 590, -2772, -104, 13, -120, 93, 202, 41, 40, 33, 27, 28, 30
409726985, -1231, -12591, -10385, -750, 184, 590, -2772, -104, 13, -120, 93, 202, 41, 40, 33, 27, 28, 30
409732086, -1231, -12591, -10385, -750, 184, 590, -2772, -104, 13, -120, 93, 202, 41, 40, 33, 27, 28, 30
409733050, -1222, -12580, -10394, -819, 279, 597, -2904, -168, 154, -83, 93, 202, 41, 40, 33, 27, 28, 30
409733852, -1222, -12580, -10394, -819, 279, 597, -2904, -168, 154, -83, 105, 185, 38, 36, 32, 25, 30, 34
409734659, -1222, -12580, -10394, -819, 279, 597, -2904, -168, 154, -83, 105, 185, 38, 36, 32, 25, 30, 34
409739660, -1222, -12580, -10394, -819, 279, 597, -2904, -168, 154, -83, 105, 185, 38, 36, 32, 25, 30, 34
409740520, -1222, -12580, -10394, -819, 279, 597, -2904, -168, 154, -83, 105, 185, 38, 36, 32, 25, 30, 34
409741282, -1222, -12580, -10394, -819, 279, 597, -2904, -168, 154, -83, 105, 185, 38, 36, 32, 25, 30, 34
409742156, -1222, -12580, -10394, -819, 279, 597, -2904, -168, 154, -83, 105, 185, 38, 36, 32, 25, 30, 34
409747067, -1222, -12580, -10394, -819, 279, 597, -2904, -168, 154, -83, 105, 185, 38, 36, 32, 25, 30, 34
409747904, -1222, -12580, -10394, -819, 279, 597, -2904, -168, 154, -83, 105, 185, 38, 36, 32, 25, 30, 34
409748743, -1222, -12580, -10394, -819, 279, 597, -2904, -168, 154, -83, 105, 185, 38, 36, 32, 25, 30, 34
409749529, -1222, -12580, -10394, -819, 279, 597, -2904, -168, 154, -83, 105, 185, 38, 36, 32, 25, 30, 34
409754581, -1222, -12580, -10394, -819, 279, 597, -2904, -168, 154, -83, 105, 185, 38, 36, 32, 25, 30, 34
409755538, -1204, -12570, -10400, -921, 311, 607, -3028, -267, 324, -50, 105, 185, 38, 36, 32, 25, 30, 34
409756345, -1204, -12570, -10400, -921, 311, 607, -3028, -267, 324, -50, 123, 131, 35, 27, 29, 25, 30, 36
409757166, -1204, -12570, -10400, -921, 311, 607, -3028, -267, 324, -50, 123, 131, 35, 27, 29, 25, 30, 36
409762142, -1204, -12570, -10400, -921, 311, 607, -3028, -267, 324, -50, 123, 131, 35, 27, 29, 25, 30, 36
409762985, -1204, -12570, -10400, -921, 311, 607, -3028, -267, 324, -50, 123, 131, 35, 27, 29, 25, 30, 36
409763799, -1204, -12570, -10400, -921, 311, 607, -3028, -267, 324, -50, 123, 131, 35, 27, 29, 25, 30, 36
409764626, -1204, -12570, -10400, -921, 311, 607, -3028, -267, 324, -50, 123, 131, 35, 27, 29, 25, 30, 36
409769565, -1204, -12570, -10400, -921, 311, 607, -3028, -267, 324, -50, 123, 131, 35, 27, 29, 25, 30, 36
409770361, -1204, -12570, -10400, -921, 311, 607, -3028, -267, 324, -50, 123, 131, 35, 27, 29, 25, 30, 36
409771167, -1204, -12570, -10400, -921, 311, 607, -3028, -267, 324, -50, 123, 131, 35, 27, 29, 25, 30, 36
409772023, -1204, -12570, -10400, -921, 311, 607, -3028, -267, 324, -50, 123, 131, 35, 27, 29, 25, 30, 36
409777048, -1204, -12570, -10400, -921, 311, 607, -3028, -267, 324, -50, 123, 131, 35, 27, 29, 25, 30, 36
409778026, -1175, -12559, -10405, -1045, 299, 589, -3130, -329, 482, -31, 123, 131, 35, 27, 29, 25, 30, 36
409778800, -1175, -12559, -10405, -1045, 299, 589, -3130, -329, 482, -31, 142, 131, 35, 24, 26, 28, 30, 46
409779650, -1175, -12559, -10405, -1045, 299, 589, -3130, -329, 482, -31, 142, 131, 35, 24, 26, 28, 30, 46
409784634, -1175, -12559, -10405, -1045, 299, 589, -3130, -329, 482, -31, 142, 131, 35, 24, 26, 28, 30, 46
409785466, -1175, -12559, -10405, -1045, 299, 589, -3130, -329, 482, -31, 142, 131, 35, 24, 26, 28, 30, 46
409786245, -1175, -12559, -10405, -1045, 299, 589, -3130, -329, 482, -31, 142, 131, 35, 24, 26, 28, 30, 46
409787083, -1175, -12559, -10405, -1045, 299, 589, -3130, -329, 482, -31, 142, 131, 35, 24, 26, 28, 30, 46
409792063, -1175, -12559, -10405, -1045, 299, 589, -3130, -329, 482, -31, 142, 131, 35, 24, 26, 28, 30, 46
409792897, -1175, -12559, -10405, -1045, 299, 589, -3130, -329, 482, -31, 142, 131, 35, 24, 26, 28, 30, 46
409793758, -1175, -12559, -10405, -1045, 299, 589, -3130, -329, 482, -31, 142, 131, 35, 24, 26, 28, 30, 46
409794505, -1175, -12559, -10405, -1045, 299, 589, -3130, -329, 482, -31, 142, 131, 35, 24, 26, 28, 30, 46
409799599, -1175, -12559, -10405, -1045, 299, 589, -3130, -329, 482, -31, 142, 131, 35, 24, 26, 28, 30, 46
409800543, -1110, -12549, -10408, -1193, 338, 527, -3207, -312, 734, 12, 142, 131, 35, 24, 26, 28, 30, 46
409801323, -1110, -12549, -10408, -1193, 338, 527, -3207, -312, 734, 12, 161, 124, 34, 28, 37, 33, 31, 47
409802170, -1110, -12549, -10408, -1193, 338, 527, -3207, -312, 734, 12, 161, 124, 34, 28, 37, 33, 31, 47
409807170, -1110, -12549, -10408, -1193, 338, 527, -3207, -312, 734, 12, 161, 124, 34, 28, 37, 33, 31, 47
409808022, -1110, -12549, -10408, -1193, 338, 527, -3207, -312, 734, 12, 161, 124, 34, 28, 37, 33, 31, 47
409808808, -1110, -12549, -10408, -1193, 338, 527, -3207, -312, 734, 12, 161, 124, 34, 28, 37, 33, 31, 47
409809635, -1110, -12549, -10408, -1193, 338, 527, -3207, -312, 734, 12, 161, 124, 34, 28, 37, 33, 31, 47
409814558, -1110, -12549, -10408, -1193, 338, 527, -3207, -312, 734, 12, 161, 124, 34, 28, 37, 33, 31, 47
409815417, -1110, -12549, -10408, -1193, 338, 527, -3207, -312, 734, 12, 161, 124, 34, 28, 37, 33, 31, 47
409816190, -1110, -12549, -10408, -1193, 338, 527, -3207, -312, 734, 12, 161, 124, 34, 28, 37, 33, 31, 47
409817036, -1110, -12549, -10408, -1193, 338, 527, -3207, -312, 734, 12, 161, 124, 34, 28, 37, 33, 31, 47
409822066, -1110, -12549, -10408, -1193, 338, 527, -3207, -312, 734, 12, 161, 124, 34, 28, 37, 33, 31, 47
409823033, -1015, -12535, -10409, -1397, 419, 510, -3227, -410, 1079, 28, 161, 124, 34, 28, 37, 33, 31, 47
409823800, -1015, -12535, -10409, -1397, 419, 510, -3227, -410, 1079, 28, 172, 114, 31, 31, 40, 37, 39, 46
409824651, -1015, -12535, -10409, -1397, 419, 510, -3227, -410, 1079, 28, 172, 114, 31, 31, 40, 37, 39, 46
409829646, -1015, -12535, -10409, -1397, 419, 510, -3227, -410, 1079, 28, 172, 114, 31, 31, 40, 37, 39, 46
409830452, -1015, -12535, -10409, -1397, 419, 510, -3227, -410, 1079, 28, 172, 114, 31, 31, 40, 37, 39, 46
409831268, -1015, -12535, -10409, -1397, 419, 510, -3227, -410, 1079, 28, 172, 114, 31, 31, 40, 37, 39, 46
409832114, -1015, -12535, -10409, -1397, 419, 510, -3227, -410, 1079, 28, 172, 114, 31, 31, 40, 37, 39, 46
409837021, -1015, -12535, -10409, -1397, 419, 510, -3227, -410, 1079, 28, 172, 114, 31, 31, 40, 37, 39, 46
409837844, -1015, -12535, -10409, -1397, 419, 510, -3227, -410, 1079, 28, 172, 114, 31, 31, 40, 37, 39, 46
409838636, -1015, -12535, -10409, -1397, 419, 510, -3227, -410, 1079, 28, 172, 114, 31, 31, 40, 37, 39, 46
409839454, -1015, -12535, -10409, -1397, 419, 510, -3227, -410, 1079, 28, 172, 114, 31, 31, 40, 37, 39, 46
409844534, -1015, -12535, -10409, -1397, 419, 510, -3227, -410, 1079, 28, 172, 114, 31, 31, 40, 37, 39, 46
409845492, -885, -12510, -10417, -1631, 420, 543, -3323, -375, 1401, -2, 172, 114, 31, 31, 40, 37, 39, 46
409846298, -885, -12510, -10417, -1631, 420, 543, -3323, -375, 1401, -2, 223, 137, 32, 33, 42, 42, 37, 49
409847141, -885, -12510, -10417, -1631, 420, 543, -3323, -375, 1401, -2, 223, 137, 32, 33, 42, 42, 37, 49
409859693, -885, -12510, -10417, -1631, 420, 543, -3323, -375, 1401, -2, 223, 137, 32, 33, 42, 42, 37, 49
409860479, -885, -12510, -10417, -1631, 420, 543, -3323, -375, 1401, -2, 223, 137, 32, 33, 42, 42, 37, 49
409861336, -885, -12510, -10417, -1631, 420, 543, -3323, -375, 1401, -2, 223, 137, 32, 33, 42, 42, 37, 49
409862115, -885, -12510, -10417, -1631, 420, 543, -3323, -375, 1401, -2, 223, 137, 32, 33, 42, 42, 37, 49
409867060, -885, -12510, -10417, -1631, 420, 543, -3323, -375, 1401, -2, 223, 137, 32, 33, 42, 42, 37, 49
409867904, -885, -12510, -10417, -1631, 420, 543, -3323, -375, 1401, -2, 223, 137, 32, 33, 42, 42, 37, 49
409868742, -885, -12510, -10417, -1631, 420, 543, -3323, -375, 1401, -2, 223, 137, 32, 33, 42, 42, 37, 49
409869539, -885, -12510, -10417, -1631, 420, 543, -3323, -375, 1401, -2, 223, 137, 32, 33, 42, 42, 37, 49
409874610, -885, -12510, -10417, -1631, 420, 543, -3323, -375, 1401, -2, 283, 156, 32, 38, 46, 46, 60, 68
409875455, -885, -12510, -10417, -1631, 420, 543, -3323, -375, 1401, -2, 283, 156, 32, 38, 46, 46, 60, 68
409876245, -885, -12510, -10417, -1631, 420, 543, -3323, -375, 1401, -2, 283, 156, 32, 38, 46, 46, 60, 68
409877072, -885, -12510, -10417, -1631, 420, 543, -3323, -375, 1401, -2, 283, 156, 32, 38, 46, 46, 60, 68
409882048, -885, -12510, -10417, -1631, 420, 543, -3323, -375, 1401, -2, 283, 156, 32, 38, 46, 46, 60, 68
409882848, -885, -12510, -10417, -1631, 420, 543, -3323, -375, 1401, -2, 283, 156, 32, 38, 46, 46, 60, 68
409883661, -885, -12510, -10417, -1631, 420, 543, -3323, -375, 1401, -2, 283, 156, 32, 38, 46, 46, 60, 68
409884457, -885, -12510, -10417, -1631, 420, 543, -3323, -375, 1401, -2, 283, 156, 32, 38, 46, 46, 60, 68
409889622, -885, -12510, -10417, -1631, 420, 543, -3323, -375, 1401, -2, 283, 156, 32, 38, 46, 46, 60, 68
409890573, -499, -12396, -10472, -2210, 350, 479, -3522, -220, 2202, -173, 283, 156, 32, 38, 46, 46, 60, 68
409891364, -499, -12396, -10472, -2210, 350, 479, -3522, -220, 2202, -173, 296, 165, 31, 60, 71, 53, 72, 65
409892154, -499, -12396, -10472, -2210, 350, 479, -3522, -220, 2202, -173, 296, 165, 31, 60, 71, 53, 72, 65
409897179, -499, -12396, -10472, -2210, 350, 479, -3522, -220, 2202, -173, 296, 165, 31, 60, 71, 53, 72, 65
409897983, -499, -12396, -10472, -2210, 350, 479, -3522, -220, 2202, -173, 296, 165, 31, 60, 71, 53, 72, 65
409898801, -499, -12396, -10472, -2210, 350, 479, -3522, -220, 2202, -173, 296, 165, 31, 60, 71, 53, 72, 65
409899608, -499, -12396, -10472, -2210, 350, 479, -3522, -220, 2202, -173, 296, 165, 31, 60, 71, 53, 72, 65
409904597, -499, -12396, -10472, -2210, 350, 479, -3522, -220, 2202, -173, 296, 165, 31, 60, 71, 53, 72, 65
409905359, -499, -12396, -10472, -2210, 350, 479, -3522, -220, 2202, -173, 296, 165, 31, 60, 71, 53, 72, 65
409906208, -499, -12396, -10472, -2210, 350, 479, -3522, -220, 2202, -173, 296, 165, 31, 60, 71, 53, 72, 65
409906988, -499, -12396, -10472, -2210, 350, 479, -3522, -220, 2202, -173, 296, 165, 31, 60, 71, 53, 72, 65
409912062, -499, -12396, -10472, -2210, 350, 479, -3522, -220, 2202, -173, 296, 165, 31, 60, 71, 53, 72, 65
409913024, -226, -12296, -10518, -2565, 272, 384, -3583, -154, 2634, -281, 296, 165, 31, 60, 71, 53, 72, 65
409913800, -226, -12296, -10518, -2565, 272, 384, -3583, -154, 2634, -281, 288, 162, 30, 63, 75, 55, 73, 70
409914627, -226, -12296, -10518, -2565, 272, 384, -3583, -154, 2634, -281, 288, 162, 30, 63, 75, 55, 73, 70
409919636, -226, -12296, -10518, -2565, 272, 384, -3583, -154, 2634, -281, 288, 162, 30, 63, 75, 55, 73, 70
409920480, -226, -12296, -10518, -2565, 272, 384, -3583, -154, 2634, -281, 288, 162, 30, 63, 75, 55, 73, 70
409921255, -226, -12296, -10518, -2565, 272, 384, -3583, -154, 2634, -281, 288, 162, 30, 63, 75, 55, 73, 70
409922077, -226, -12296, -10518, -2565, 272, 384, -3583, -154, 2634, -281, 288, 162, 30, 63, 75, 55, 73, 70
409927009, -226, -12296, -10518, -2565, 272, 384, -3583, -154, 2634, -281, 288, 162, 30, 63, 75, 55, 73, 70
409927845, -226, -12296, -10518, -2565, 272, 384, -3583, -154, 2634, -281, 288, 162, 30, 63, 75, 55, 73, 70
409928658, -226, -12296, -10518, -2565, 272, 384, -3583, -154, 2634, -281, 288, 162, 30, 63, 75, 55, 73, 70
409929463, -226, -12296, -10518, -2565, 272, 384, -3583, -154, 2634, -281, 288, 162, 30, 63, 75, 55, 73, 70
409934558, -226, -12296, -10518, -2565, 272, 384, -3583, -154, 2634, -281, 288, 162, 30, 63, 75, 55, 73, 70
409935484, 90, -12165, -10575, -2939, 202, 362, -3720, -42, 2939, -395, 288, 162, 30, 63, 75, 55, 73, 70
409936299, 90, -12165, -10575, -2939, 202, 362, -3720, -42, 2939, -395, 298, 159, 32, 64, 79, 54, 76, 92
409937101, 90, -12165, -10575, -2939, 202, 362, -3720, -42, 2939, -395, 298, 159, 32, 64, 79, 54, 76, 92
409942115, 90, -12165, -10575, -2939, 202, 362, -3720, -42, 2939, -395, 298, 159, 32, 64, 79, 54, 76, 92
409942929, 90, -12165, -10575, -2939, 202, 362, -3720, -42, 2939, -395, 298, 159, 32, 64, 79, 54, 76, 92
409943783, 90, -12165, -10575, -2939, 202, 362, -3720, -42, 2939, -395, 298, 159, 32, 64, 79, 54, 76, 92
409944557, 90, -12165, -10575, -2939, 202, 362, -3720, -42, 2939, -395, 298, 159, 32, 64, 79, 54, 76, 92
409949607, 90, -12165, -10575, -2939, 202, 362, -3720, -42, 2939, -395, 298, 159, 32, 64, 79, 54, 76, 92
409950377, 90, -12165, -10575, -2939, 202, 362, -3720, -42, 2939, -395, 298, 159, 32, 64, 79, 54, 76, 92
409951185, 90, -12165, -10575, -2939, 202, 362, -3720, -42, 2939, -395, 298, 159, 32, 64, 79, 54, 76, 92
409951983, 90, -12165, -10575, -2939, 202, 362, -3720, -42, 2939, -395, 298, 159, 32, 64, 79, 54, 76, 92
409957047, 90, -12165, -10575, -2939, 202, 362, -3720, -42, 2939, -395, 298, 159, 32, 64, 79, 54, 76, 92
409957985, 467, -11985, -10655, -3327, 151, 233, -3783, 167, 3304, -606, 298, 159, 32, 64, 79, 54, 76, 92
409958800, 467, -11985, -10655, -3327, 151, 233, -3783, 167, 3304, -606, 275, 152, 32, 67, 84, 53, 92, 102
409959612, 467, -11985, -10655, -3327, 151, 233, -3783, 167, 3304, -606, 275, 152, 32, 67, 84, 53, 92, 102
409964699, 467, -11985, -10655, -3327, 151, 233, -3783, 167, 3304, -606, 275, 152, 32, 67, 84, 53, 92, 102
409965458, 467, -11985, -10655, -3327, 151, 233, -3783, 167, 3304, -606, 275, 152, 32, 67, 84, 53, 92, 102
409966259, 467, -11985, -10655, -3327, 151, 233, -3783, 167, 3304, -606, 275, 152, 32, 67, 84, 53, 92, 102
409967135, 467, -11985, -10655, -3327, 151, 233, -3783, 167, 3304, -606, 275, 152, 32, 67, 84, 53, 92, 102
409971143, 467, -11985, -10655, -3327, 151, 233, -3783, 167, 3304, -606, 275, 152, 32, 67, 84, 53, 92, 102
409971980, 467, -11985, -10655, -3327, 151, 233, -3783, 167, 3304, -606, 275, 152, 32, 67, 84, 53, 92, 102
409972786, 467, -11985, -10655, -3327, 151, 233, -3783, 167, 3304, -606, 275, 152, 32, 67, 84, 53, 92, 102
409979567, 467, -11985, -10655, -3327, 151, 233, -3783, 167, 3304, -606, 275, 152, 32, 67, 84, 53, 92, 102
409980377, 467, -11985, -10655, -3327, 151, 233, -3783, 167, 3304, -606, 275, 152, 32, 67, 84, 53, 92, 102
409981293, 900, -11754, -10757, -3714, 158, 102, -3877, 415, 3602, -823, 275, 152, 32, 67, 84, 53, 92, 102
409982145, 900, -11754, -10757, -3714, 158, 102, -3877, 415, 3602, -823, 205, 129, 36, 109, 136, 85, 94, 97
409987116, 900, -11754, -10757, -3714, 158, 102, -3877, 415, 3602, -823, 205, 129, 36, 109, 136, 85, 94, 97
409987933, 900, -11754, -10757, -3714, 158, 102, -3877, 415, 3602, -823, 205, 129, 36, 109, 136, 85, 94, 97
409988745, 900, -11754, -10757, -3714, 158, 102, -3877, 415, 3602, -823, 205, 129, 36, 109, 136, 85, 94, 97
409989576, 900, -11754, -10757, -3714, 158, 102, -3877, 415, 3602, -823, 205, 129, 36, 109, 136, 85, 94, 97
409994505, 900, -11754, -10757, -3714, 158, 102, -3877, 415, 3602, -823, 205, 129, 36, 109, 136, 85, 94, 97
409995350, 900, -11754, -10757, -3714, 158, 102, -3877, 415, 3602, -823, 205, 129, 36, 109, 136, 85, 94, 97
409996141, 900, -11754, -10757, -3714, 158, 102, -3877, 415, 3602, -823, 205, 129, 36, 109, 136, 85, 94, 97
409996997, 900, -11754, -10757, -3714, 158, 102, -3877, 415, 3602, -823, 205, 129, 36, 109, 136, 85, 94, 97
410002097, 900, -11754, -10757, -3714, 158, 102, -3877, 415, 3602, -823, 205, 129, 36, 109, 136, 85, 94, 97
410003036, 1356, -11483, -10858, -4108, 202, 124, -3950, 494, 3797, -938, 205, 129, 36, 109, 136, 85, 94, 97
410003867, 1356, -11483, -10858, -4108, 202, 124, -3950, 494, 3797, -938, 172, 115, 39, 130, 132, 86, 86, 96
410004662, 1356, -11483, -10858, -4108, 202, 124, -3950, 494, 3797, -938, 172, 115, 39, 130, 132, 86, 86, 96
410017184, 1356, -11483, -10858, -4108, 202, 124, -3950, 494, 3797, -938, 172, 115, 39, 130, 132, 86, 86, 96
410018004, 1356, -11483, -10858, -4108, 202, 124, -3950, 494, 3797, -938, 172, 115, 39, 130, 132, 86, 86, 96
410018841, 1356, -11483, -10858, -4108, 202, 124, -3950, 494, 3797, -938, 172, 115, 39, 130, 132, 86, 86, 96
410019630, 1356, -11483, -10858, -4108, 202, 124, -3950, 494, 3797, -938, 172, 115, 39, 130, 132, 86, 86, 96
410024585, 1356, -11483, -10858, -4108, 202, 124, -3950, 494, 3797, -938, 172, 115, 39, 130, 132, 86, 86, 96
410025360, 1356, -11483, -10858, -4108, 202, 124, -3950, 494, 3797, -938, 172, 115, 39, 130, 132, 86, 86, 96
410026194, 1356, -11483, -10858, -4108, 202, 124, -3950, 494, 3797, -938, 172, 115, 39, 130, 132, 86, 86, 96
410027007, 1356, -11483, -10858, -4108, 202, 124, -3950, 494, 3797, -938, 172, 115, 39, 130, 132, 86, 86, 96
410032137, 1356, -11483, -10858, -4108, 202, 124, -3950, 494, 3797, -938, 180, 107, 49, 140, 136, 170, 87, 94
410032931, 1356, -11483, -10858, -4108, 202, 124, -3950, 494, 3797, -938, 180, 107, 49, 140, 136, 170, 87, 94
410033746, 1356, -11483, -10858, -4108, 202, 124, -3950, 494, 3797, -938, 180, 107, 49, 140, 136, 170, 87, 94
410034559, 1356, -11483, -10858, -4108, 202, 124, -3950, 494, 3797, -938, 180, 107, 49, 140, 136, 170, 87, 94
410039554, 1356, -11483, -10858, -4108, 202, 124, -3950, 494, 3797, -938, 180, 107, 49, 140, 136, 170, 87, 94
410040404, 1356, -11483, -10858, -4108, 202, 124, -3950, 494, 3797, -938, 180, 107, 49, 140, 136, 170, 87, 94
410041225, 1356, -11483, -10858, -4108, 202, 124, -3950, 494, 3797, -938, 180, 107, 49, 140, 136, 170, 87, 94
410042031, 1356, -11483, -10858, -4108, 202, 124, -3950, 494, 3797, -938, 180, 107, 49, 140, 136, 170, 87, 94
410047065, 1356, -11483, -10858, -4108, 202, 124, -3950, 494, 3797, -938, 180, 107, 49, 140, 136, 170, 87, 94
410048052, 2232, -10818, -11027, -4986, 381, 306, -4098, 183, 4142, -1225, 180, 107, 49, 140, 136, 170, 87, 94
410048837, 2232, -10818, -11027, -4986, 381, 306, -4098, 183, 4142, -1225, 153, 101, 58, 202, 152, 177, 82, 73
410049687, 2232, -10818, -11027, -4986, 381, 306, -4098, 183, 4142, -1225, 153, 101, 58, 202, 152, 177, 82, 73
410054657, 2232, -10818, -11027, -4986, 381, 306, -4098, 183, 4142, -1225, 153, 101, 58, 202, 152, 177, 82, 73
410055476, 2232, -10818, -11027, -4986, 381, 306, -4098, 183, 4142, -1225, 153, 101, 58, 202, 152, 177, 82, 73
410056270, 2232, -10818, -11027, -4986, 381, 306, -4098, 183, 4142, -1225, 153, 101, 58, 202, 152, 177, 82, 73
410057091, 2232, -10818, -11027, -4986, 381, 306, -4098, 183, 4142, -1225, 153, 101, 58, 202, 152, 177, 82, 73
410062034, 2232, -10818, -11027, -4986, 381, 306, -4098, 183, 4142, -1225, 153, 101, 58, 202, 152, 177, 82, 73
410062880, 2232, -10818, -11027, -4986, 381, 306, -4098, 183, 4142, -1225, 153, 101, 58, 202, 152, 177, 82, 73
410063660, 2232, -10818, -11027, -4986, 381, 306, -4098, 183, 4142, -1225, 153, 101, 58, 202, 152, 177, 82, 73
410064507, 2232, -10818, -11027, -4986, 381, 306, -4098, 183, 4142, -1225, 153, 101, 58, 202, 152, 177, 82, 73
410069542, 2232, -10818, -11027, -4986, 381, 306, -4098, 183, 4142, -1225, 153, 101, 58, 202, 152, 177, 82, 73
410070522, 2609, -10446, -11077, -5462, 395, 313, -4102, -129, 4094, -1291, 153, 101, 58, 202, 152, 177, 82, 73
410071320, 2609, -10446, -11077, -5462, 395, 313, -4102, -129, 4094, -1291, 115, 75, 63, 236, 170, 199, 68, 56
410072141, 2609, -10446, -11077, -5462, 395, 313, -4102, -129, 4094, -1291, 115, 75, 63, 236, 170, 199, 68, 56
410077128, 2609, -10446, -11077, -5462, 395, 313, -4102, -129, 4094, -1291, 115, 75, 63, 236, 170, 199, 68, 56
410077933, 2609, -10446, -11077, -5462, 395, 313, -4102, -129, 4094, -1291, 115, 75, 63, 236, 170, 199, 68, 56
410078746, 2609, -10446, -11077, -5462, 395, 313, -4102, -129, 4094, -1291, 115, 75, 63, 236, 170, 199, 68, 56
410079556, 2609, -10446, -11077, -5462, 395, 313, -4102, -129, 4094, -1291, 115, 75, 63, 236, 170, 199, 68, 56
410084503, 2609, -10446, -11077, -5462, 395, 313, -4102, -129, 4094, -1291, 115, 75, 63, 236, 170, 199, 68, 56
410085365, 2609, -10446, -11077, -5462, 395, 313, -4102, -129, 4094, -1291, 115, 75, 63, 236, 170, 199, 68, 56
410086141, 2609, -10446, -11077, -5462, 395, 313, -4102, -129, 4094, -1291, 115, 75, 63, 236, 170, 199, 68, 56
410086983, 2609, -10446, -11077, -5462, 395, 313, -4102, -129, 4094, -1291, 115, 75, 63, 236, 170, 199, 68, 56
410092086, 2609, -10446, -11077, -5462, 395, 313, -4102, -129, 4094, -1291, 115, 75, 63, 236, 170, 199, 68, 56
410093014, 2926, -10072, -11100, -5937, 465, 411, -4122, -402, 3917, -1308, 115, 75, 63, 236, 170, 199, 68, 56
410093827, 2926, -10072, -11100, -5937, 465, 411, -4122, -402, 3917, -1308, 118, 79, 61, 231, 139, 192, 44, 44
410094636, 2926, -10072, -11100, -5937, 465, 411, -4122, -402, 3917, -1308, 118, 79, 61, 231, 139, 192, 44, 44
410099591, 2926, -10072, -11100, -5937, 465, 411, -4122, -402, 3917, -1308, 118, 79, 61, 231, 139, 192, 44, 44
410100423, 2926, -10072, -11100, -5937, 465, 411, -4122, -402, 3917, -1308, 118, 79, 61, 231, 139, 192, 44, 44
410101235, 2926, -10072, -11100, -5937, 465, 411, -4122, -402, 3917, -1308, 118, 79, 61, 231, 139, 192, 44, 44
410102049, 2926, -10072, -11100, -5937, 465, 411, -4122, -402, 3917, -1308, 118, 79, 61, 231, 139, 192, 44, 44
410107124, 2926, -10072, -11100, -5937, 465, 411, -4122, -402, 3917, -1308, 118, 79, 61, 231, 139, 192, 44, 44
410107898, 2926, -10072, -11100, -5937, 465, 411, -4122, -402, 3917, -1308, 118, 79, 61, 231, 139, 192, 44, 44
410108751, 2926, -10072, -11100, -5937, 465, 411, -4122, -402, 3917, -1308, 118, 79, 61, 231, 139, 192, 44, 44
410109524, 2926, -10072, -11100, -5937, 465, 411, -4122, -402, 3917, -1308, 118, 79, 61, 231, 139, 192, 44, 44
410114581, 2926, -10072, -11100, -5937, 465, 411, -4122, -402, 3917, -1308, 118, 79, 61, 231, 139, 192, 44, 44
410115547, 3171, -9705, -11093, -6416, 630, 458, -4053, -740, 3678, -1328, 118, 79, 61, 231, 139, 192, 44, 44
410116320, 3171, -9705, -11093, -6416, 630, 458, -4053, -740, 3678, -1328, 112, 85, 65, 219, 139, 190, 43, 41
410117165, 3171, -9705, -11093, -6416, 630, 458, -4053, -740, 3678, -1328, 112, 85, 65, 219, 139, 190, 43, 41
410122163, 3171, -9705, -11093, -6416, 630, 458, -4053, -740, 3678, -1328, 112, 85, 65, 219, 139, 190, 43, 41
410122949, 3171, -9705, -11093, -6416, 630, 458, -4053, -740, 3678, -1328, 112, 85, 65, 219, 139, 190, 43, 41
410123774, 3171, -9705, -11093, -6416, 630, 458, -4053, -740, 3678, -1328, 112, 85, 65, 219, 139, 190, 43, 41
410124581, 3171, -9705, -11093, -6416, 630, 458, -4053, -740, 3678, -1328, 112, 85, 65, 219, 139, 190, 43, 41
410137061, 3171, -9705, -11093, -6416, 630, 458, -4053, -740, 3678, -1328, 112, 85, 65, 219, 139, 190, 43, 41
410137840, 3171, -9705, -11093, -6416, 630, 458, -4053, -740, 3678, -1328, 112, 85, 65, 219, 139, 190, 43, 41
410138636, 3171, -9705, -11093, -6416, 630, 458, -4053, -740, 3678, -1328, 112, 85, 65, 219, 139, 190, 43, 41
410139484, 3171, -9705, -11093, -6416, 630, 458, -4053, -740, 3678, -1328, 112, 85, 65, 219, 139, 190, 43, 41
410144585, 3171, -9705, -11093, -6416, 630, 458, -4053, -740, 3678, -1328, 112, 85, 65, 219, 139, 190, 43, 41
410145529, 3362, -9367, -11050, -6879, 764, 571, -3981, -985, 3399, -1197, 112, 85, 65, 219, 139, 190, 43, 41
410146329, 3362, -9367, -11050, -6879, 764, 571, -3981, -985, 3399, -1197, 99, 84, 65, 212, 134, 122, 40, 41
410147143, 3362, -9367, -11050, -6879, 764, 571, -3981, -985, 3399, -1197, 99, 84, 65, 212, 134, 122, 40, 41
410152143, 3362, -9367, -11050, -6879, 764, 571, -3981, -985, 3399, -1197, 99, 84, 65, 212, 134, 122, 40, 41
410152999, 3362, -9367, -11050, -6879, 764, 571, -3981, -985, 3399, -1197, 99, 84, 65, 212, 134, 122, 40, 41
410153796, 3362, -9367, -11050, -6879, 764, 571, -3981, -985, 3399, -1197, 99, 84, 65, 212, 134, 122, 40, 41
410154633, 3362, -9367, -11050, -6879, 764, 571, -3981, -985, 3399, -1197, 99, 84, 65, 212, 134, 122, 40, 41
410159532, 3362, -9367, -11050, -6879, 764, 571, -3981, -985, 3399, -1197, 99, 84, 65, 212, 134, 122, 40, 41
410160390, 3362, -9367, -11050, -6879, 764, 571, -3981, -985, 3399, -1197, 99, 84, 65, 212, 134, 122, 40, 41
410161190, 3362, -9367, -11050, -6879, 764, 571, -3981, -985, 3399, -1197, 99, 84, 65, 212, 134, 122, 40, 41
410162010, 3362, -9367, -11050, -6879, 764, 571, -3981, -985, 3399, -1197, 99, 84, 65, 212, 134, 122, 40, 41
410167069, 3362, -9367, -11050, -6879, 764, 571, -3981, -985, 3399, -1197, 99, 84, 65, 212, 134, 122, 40, 41
410167985, 3507, -9077, -10969, -7311, 871, 676, -3952, -1164, 3064, -959, 99, 84, 65, 212, 134, 122, 40, 41
410168835, 3507, -9077, -10969, -7311, 871, 676, -3952, -1164, 3064, -959, 96, 115, 91, 157, 114, 118, 42, 61
410169641, 3507, -9077, -10969, -7311, 871, 676, -3952, -1164, 3064, -959, 96, 115, 91, 157, 114, 118, 42, 61
410174665, 3507, -9077, -10969, -7311, 871, 676, -3952, -1164, 3064, -959, 96, 115, 91, 157, 114, 118, 42, 61
410175453, 3507, -9077, -10969, -7311, 871, 676, -3952, -1164, 3064, -959, 96, 115, 91, 157, 114, 118, 42, 61
410176286, 3507, -9077, -10969, -7311, 871, 676, -3952, -1164, 3064, -959, 96, 115, 91, 157, 114, 118, 42, 61
410177073, 3507, -9077, -10969, -7311, 871, 676, -3952, -1164, 3064, -959, 96, 115, 91, 157, 114, 118, 42, 61
410182030, 3507, -9077, -10969, -7311, 871, 676, -3952, -1164, 3064, -959, 96, 115, 91, 157, 114, 118, 42, 61
410182825, 3507, -9077, -10969, -7311, 871, 676, -3952, -1164, 3064, -959, 96, 115, 91, 157, 114, 118, 42, 61
410183699, 3507, -9077, -10969, -7311, 871, 676, -3952, -1164, 3064, -959, 96, 115, 91, 157, 114, 118, 42, 61
410184465, 3507, -9077, -10969, -7311, 871, 676, -3952, -1164, 3064, -959, 96, 115, 91, 157, 114, 118, 42, 61
410189542, 3507, -9077, -10969, -7311, 871, 676, -3952, -1164, 3064, -959, 96, 115, 91, 157, 114, 118, 42, 61
410190478, 3613, -8849, -10843, -7716, 966, 905, -4001, -1381, 2745, -641, 96, 115, 91, 157, 114, 118, 42, 61
410191294, 3613, -8849, -10843, -7716, 966, 905, -4001, -1381, 2745, -641, 120, 123, 102, 99, 79, 77, 46, 86
410192155, 3613, -8849, -10843, -7716, 966, 905, -4001, -1381, 2745, -641, 120, 123, 102, 99, 79, 77, 46, 86
410197099, 3613, -8849, -10843, -7716, 966, 905, -4001, -1381, 2745, -641, 120, 123, 102, 99, 79, 77, 46, 86
410197971, 3613, -8849, -10843, -7716, 966, 905, -4001, -1381, 2745, -641, 120, 123, 102, 99, 79, 77, 46, 86
410198743, 3613, -8849, -10843, -7716, 966, 905, -4001, -1381, 2745, -641, 120, 123, 102, 99, 79, 77, 46, 86
410199598, 3613, -8849, -10843, -7716, 966, 905, -4001, -1381, 2745, -641, 120, 123, 102, 99, 79, 77, 46, 86
410204558, 3613, -8849, -10843, -7716, 966, 905, -4001, -1381, 2745, -641, 120, 123, 102, 99, 79, 77, 46, 86
410205425, 3613, -8849, -10843, -7716, 966, 905, -4001, -1381, 2745, -641, 120, 123, 102, 99, 79, 77, 46, 86
410206193, 3613, -8849, -10843, -7716, 966, 905, -4001, -1381, 2745, -641, 120, 123, 102, 99, 79, 77, 46, 86
410207032, 3613, -8849, -10843, -7716, 966, 905, -4001, -1381, 2745, -641, 120, 123, 102, 99, 79, 77, 46, 86
410212089, 3613, -8849, -10843, -7716, 966, 905, -4001, -1381, 2745, -641, 120, 123, 102, 99, 79, 77, 46, 86
410212998, 3715, -8678, -10625, -8152, 1025, 1122, -4012, -1670, 2420, -243, 120, 123, 102, 99, 79, 77, 46, 86
410213868, 3715, -8678, -10625, -8152, 1025, 1122, -4012, -1670, 2420, -243, 139, 135, 107, 68, 63, 63, 46, 92
410214658, 3715, -8678, -10625, -8152, 1025, 1122, -4012, -1670, 2420, -243, 139, 135, 107, 68, 63, 63, 46, 92
410219647, 3715, -8678, -10625, -8152, 1025, 1122, -4012, -1670, 2420, -243, 139, 135, 107, 68, 63, 63, 46, 92
410220475, 3715, -8678, -10625, -8152, 1025, 1122, -4012, -1670, 2420, -243, 139, 135, 107, 68, 63, 63, 46, 92
410221310, 3715, -8678, -10625, -8152, 1025, 1122, -4012, -1670, 2420, -243, 139, 135, 107, 68, 63, 63, 46, 92
410222086, 3715, -8678, -10625, -8152, 1025, 1122, -4012, -1670, 2420, -243, 139, 135, 107, 68, 63, 63, 46, 92
410227075, 3715, -8678, -10625, -8152, 1025, 1122, -4012, -1670, 2420, -243, 139, 135, 107, 68, 63, 63, 46, 92
410227852, 3715, -8678, -10625, -8152, 1025, 1122, -4012, -1670, 2420, -243, 139, 135, 107, 68, 63, 63, 46, 92
410228703, 3715, -8678, -10625, -8152, 1025, 1122, -4012, -1670, 2420, -243, 139, 135, 107, 68, 63, 63, 46, 92
410229492, 3715, -8678, -10625, -8152, 1025, 1122, -4012, -1670, 2420, -243, 139, 135, 107, 68, 63, 63, 46, 92
410234556, 3715, -8678, -10625, -8152, 1025, 1122, -4012, -1670, 2420, -243, 139, 135, 107, 68, 63, 63, 46, 92
410235521, 3787, -8590, -10340, -8568, 1018, 1203, -4011, -1980, 2102, 196, 139, 135, 107, 68, 63, 63, 46, 92
410236319, 3787, -8590, -10340, -8568, 1018, 1203, -4011, -1980, 2102, 196, 138, 136, 111, 57, 52, 62, 50, 97
410237148, 3787, -8590, -10340, -8568, 1018, 1203, -4011, -1980, 2102, 196, 138, 136, 111, 57, 52, 62, 50, 97
410242116, 3787, -8590, -10340, -8568, 1018, 1203, -4011, -1980, 2102, 196, 138, 136, 111, 57, 52, 62, 50, 97
410242958, 3787, -8590, -10340, -8568, 1018, 1203, -4011, -1980, 2102, 196, 138, 136, 111, 57, 52, 62, 50, 97
410243743, 3787, -8590, -10340, -8568, 1018, 1203, -4011, -1980, 2102, 196, 138, 136, 111, 57, 52, 62, 50, 97
410244548, 3787, -8590, -10340, -8568, 1018, 1203, -4011, -1980, 2102, 196, 138, 136, 111, 57, 52, 62, 50, 97
410249491, 3787, -8590, -10340, -8568, 1018, 1203, -4011, -1980, 2102, 196, 138, 136, 111, 57, 52, 62, 50, 97
410250298, 3787, -8590, -10340, -8568, 1018, 1203, -4011, -1980, 2102, 196, 138, 136, 111, 57, 52, 62, 50, 97
410251174, 3787, -8590, -10340, -8568, 1018, 1203, -4011, -1980, 2102, 196, 138, 136, 111, 57, 52, 62, 50, 97
410251956, 3787, -8590, -10340, -8568, 1018, 1203, -4011, -1980, 2102, 196, 138, 136, 111, 57, 52, 62, 50, 97
410257026, 3787, -8590, -10340, -8568, 1018, 1203, -4011, -1980, 2102, 196, 138, 136, 111, 57, 52, 62, 50, 97
410257955, 3858, -8563, -10012, -8945, 970, 1270, -4018, -2050, 1861, 587, 138, 136, 111, 57, 52, 62, 50, 97
410258774, 3858, -8563, -10012, -8945, 970, 1270, -4018, -2050, 1861, 587, 143, 139, 109, 53, 45, 58, 51, 98
410259610, 3858, -8563, -10012, -8945, 970, 1270, -4018, -2050, 1861, 587, 143, 139, 109, 53, 45, 58, 51, 98
410264609, 3858, -8563, -10012, -8945, 970, 1270, -4018, -2050, 1861, 587, 143, 139, 109, 53, 45, 58, 51, 98
410265404, 3858, -8563, -10012, -8945, 970, 1270, -4018, -2050, 1861, 587, 143, 139, 109, 53, 45, 58, 51, 98
410266194, 3858, -8563, -10012, -8945, 970, 1270, -4018, -2050, 1861, 587, 143, 139, 109, 53, 45, 58, 51, 98
410267009, 3858, -8563, -10012, -8945, 970, 1270, -4018, -2050, 1861, 587, 143, 139, 109, 53, 45, 58, 51, 98
410272060, 3858, -8563, -10012, -8945, 970, 1270, -4018, -2050, 1861, 587, 143, 139, 109, 53, 45, 58, 51, 98
410272891, 3858, -8563, -10012, -8945, 970, 1270, -4018, -2050, 1861, 587, 143, 139, 109, 53, 45, 58, 51, 98
410273743, 3858, -8563, -10012, -8945, 970, 1270, -4018, -2050, 1861, 587, 143, 139, 109, 53, 45, 58, 51, 98
410274474, 3858, -8563, -10012, -8945, 970, 1270, -4018, -2050, 1861, 587, 143, 139, 109, 53, 45, 58, 51, 98
410279557, 3858, -8563, -10012, -8945, 970, 1270, -4018, -2050, 1861, 587, 143, 139, 109, 53, 45, 58, 51, 98
410280549, 3942, -8579, -9655, -9279, 977, 1262, -4080, -2007, 1679, 915, 143, 139, 109, 53, 45, 58, 51, 98
410281324, 3942, -8579, -9655, -9279, 977, 1262, -4080, -2007, 1679, 915, 218, 142, 92, 52, 41, 42, 49, 91
410282182, 3942, -8579, -9655, -9279, 977, 1262, -4080, -2007, 1679, 915, 218, 142, 92, 52, 41, 42, 49, 91
410287142, 3942, -8579, -9655, -9279, 977, 1262, -4080, -2007, 1679, 915, 218, 142, 92, 52, 41, 42, 49, 91
410287998, 3942, -8579, -9655, -9279, 977, 1262, -4080, -2007, 1679, 915, 218, 142, 92, 52, 41, 42, 49, 91
410288786, 3942, -8579, -9655, -9279, 977, 1262, -4080, -2007, 1679, 915, 218, 142, 92, 52, 41, 42, 49, 91
410289597, 3942, -8579, -9655, -9279, 977, 1262, -4080, -2007, 1679, 915, 218, 142, 92, 52, 41, 42, 49, 91
410294531, 3942, -8579, -9655, -9279, 977, 1262, -4080, -2007, 1679, 915, 218, 142, 92, 52, 41, 42, 49, 91
410295379, 3942, -8579, -9655, -9279, 977, 1262, -4080, -2007, 1679, 915, 218, 142, 92, 52, 41, 42, 49, 91
410296190, 3942, -8579, -9655, -9279, 977, 1262, -4080, -2007, 1679, 915, 218, 142, 92, 52, 41, 42, 49, 91
410296981, 3942, -8579, -9655, -9279, 977, 1262, -4080, -2007, 1679, 915, 218, 142, 92, 52, 41, 42, 49, 91
410302046, 3942, -8579, -9655, -9279, 977, 1262, -4080, -2007, 1679, 915, 218, 142, 92, 52, 41, 42, 49, 91
410302996, 4062, -8641, -9284, -9544, 1080, 1337, -4038, -1784, 1478, 1317, 218, 142, 92, 52, 41, 42, 49, 91
410303800, 4062, -8641, -9284, -9544, 1080, 1337, -4038, -1784, 1478, 1317, 401, 268, 89, 48, 40, 39, 50, 119
410304632, 4062, -8641, -9284, -9544, 1080, 1337, -4038, -1784, 1478, 1317, 401, 268, 89, 48, 40, 39, 50, 119
410309617, 4062, -8641, -9284, -9544, 1080, 1337, -4038, -1784, 1478, 1317, 401, 268, 89, 48, 40, 39, 50, 119
410310448, 4062, -8641, -9284, -9544, 1080, 1337, -4038, -1784, 1478, 1317, 401, 268, 89, 48, 40, 39, 50, 119
410311247, 4062, -8641, -9284, -9544, 1080, 1337, -4038, -1784, 1478, 1317, 401, 268, 89, 48, 40, 39, 50, 119
410312063, 4062, -8641, -9284, -9544, 1080, 1337, -4038, -1784, 1478, 1317, 401, 268, 89, 48, 40, 39, 50, 119
410316997, 4062, -8641, -9284, -9544, 1080, 1337, -4038, -1784, 1478, 1317, 401, 268, 89, 48, 40, 39, 50, 119
410317816, 4062, -8641, -9284, -9544, 1080, 1337, -4038, -1784, 1478, 1317, 401, 268, 89, 48, 40, 39, 50, 119
410318610, 4062, -8641, -9284, -9544, 1080, 1337, -4038, -1784, 1478, 1317, 401, 268, 89, 48, 40, 39, 50, 119
410319428, 4062, -8641, -9284, -9544, 1080, 1337, -4038, -1784, 1478, 1317, 401, 268, 89, 48, 40, 39, 50, 119
410324575, 4062, -8641, -9284, -9544, 1080, 1337, -4038, -1784, 1478, 1317, 401, 268, 89, 48, 40, 39, 50, 119
410325508, 4231, -8766, -8902, -9719, 1168, 1387, -3880, -1476, 1174, 1830, 401, 268, 89, 48, 40, 39, 50, 119
410326297, 4231, -8766, -8902, -9719, 1168, 1387, -3880, -1476, 1174, 1830, 427, 311, 97, 50, 44, 43, 56, 126
410327115, 4231, -8766, -8902, -9719, 1168, 1387, -3880, -1476, 1174, 1830, 427, 311, 97, 50, 44, 43, 56, 126
410332133, 4231, -8766, -8902, -9719, 1168, 1387, -3880, -1476, 1174, 1830, 427, 311, 97, 50, 44, 43, 56, 126
410332977, 4231, -8766, -8902, -9719, 1168, 1387, -3880, -1476, 1174, 1830, 427, 311, 97, 50, 44, 43, 56, 126
410333774, 4231, -8766, -8902, -9719, 1168, 1387, -3880, -1476, 1174, 1830, 427, 311, 97, 50, 44, 43, 56, 126
410334609, 4231, -8766, -8902, -9719, 1168, 1387, -3880, -1476, 1174, 1830, 427, 311, 97, 50, 44, 43, 56, 126
410339534, 4231, -8766, -8902, -9719, 1168, 1387, -3880, -1476, 1174, 1830, 427, 311, 97, 50, 44, 43, 56, 126
410340369, 4231, -8766, -8902, -9719, 1168, 1387, -3880, -1476, 1174, 1830, 427, 311, 97, 50, 44, 43, 56, 126
410341179, 4231, -8766, -8902, -9719, 1168, 1387, -3880, -1476, 1174, 1830, 427, 311, 97, 50, 44, 43, 56, 126
410341980, 4231, -8766, -8902, -9719, 1168, 1387, -3880, -1476, 1174, 1830, 427, 311, 97, 50, 44, 43, 56, 126
410347043, 4231, -8766, -8902, -9719, 1168, 1387, -3880, -1476, 1174, 1830, 427, 311, 97, 50, 44, 43, 56, 126
410347986, 4429, -8979, -8492, -9804, 1247, 1423, -3830, -1336, 740, 2411, 427, 311, 97, 50, 44, 43, 56, 126
410348814, 4429, -8979, -8492, -9804, 1247, 1423, -3830, -1336, 740, 2411, 456, 358, 108, 52, 39, 40, 55, 128
410349610, 4429, -8979, -8492, -9804, 1247, 1423, -3830, -1336, 740, 2411, 456, 358, 108, 52, 39, 40, 55, 128
410354652, 4429, -8979, -8492, -9804, 1247, 1423, -3830, -1336, 740, 2411, 456, 358, 108, 52, 39, 40, 55, 128
410355479, 4429, -8979, -8492, -9804, 1247, 1423, -3830, -1336, 740, 2411, 456, 358, 108, 52, 39, 40, 55, 128
410356246, 4429, -8979, -8492, -9804, 1247, 1423, -3830, -1336, 740, 2411, 456, 358, 108, 52, 39, 40, 55, 128
410357114, 4429, -8979, -8492, -9804, 1247, 1423, -3830, -1336, 740, 2411, 456, 358, 108, 52, 39, 40, 55, 128
410362008, 4429, -8979, -8492, -9804, 1247, 1423, -3830, -1336, 740, 2411, 456, 358, 108, 52, 39, 40, 55, 128
410362837, 4429, -8979, -8492, -9804, 1247, 1423, -3830, -1336, 740, 2411, 456, 358, 108, 52, 39, 40, 55, 128
410363662, 4429, -8979, -8492, -9804, 1247, 1423, -3830, -1336, 740, 2411, 456, 358, 108, 52, 39, 40, 55, 128
410364468, 4429, -8979, -8492, -9804, 1247, 1423, -3830, -1336, 740, 2411, 456, 358, 108, 52, 39, 40, 55, 128
410369543, 4429, -8979, -8492, -9804, 1247, 1423, -3830, -1336, 740, 2411, 456, 358, 108, 52, 39, 40, 55, 128
410370484, 4648, -9278, -8033, -9810, 1359, 1409, -3853, -1334, 348, 2997, 456, 358, 108, 52, 39, 40, 55, 128
410371300, 4648, -9278, -8033, -9810, 1359, 1409, -3853, -1334, 348, 2997, 525, 382, 115, 60, 45, 45, 59, 144
410372140, 4648, -9278, -8033, -9810, 1359, 1409, -3853, -1334, 348, 2997, 525, 382, 115, 60, 45, 45, 59, 144
410377121, 4648, -9278, -8033, -9810, 1359, 1409, -3853, -1334, 348, 2997, 525, 382, 115, 60, 45, 45, 59, 144
410377930, 4648, -9278, -8033, -9810, 1359, 1409, -3853, -1334, 348, 2997, 525, 382, 115, 60, 45, 45, 59, 144
410378783, 4648, -9278, -8033, -9810, 1359, 1409, -3853, -1334, 348, 2997, 525, 382, 115, 60, 45, 45, 59, 144
410379579, 4648, -9278, -8033, -9810, 1359, 1409, -3853, -1334, 348, 2997, 525, 382, 115, 60, 45, 45, 59, 144
410384516, 4648, -9278, -8033, -9810, 1359, 1409, -3853, -1334, 348, 2997, 525, 382, 115, 60, 45, 45, 59, 144
410385307, 4648, -9278, -8033, -9810, 1359, 1409, -3853, -1334, 348, 2997, 525, 382, 115, 60, 45, 45, 59, 144
410386167, 4648, -9278, -8033, -9810, 1359, 1409, -3853, -1334, 348, 2997, 525, 382, 115, 60, 45, 45, 59, 144
410386956, 4648, -9278, -8033, -9810, 1359, 1409, -3853, -1334, 348, 2997, 525, 382, 115, 60, 45, 45, 59, 144
410392101, 4648, -9278, -8033, -9810, 1359, 1409, -3853, -1334, 348, 2997, 525, 382, 115, 60, 45, 45, 59, 144
410393019, 4895, -9648, -7516, -9742, 1490, 1276, -3811, -1351, 47, 3590, 525, 382, 115, 60, 45, 45, 59, 144
410393868, 4895, -9648, -7516, -9742, 1490, 1276, -3811, -1351, 47, 3590, 683, 532, 141, 62, 48, 53, 67, 166
410394657, 4895, -9648, -7516, -9742, 1490, 1276, -3811, -1351, 47, 3590, 525, 382, 115, 60, 45, 45, 59, 144
410399675, 4895, -9648, -7516, -9742, 1490, 1276, -3811, -1351, 47, 3590, 683, 532, 141, 62, 48, 53, 67, 166
410400475, 4895, -9648, -7516, -9742, 1490, 1276, -3811, -1351, 47, 3590, 683, 532, 141, 62, 48, 53, 67, 166
410401309, 4895, -9648, -7516, -9742, 1490, 1276, -3811, -1351, 47, 3590, 683, 532, 141, 62, 48, 53, 67, 166
410402086, 4895, -9648, -7516, -9742, 1490, 1276, -3811, -1351, 47, 3590, 683, 532, 141, 62, 48, 53, 67, 166
410414590, 4895, -9648, -7516, -9742, 1490, 1276, -3811, -1351, 47, 3590, 683, 532, 141, 62, 48, 53, 67, 166
410415330, 4895, -9648, -7516, -9742, 1490, 1276, -3811, -1351, 47, 3590, 683, 532, 141, 62, 48, 53, 67, 166
410416165, 4895, -9648, -7516, -9742, 1490, 1276, -3811, -1351, 47, 3590, 683, 532, 141, 62, 48, 53, 67, 166
410417003, 4895, -9648, -7516, -9742, 1490, 1276, -3811, -1351, 47, 3590, 683, 532, 141, 62, 48, 53, 67, 166
410422060, 4895, -9648, -7516, -9742, 1490, 1276, -3811, -1351, 47, 3590, 683, 532, 141, 62, 48, 53, 67, 166
410422982, 5192, -10078, -6934, -9584, 1615, 869, -3748, -1276, -217, 4279, 683, 532, 141, 62, 48, 53, 67, 166
410423775, 5192, -10078, -6934, -9584, 1615, 869, -3748, -1276, -217, 4279, 680, 621, 193, 79, 54, 57, 75, 184
410424613, 5192, -10078, -6934, -9584, 1615, 869, -3748, -1276, -217, 4279, 680, 621, 193, 79, 54, 57, 75, 184
410429595, 5192, -10078, -6934, -9584, 1615, 869, -3748, -1276, -217, 4279, 680, 621, 193, 79, 54, 57, 75, 184
410430426, 5192, -10078, -6934, -9584, 1615, 869, -3748, -1276, -217, 4279, 680, 621, 193, 79, 54, 57, 75, 184
410431219, 5192, -10078, -6934, -9584, 1615, 869, -3748, -1276, -217, 4279, 680, 621, 193, 79, 54, 57, 75, 184
410432032, 5192, -10078, -6934, -9584, 1615, 869, -3748, -1276, -217, 4279, 680, 621, 193, 79, 54, 57, 75, 184
410437047, 5192, -10078, -6934, -9584, 1615, 869, -3748, -1276, -217, 4279, 680, 621, 193, 79, 54, 57, 75, 184
410437894, 5192, -10078, -6934, -9584, 1615, 869, -3748, -1276, -217, 4279, 680, 621, 193, 79, 54, 57, 75, 184
410438743, 5192, -10078, -6934, -9584, 1615, 869, -3748, -1276, -217, 4279, 680, 621, 193, 79, 54, 57, 75, 184
410439454, 5192, -10078, -6934, -9584, 1615, 869, -3748, -1276, -217, 4279, 680, 621, 193, 79, 54, 57, 75, 184
410444557, 5192, -10078, -6934, -9584, 1615, 869, -3748, -1276, -217, 4279, 680, 621, 193, 79, 54, 57, 75, 184
410445507, 5571, -10541, -6296, -9309, 1816, 508, -3692, -955, -436, 5031, 680, 621, 193, 79, 54, 57, 75, 184
410446323, 5571, -10541, -6296, -9309, 1816, 508, -3692, -955, -436, 5031, 739, 737, 241, 101, 71, 79, 119, 236
410447120, 5571, -10541, -6296, -9309, 1816, 508, -3692, -955, -436, 5031, 739, 737, 241, 101, 71, 79, 119, 236
410452178, 5571, -10541, -6296, -9309, 1816, 508, -3692, -955, -436, 5031, 739, 737, 241, 101, 71, 79, 119, 236
410452943, 5571, -10541, -6296, -9309, 1816, 508, -3692, -955, -436, 5031, 739, 737, 241, 101, 71, 79, 119, 236
410453774, 5571, -10541, -6296, -9309, 1816, 508, -3692, -955, -436, 5031, 739, 737, 241, 101, 71, 79, 119, 236
410454582, 5571, -10541, -6296, -9309, 1816, 508, -3692, -955, -436, 5031, 739, 737, 241, 101, 71, 79, 119, 236
410459542, 5571, -10541, -6296, -9309, 1816, 508, -3692, -955, -436, 5031, 739, 737, 241, 101, 71, 79, 119, 236
410460349, 5571, -10541, -6296, -9309, 1816, 508, -3692, -955, -436, 5031, 739, 737, 241, 101, 71, 79, 119, 236
410461192, 5571, -10541, -6296, -9309, 1816, 508, -3692, -955, -436, 5031, 739, 737, 241, 101, 71, 79, 119, 236
410461969, 5571, -10541, -6296, -9309, 1816, 508, -3692, -955, -436, 5031, 739, 737, 241, 101, 71, 79, 119, 236
410467043, 5571, -10541, -6296, -9309, 1816, 508, -3692, -955, -436, 5031, 739, 737, 241, 101, 71, 79, 119, 236
410467981, 6039, -11034, -5596, -8884, 1890, -21, -3798, -568, -761, 5885, 739, 737, 241, 101, 71, 79, 119, 236
410468774, 6039, -11034, -5596, -8884, 1890, -21, -3798, -568, -761, 5885, 923, 1038, 318, 119, 81, 88, 143, 326
410469589, 6039, -11034, -5596, -8884, 1890, -21, -3798, -568, -761, 5885, 923, 1038, 318, 119, 81, 88, 143, 326
410474631, 6039, -11034, -5596, -8884, 1890, -21, -3798, -568, -761, 5885, 923, 1038, 318, 119, 81, 88, 143, 326
410475426, 6039, -11034, -5596, -8884, 1890, -21, -3798, -568, -761, 5885, 923, 1038, 318, 119, 81, 88, 143, 326
410476236, 6039, -11034, -5596, -8884, 1890, -21, -3798, -568, -761, 5885, 923, 1038, 318, 119, 81, 88, 143, 326
410477051, 6039, -11034, -5596, -8884, 1890, -21, -3798, -568, -761, 5885, 923, 1038, 318, 119, 81, 88, 143, 326
410482027, 6039, -11034, -5596, -8884, 1890, -21, -3798, -568, -761, 5885, 923, 1038, 318, 119, 81, 88, 143, 326
410482813, 6039, -11034, -5596, -8884, 1890, -21, -3798, -568, -761, 5885, 923, 1038, 318, 119, 81, 88, 143, 326
410483640, 6039, -11034, -5596, -8884, 1890, -21, -3798, -568, -761, 5885, 923, 1038, 318, 119, 81, 88, 143, 326
410484448, 6039, -11034, -5596, -8884, 1890, -21, -3798, -568, -761, 5885, 923, 1038, 318, 119, 81, 88, 143, 326
410489586, 6039, -11034, -5596, -8884, 1890, -21, -3798, -568, -761, 5885, 923, 1038, 318, 119, 81, 88, 143, 326
410490498, 6587, -11505, -4913, -8280, 1917, -239, -3942, 180, -1252, 6399, 923, 1038, 318, 119, 81, 88, 143, 326
410491315, 6587, -11505, -4913, -8280, 1917, -239, -3942, 180, -1252, 6399, 1076, 1146, 352, 129, 85, 98, 160, 398
410492138, 6587, -11505, -4913, -8280, 1917, -239, -3942, 180, -1252, 6399, 1076, 1146, 352, 129, 85, 98, 160, 398
410495601, 6587, -11505, -4913, -8280, 1917, -239, -3942, 180, -1252, 6399, 1076, 1146, 352, 129, 85, 98, 160, 398
410496411, 6587, -11505, -4913, -8280, 1917, -239, -3942, 180, -1252, 6399, 1076, 1146, 352, 129, 85, 98, 160, 398
410504537, 6587, -11505, -4913, -8280, 1917, -239, -3942, 180, -1252, 6399, 1076, 1146, 352, 129, 85, 98, 160, 398
410505397, 6587, -11505, -4913, -8280, 1917, -239, -3942, 180, -1252, 6399, 1076, 1146, 352, 129, 85, 98, 160, 398
410506166, 6587, -11505, -4913, -8280, 1917, -239, -3942, 180, -1252, 6399, 1076, 1146, 352, 129, 85, 98, 160, 398
410506976, 6587, -11505, -4913, -8280, 1917, -239, -3942, 180, -1252, 6399, 1076, 1146, 352, 129, 85, 98, 160, 398
410512038, 6587, -11505, -4913, -8280, 1917, -239, -3942, 180, -1252, 6399, 1076, 1146, 352, 129, 85, 98, 160, 398
410512936, 6587, -11505, -4913, -8280, 1917, -239, -3942, 180, -1252, 6399, 1076, 1146, 352, 129, 85, 98, 160, 398
410513739, 6587, -11505, -4913, -8280, 1917, -239, -3942, 180, -1252, 6399, 1076, 1146, 352, 129, 85, 98, 160, 398
410514630, 7167, -11881, -4315, -7569, 1983, -433, -3965, 935, -1544, 6236, 1076, 1146, 352, 129, 85, 98, 160, 398
410519617, 7167, -11881, -4315, -7569, 1983, -433, -3965, 935, -1544, 6236, 1082, 1165, 378, 155, 143, 123, 171, 422
410520399, 7167, -11881, -4315, -7569, 1983, -433, -3965, 935, -1544, 6236, 1082, 1165, 378, 155, 143, 123, 171, 422
410521229, 7167, -11881, -4315, -7569, 1983, -433, -3965, 935, -1544, 6236, 1082, 1165, 378, 155, 143, 123, 171, 422
410522050, 7167, -11881, -4315, -7569, 1983, -433, -3965, 935, -1544, 6236, 1082, 1165, 378, 155, 143, 123, 171, 422
410525459, 7167, -11881, -4315, -7569, 1983, -433, -3965, 935, -1544, 6236, 1082, 1165, 378, 155, 143, 123, 171, 422
410526245, 7167, -11881, -4315, -7569, 1983, -433, -3965, 935, -1544, 6236, 1082, 1165, 378, 155, 143, 123, 171, 422
410534507, 7167, -11881, -4315, -7569, 1983, -433, -3965, 935, -1544, 6236, 1082, 1165, 378, 155, 143, 123, 171, 422
410535321, 7167, -11881, -4315, -7569, 1983, -433, -3965, 935, -1544, 6236, 1082, 1165, 378, 155, 143, 123, 171, 422
410536145, 7167, -11881, -4315, -7569, 1983, -433, -3965, 935, -1544, 6236, 1082, 1165, 378, 155, 143, 123, 171, 422
410537083, 7703, -12165, -3771, -6849, 2066, -319, -4052, 1135, -1539, 5784, 1082, 1165, 378, 155, 143, 123, 171, 422
410542107, 7703, -12165, -3771, -6849, 2066, -319, -4052, 1135, -1539, 5784, 1144, 1145, 380, 160, 165, 175, 177, 455
410542923, 7703, -12165, -3771, -6849, 2066, -319, -4052, 1135, -1539, 5784, 1144, 1145, 380, 160, 165, 175, 177, 455
410543725, 7703, -12165, -3771, -6849, 2066, -319, -4052, 1135, -1539, 5784, 1144, 1145, 380, 160, 165, 175, 177, 455
410544522, 7703, -12165, -3771, -6849, 2066, -319, -4052, 1135, -1539, 5784, 1144, 1145, 380, 160, 165, 175, 177, 455
410549572, 7703, -12165, -3771, -6849, 2066, -319, -4052, 1135, -1539, 5784, 1144, 1145, 380, 160, 165, 175, 177, 455
410550328, 7703, -12165, -3771, -6849, 2066, -319, -4052, 1135, -1539, 5784, 1144, 1145, 380, 160, 165, 175, 177, 455
410551145, 7703, -12165, -3771, -6849, 2066, -319, -4052, 1135, -1539, 5784, 1144, 1145, 380, 160, 165, 175, 177, 455
410551978, 7703, -12165, -3771, -6849, 2066, -319, -4052, 1135, -1539, 5784, 1144, 1145, 380, 160, 165, 175, 177, 455
410556421, 7703, -12165, -3771, -6849, 2066, -319, -4052, 1135, -1539, 5784, 1144, 1145, 380, 160, 165, 175, 177, 455
410557332, 8247, -12346, -3263, -6112, 1921, 355, -3932, 1549, -1448, 5566, 1144, 1145, 380, 160, 165, 175, 177, 455
410558165, 8247, -12346, -3263, -6112, 1921, 355, -3932, 1549, -1448, 5566, 1157, 1155, 399, 162, 182, 181, 169, 460
410558970, 8247, -12346, -3263, -6112, 1921, 355, -3932, 1549, -1448, 5566, 1157, 1155, 399, 162, 182, 181, 169, 460
410570789, 8247, -12346, -3263, -6112, 1921, 355, -3932, 1549, -1448, 5566, 318, 165, 61, 123, 176, 34, 36, 68
410571548, 8247, -12346, -3263, -6112, 1921, 355, -3932, 1549, -1448, 5566, 318, 165, 61, 123, 176, 34, 36, 68
410572465, 9392, -13042, -1015, -3016, 2140, 47, -3660, 61, -464, -376, 318, 165, 61, 123, 176, 34, 36, 68
410584365, 9392, -13042, -1015, -3016, 2140, 47, -3660, 61, -464, -376, 337, 174, 55, 114, 172, 35, 35, 70
410592590, 9392, -13042, -1015, -3016, 2140, 47, -3660, 61, -464, -376, 337, 174, 55, 114, 172, 35, 35, 70
410593518, 9345, -13072, -1129, -2993, 2104, 101, -3634, -183, -520, -472, 337, 174, 55, 114, 172, 35, 35, 70
410607590, 9345, -13072, -1129, -2993, 2104, 101, -3634, -183, -520, -472, 324, 176, 49, 113, 170, 34, 34, 70
410608366, 9345, -13072, -1129, -2993, 2104, 101, -3634, -183, -520, -472, 324, 176, 49, 113, 170, 34, 34, 70
410614529, 9269, -13118, -1263, -2975, 2100, 129, -3674, -341, -582, -599, 324, 176, 49, 113, 170, 34, 34, 70
410630764, 9269, -13118, -1263, -2975, 2100, 129, -3674, -341, -582, -599, 276, 174, 44, 74, 126, 35, 33, 68
410631512, 9269, -13118, -1263, -2975, 2100, 129, -3674, -341, -582, -599, 276, 174, 44, 74, 126, 35, 33, 68
410632464, 9179, -13169, -1413, -2961, 2137, 131, -3728, -409, -629, -696, 276, 174, 44, 74, 126, 35, 33, 68
410653238, 9179, -13169, -1413, -2961, 2137, 131, -3728, -409, -629, -696, 283, 171, 40, 56, 78, 32, 30, 73
410654064, 9179, -13169, -1413, -2961, 2137, 131, -3728, -409, -629, -696, 283, 171, 40, 56, 78, 32, 30, 73
410654979, 9068, -13228, -1576, -2957, 2103, 197, -3768, -516, -645, -808, 283, 171, 40, 56, 78, 32, 30, 73
410667572, 9068, -13228, -1576, -2957, 2103, 197, -3768, -516, -645, -808, 246, 165, 37, 49, 61, 31, 30, 73
410668333, 9068, -13228, -1576, -2957, 2103, 197, -3768, -516, -645, -808, 246, 165, 37, 49, 61, 31, 30, 73
410674525, 8940, -13292, -1752, -2963, 2005, 230, -3735, -601, -647, -908, 246, 165, 37, 49, 61, 31, 30, 73
410691232, 8940, -13292, -1752, -2963, 2005, 230, -3735, -601, -647, -908, 198, 132, 43, 45, 56, 28, 28, 69
410692017, 8940, -13292, -1752, -2963, 2005, 230, -3735, -601, -647, -908, 198, 132, 43, 45, 56, 28, 28, 69
410692927, 8801, -13356, -1944, -2973, 1925, 276, -3663, -639, -691, -1008, 198, 132, 43, 45, 56, 28, 28, 69
410713189, 8801, -13356, -1944, -2973, 1925, 276, -3663, -639, -691, -1008, 167, 114, 65, 37, 48, 26, 26, 67
410713995, 8801, -13356, -1944, -2973, 1925, 276, -3663, -639, -691, -1008, 167, 114, 65, 37, 48, 26, 26, 67
410714920, 8655, -13415, -2158, -2988, 1848, 417, -3691, -637, -732, -1130, 167, 114, 65, 37, 48, 26, 26, 67
410727527, 8655, -13415, -2158, -2988, 1848, 417, -3691, -637, -732, -1130, 118, 73, 75, 35, 40, 24, 24, 69
410728320, 8655, -13415, -2158, -2988, 1848, 417, -3691, -637, -732, -1130, 118, 73, 75, 35, 40, 24, 24, 69
410734490, 8484, -13478, -2393, -3015, 1734, 521, -3662, -748, -759, -1282, 118, 73, 75, 35, 40, 24, 24, 69
410750757, 8484, -13478, -2393, -3015, 1734, 521, -3662, -748, -759, -1282, 74, 57, 77, 30, 33, 25, 25, 57
410751532, 8484, -13478, -2393, -3015, 1734, 521, -3662, -748, -759, -1282, 74, 57, 77, 30, 33, 25, 25, 57
410752498, 8280, -13549, -2645, -3052, 1668, 507, -3694, -916, -802, -1423, 74, 57, 77, 30, 33, 25, 25, 57
410773228, 8280, -13549, -2645, -3052, 1668, 507, -3694, -916, -802, -1423, 58, 54, 78, 30, 34, 27, 24, 44
410774035, 8280, -13549, -2645, -3052, 1668, 507, -3694, -916, -802, -1423, 58, 54, 78, 30, 34, 27, 24, 44
410774960, 8036, -13633, -2908, -3091, 1662, 487, -3749, -1126, -875, -1507, 58, 54, 78, 30, 34, 27, 24, 44
410787559, 8036, -13633, -2908, -3091, 1662, 487, -3749, -1126, -875, -1507, 38, 43, 72, 26, 26, 27, 25, 35
410788371, 8036, -13633, -2908, -3091, 1662, 487, -3749, -1126, -875, -1507, 38, 43, 72, 26, 26, 27, 25, 35
410794519, 7780, -13710, -3186, -3133, 1625, 567, -3825, -1156, -904, -1604, 38, 43, 72, 26, 26, 27, 25, 35
410810780, 7780, -13710, -3186, -3133, 1625, 567, -3825, -1156, -904, -1604, 38, 43, 55, 25, 26, 26, 25, 34
410811584, 7780, -13710, -3186, -3133, 1625, 567, -3825, -1156, -904, -1604, 38, 43, 55, 25, 26, 26, 25, 34
410812508, 7497, -13784, -3478, -3183, 1557, 639, -3829, -1263, -929, -1721, 38, 43, 55, 25, 26, 26, 25, 34
410833201, 7497, -13784, -3478, -3183, 1557, 639, -3829, -1263, -929, -1721, 34, 41, 41, 22, 24, 25, 23, 25
410834074, 7497, -13784, -3478, -3183, 1557, 639, -3829, -1263, -929, -1721, 34, 41, 41, 22, 24, 25, 23, 25
410834959, 7179, -13855, -3791, -3253, 1510, 661, -3778, -1422, -927, -1916, 34, 41, 41, 22, 24, 25, 23, 25
410847556, 7179, -13855, -3791, -3253, 1510, 661, -3778, -1422, -927, -1916, 33, 40, 37, 21, 24, 23, 24, 23
410848376, 7179, -13855, -3791, -3253, 1510, 661, -3778, -1422, -927, -1916, 33, 40, 37, 21, 24, 23, 24, 23
410854508, 6813, -13924, -4123, -3340, 1447, 480, -3817, -1649, -952, -2103, 33, 40, 37, 21, 24, 23, 24, 23
410870770, 6813, -13924, -4123, -3340, 1447, 480, -3817, -1649, -952, -2103, 33, 41, 35, 20, 26, 23, 25, 25
410871505, 6813, -13924, -4123, -3340, 1447, 480, -3817, -1649, -952, -2103, 33, 41, 35, 20, 26, 23, 25, 25
410872495, 6437, -13974, -4466, -3433, 1365, 565, -3903, -1645, -943, -2210, 33, 41, 35, 20, 26, 23, 25, 25
410893228, 6437, -13974, -4466, -3433, 1365, 565, -3903, -1645, -943, -2210, 36, 46, 35, 23, 25, 25, 27, 28
410894062, 6437, -13974, -4466, -3433, 1365, 565, -3903, -1645, -943, -2210, 36, 46, 35, 23, 25, 25, 27, 28
410894983, 6073, -13996, -4821, -3526, 1317, 597, -3869, -1513, -918, -2290, 36, 46, 35, 23, 25, 25, 27, 28
410907494, 6073, -13996, -4821, -3526, 1317, 597, -3869, -1513, -918, -2290, 39, 49, 30, 25, 23, 26, 28, 36
410908377, 6073, -13996, -4821, -3526, 1317, 597, -3869, -1513, -918, -2290, 39, 49, 30, 25, 23, 26, 28, 36
410914518, 5672, -14006, -5207, -3604, 1339, 563, -3745, -1319, -925, -2346, 39, 49, 30, 25, 23, 26, 28, 36
410930784, 5672, -14006, -5207, -3604, 1339, 563, -3745, -1319, -925, -2346, 41, 51, 30, 25, 25, 26, 31, 38
410931554, 5672, -14006, -5207, -3604, 1339, 563, -3745, -1319, -925, -2346, 41, 51, 30, 25, 25, 26, 31, 38
410932468, 5283, -13992, -5596, -3669, 1278, 463, -3664, -1225, -946, -2387, 41, 51, 30, 25, 25, 26, 31, 38
410953254, 5283, -13992, -5596, -3669, 1278, 463, -3664, -1225, -946, -2387, 43, 54, 32, 28, 28, 28, 32, 42
410954060, 5283, -13992, -5596, -3669, 1278, 463, -3664, -1225, -946, -2387, 43, 54, 32, 28, 28, 28, 32, 42
410955026, 4916, -13957, -5982, -3703, 1064, 518, -3744, -1044, -993, -2342, 43, 54, 32, 28, 28, 28, 32, 42
410967524, 4916, -13957, -5982, -3703, 1064, 518, -3744, -1044, -993, -2342, 44, 53, 33, 28, 26, 26, 30, 44
410968353, 4916, -13957, -5982, -3703, 1064, 518, -3744, -1044, -993, -2342, 44, 53, 33, 28, 26, 26, 30, 44
410974512, 4614, -13887, -6370, -3706, 913, 740, -3681, -610, -962, -2281, 44, 53, 33, 28, 26, 26, 30, 44
410998224, 4614, -13887, -6370, -3706, 913, 740, -3681, -610, -962, -2281, 43, 49, 30, 25, 26, 25, 28, 43
410999008, 4614, -13887, -6370, -3706, 913, 740, -3681, -610, -962, -2281, 43, 49, 30, 25, 26, 25, 28, 43
410999978, 4335, -13797, -6758, -3693, 849, 814, -3593, -447, -970, -2270, 43, 49, 30, 25, 26, 25, 28, 43
411013194, 4335, -13797, -6758, -3693, 849, 814, -3593, -447, -970, -2270, 40, 44, 33, 23, 27, 25, 28, 38
411014029, 4335, -13797, -6758, -3693, 849, 814, -3593, -447, -970, -2270, 40, 44, 33, 23, 27, 25, 28, 38
411014960, 4046, -13697, -7139, -3673, 830, 755, -3527, -500, -1010, -2278, 40, 44, 33, 23, 27, 25, 28, 38
