Timestamp, Orientation x, Orientation y, Orientation z, Orientation w, Acceleration x, Acceleration y, Acceleration z, Rotation x, Rotation y, Rotation z, EMG 0, EMG 1, EMG 2, EMG 3, EMG 4, EMG 5, EMG 6, EMG 7
282114304, -1588, -14184, -7831, 1850, 88, 596, -2525, 103, -30, 135, 0, 0, 0, 0, 0, 0, 0, 0
282115111, -1576, -14208, -7808, 1770, 97, 574, -2540, 86, -21, 122, 0, 0, 0, 0, 0, 0, 0, 0
282121094, -1561, -14232, -7785, 1689, 101, 578, -2545, 97, 0, 119, 0, 0, 0, 0, 0, 0, 0, 0
282136127, -1542, -14255, -7764, 1612, 94, 598, -2552, 127, 10, 103, 0, 0, 0, 0, 0, 0, 0, 0
282158584, -1518, -14273, -7750, 1537, 90, 602, -2582, 154, 20, 52, 0, 0, 0, 0, 0, 0, 0, 0
282182454, -1480, -14285, -7751, 1453, 155, 624, -2656, 196, 83, -40, 0, 0, 0, 0, 0, 0, 0, 0
282183243, -1480, -14285, -7751, 1453, 155, 624, -2656, 196, 83, -40, 99, 226, 76, 126, 123, 31, 26, 64
282184062, -1480, -14285, -7751, 1453, 155, 624, -2656, 196, 83, -40, 99, 226, 76, 126, 123, 31, 26, 64
282196748, -1434, -14290, -7770, 1351, 208, 707, -2795, 215, 164, -150, 99, 226, 76, 126, 123, 31, 26, 64
282197555, -1434, -14290, -7770, 1351, 208, 707, -2795, 215, 164, -150, 106, 224, 88, 126, 123, 24, 26, 42
282211054, -1434, -14290, -7770, 1351, 208, 707, -2795, 215, 164, -150, 106, 224, 88, 126, 123, 24, 26, 42
282221343, -1391, -14285, -7807, 1231, 198, 765, -3065, 152, 245, -257, 106, 224, 88, 126, 123, 24, 26, 42
282222143, -1391, -14285, -7807, 1231, 198, 765, -3065, 152, 245, -257, 127, 234, 101, 112, 96, 25, 30, 42
282222985, -1391, -14285, -7807, 1231, 198, 765, -3065, 152, 245, -257, 127, 234, 101, 112, 96, 25, 30, 42
282223777, -1391, -14285, -7807, 1231, 198, 765, -3065, 152, 245, -257, 127, 234, 101, 112, 96, 25, 30, 42
282228664, -1391, -14285, -7807, 1231, 198, 765, -3065, 152, 245, -257, 127, 234, 101, 112, 96, 25, 30, 42
282229465, -1391, -14285, -7807, 1231, 198, 765, -3065, 152, 245, -257, 127, 234, 101, 112, 96, 25, 30, 42
282230263, -1391, -14285, -7807, 1231, 198, 765, -3065, 152, 245, -257, 127, 234, 101, 112, 96, 25, 30, 42
282231066, -1391, -14285, -7807, 1231, 198, 765, -3065, 152, 245, -257, 127, 234, 101, 112, 96, 25, 30, 42
282233542, -1391, -14285, -7807, 1231, 198, 765, -3065, 152, 245, -257, 127, 234, 101, 112, 96, 25, 30, 42
282243866, -1350, -14276, -7855, 1068, 306, 698, -3283, -31, 400, -287, 127, 234, 101, 112, 96, 25, 30, 42
282244661, -1350, -14276, -7855, 1068, 306, 698, -3283, -31, 400, -287, 146, 235, 106, 93, 62, 24, 25, 39
282245503, -1350, -14276, -7855, 1068, 306, 698, -3283, -31, 400, -287, 146, 235, 106, 93, 62, 24, 25, 39
282246323, -1350, -14276, -7855, 1068, 306, 698, -3283, -31, 400, -287, 146, 235, 106, 93, 62, 24, 25, 39
282251178, -1350, -14276, -7855, 1068, 306, 698, -3283, -31, 400, -287, 146, 235, 106, 93, 62, 24, 25, 39
282252005, -1350, -14276, -7855, 1068, 306, 698, -3283, -31, 400, -287, 146, 235, 106, 93, 62, 24, 25, 39
282252823, -1350, -14276, -7855, 1068, 306, 698, -3283, -31, 400, -287, 146, 235, 106, 93, 62, 24, 25, 39
282253643, -1350, -14276, -7855, 1068, 306, 698, -3283, -31, 400, -287, 146, 235, 106, 93, 62, 24, 25, 39
282256756, -1350, -14276, -7855, 1068, 306, 698, -3283, -31, 400, -287, 146, 235, 106, 93, 62, 24, 25, 39
282257658, -1300, -14267, -7905, 858, 389, 595, -3497, -187, 637, -265, 146, 235, 106, 93, 62, 24, 25, 39
282266249, -1300, -14267, -7905, 858, 389, 595, -3497, -187, 637, -265, 171, 249, 129, 57, 64, 25, 28, 38
282267060, -1300, -14267, -7905, 858, 389, 595, -3497, -187, 637, -265, 171, 249, 129, 57, 64, 25, 28, 38
282267905, -1300, -14267, -7905, 858, 389, 595, -3497, -187, 637, -265, 171, 249, 129, 57, 64, 25, 28, 38
282268742, -1300, -14267, -7905, 858, 389, 595, -3497, -187, 637, -265, 171, 249, 129, 57, 64, 25, 28, 38
282272987, -1300, -14267, -7905, 858, 389, 595, -3497, -187, 637, -265, 171, 249, 129, 57, 64, 25, 28, 38
282273801, -1300, -14267, -7905, 858, 389, 595, -3497, -187, 637, -265, 171, 249, 129, 57, 64, 25, 28, 38
282274609, -1300, -14267, -7905, 858, 389, 595, -3497, -187, 637, -265, 171, 249, 129, 57, 64, 25, 28, 38
282275428, -1300, -14267, -7905, 858, 389, 595, -3497, -187, 637, -265, 171, 249, 129, 57, 64, 25, 28, 38
282281360, -1233, -14259, -7953, 605, 415, 563, -3644, -259, 919, -227, 171, 249, 129, 57, 64, 25, 28, 38
282282167, -1233, -14259, -7953, 605, 415, 563, -3644, -259, 919, -227, 187, 261, 138, 116, 99, 30, 31, 41
282283024, -1233, -14259, -7953, 605, 415, 563, -3644, -259, 919, -227, 187, 261, 138, 116, 99, 30, 31, 41
282283800, -1233, -14259, -7953, 605, 415, 563, -3644, -259, 919, -227, 187, 261, 138, 116, 99, 30, 31, 41
282288770, -1233, -14259, -7953, 605, 415, 563, -3644, -259, 919, -227, 187, 261, 138, 116, 99, 30, 31, 41
282289448, -1233, -14259, -7953, 605, 415, 563, -3644, -259, 919, -227, 187, 261, 138, 116, 99, 30, 31, 41
282290338, -1233, -14259, -7953, 605, 415, 563, -3644, -259, 919, -227, 187, 261, 138, 116, 99, 30, 31, 41
282291129, -1233, -14259, -7953, 605, 415, 563, -3644, -259, 919, -227, 187, 261, 138, 116, 99, 30, 31, 41
282293519, -1233, -14259, -7953, 605, 415, 563, -3644, -259, 919, -227, 187, 261, 138, 116, 99, 30, 31, 41
282303806, -1131, -14250, -8000, 315, 469, 491, -3698, -242, 1239, -210, 187, 261, 138, 116, 99, 30, 31, 41
282304634, -1131, -14250, -8000, 315, 469, 491, -3698, -242, 1239, -210, 193, 231, 144, 129, 125, 33, 34, 41
282305442, -1131, -14250, -8000, 315, 469, 491, -3698, -242, 1239, -210, 193, 231, 144, 129, 125, 33, 34, 41
282306273, -1131, -14250, -8000, 315, 469, 491, -3698, -242, 1239, -210, 193, 231, 144, 129, 125, 33, 34, 41
282311176, -1131, -14250, -8000, 315, 469, 491, -3698, -242, 1239, -210, 193, 231, 144, 129, 125, 33, 34, 41
282312009, -1131, -14250, -8000, 315, 469, 491, -3698, -242, 1239, -210, 193, 231, 144, 129, 125, 33, 34, 41
282312854, -1131, -14250, -8000, 315, 469, 491, -3698, -242, 1239, -210, 193, 231, 144, 129, 125, 33, 34, 41
282313648, -1131, -14250, -8000, 315, 469, 491, -3698, -242, 1239, -210, 193, 231, 144, 129, 125, 33, 34, 41
282316784, -1131, -14250, -8000, 315, 469, 491, -3698, -242, 1239, -210, 193, 231, 144, 129, 125, 33, 34, 41
282317633, -1008, -14234, -8052, -4, 475, 452, -3690, -258, 1517, -230, 193, 231, 144, 129, 125, 33, 34, 41
282324088, -1008, -14234, -8052, -4, 475, 452, -3690, -258, 1517, -230, 192, 230, 142, 147, 129, 35, 31, 41
282333742, -1008, -14234, -8052, -4, 475, 452, -3690, -258, 1517, -230, 192, 230, 142, 147, 129, 35, 31, 41
282334426, -1008, -14234, -8052, -4, 475, 452, -3690, -258, 1517, -230, 192, 230, 142, 147, 129, 35, 31, 41
282335324, -1008, -14234, -8052, -4, 475, 452, -3690, -258, 1517, -230, 192, 230, 142, 147, 129, 35, 31, 41
282336115, -1008, -14234, -8052, -4, 475, 452, -3690, -258, 1517, -230, 192, 230, 142, 147, 129, 35, 31, 41
282341175, -1008, -14234, -8052, -4, 475, 452, -3690, -258, 1517, -230, 192, 230, 142, 147, 129, 35, 31, 41
282341980, -1008, -14234, -8052, -4, 475, 452, -3690, -258, 1517, -230, 192, 230, 142, 147, 129, 35, 31, 41
282342829, -1008, -14234, -8052, -4, 475, 452, -3690, -258, 1517, -230, 192, 230, 142, 147, 129, 35, 31, 41
282343768, -881, -14209, -8106, -304, 442, 404, -3717, -218, 1755, -236, 192, 230, 142, 147, 129, 35, 31, 41
282348766, -881, -14209, -8106, -304, 442, 404, -3717, -218, 1755, -236, 191, 250, 158, 169, 137, 35, 34, 41
282349621, -881, -14209, -8106, -304, 442, 404, -3717, -218, 1755, -236, 191, 250, 158, 169, 137, 35, 34, 41
282350397, -881, -14209, -8106, -304, 442, 404, -3717, -218, 1755, -236, 191, 250, 158, 169, 137, 35, 34, 41
282351205, -881, -14209, -8106, -304, 442, 404, -3717, -218, 1755, -236, 191, 250, 158, 169, 137, 35, 34, 41
282356222, -881, -14209, -8106, -304, 442, 404, -3717, -218, 1755, -236, 191, 250, 158, 169, 137, 35, 34, 41
282357033, -881, -14209, -8106, -304, 442, 404, -3717, -218, 1755, -236, 191, 250, 158, 169, 137, 35, 34, 41
282357838, -881, -14209, -8106, -304, 442, 404, -3717, -218, 1755, -236, 191, 250, 158, 169, 137, 35, 34, 41
282358702, -881, -14209, -8106, -304, 442, 404, -3717, -218, 1755, -236, 191, 250, 158, 169, 137, 35, 34, 41
282363743, -881, -14209, -8106, -304, 442, 404, -3717, -218, 1755, -236, 191, 250, 158, 169, 137, 35, 34, 41
282364686, -726, -14179, -8155, -626, 401, 413, -3796, -151, 1967, -216, 191, 250, 158, 169, 137, 35, 34, 41
282365463, -726, -14179, -8155, -626, 401, 413, -3796, -151, 1967, -216, 187, 263, 159, 195, 166, 38, 33, 42
282366269, -726, -14179, -8155, -626, 401, 413, -3796, -151, 1967, -216, 187, 263, 159, 195, 166, 38, 33, 42
282371295, -726, -14179, -8155, -626, 401, 413, -3796, -151, 1967, -216, 187, 263, 159, 195, 166, 38, 33, 42
282372155, -726, -14179, -8155, -626, 401, 413, -3796, -151, 1967, -216, 187, 263, 159, 195, 166, 38, 33, 42
282372930, -726, -14179, -8155, -626, 401, 413, -3796, -151, 1967, -216, 187, 263, 159, 195, 166, 38, 33, 42
282373769, -726, -14179, -8155, -626, 401, 413, -3796, -151, 1967, -216, 187, 263, 159, 195, 166, 38, 33, 42
282378742, -726, -14179, -8155, -626, 401, 413, -3796, -151, 1967, -216, 187, 263, 159, 195, 166, 38, 33, 42
282379424, -726, -14179, -8155, -626, 401, 413, -3796, -151, 1967, -216, 187, 263, 159, 195, 166, 38, 33, 42
282380324, -726, -14179, -8155, -626, 401, 413, -3796, -151, 1967, -216, 187, 263, 159, 195, 166, 38, 33, 42
282381166, -726, -14179, -8155, -626, 401, 413, -3796, -151, 1967, -216, 187, 263, 159, 195, 166, 38, 33, 42
282386196, -726, -14179, -8155, -626, 401, 413, -3796, -151, 1967, -216, 187, 263, 159, 195, 166, 38, 33, 42
282387129, -547, -14141, -8201, -966, 396, 427, -3841, -83, 2146, -204, 187, 263, 159, 195, 166, 38, 33, 42
282387957, -547, -14141, -8201, -966, 396, 427, -3841, -83, 2146, -204, 222, 302, 165, 179, 161, 35, 36, 41
282388811, -547, -14141, -8201, -966, 396, 427, -3841, -83, 2146, -204, 222, 302, 165, 179, 161, 35, 36, 41
282393775, -547, -14141, -8201, -966, 396, 427, -3841, -83, 2146, -204, 222, 302, 165, 179, 161, 35, 36, 41
282394623, -547, -14141, -8201, -966, 396, 427, -3841, -83, 2146, -204, 222, 302, 165, 179, 161, 35, 36, 41
282395422, -547, -14141, -8201, -966, 396, 427, -3841, -83, 2146, -204, 222, 302, 165, 179, 161, 35, 36, 41
282396242, -547, -14141, -8201, -966, 396, 427, -3841, -83, 2146, -204, 222, 302, 165, 179, 161, 35, 36, 41
282401143, -547, -14141, -8201, -966, 396, 427, -3841, -83, 2146, -204, 222, 302, 165, 179, 161, 35, 36, 41
282402009, -547, -14141, -8201, -966, 396, 427, -3841, -83, 2146, -204, 222, 302, 165, 179, 161, 35, 36, 41
282402824, -547, -14141, -8201, -966, 396, 427, -3841, -83, 2146, -204, 222, 302, 165, 179, 161, 35, 36, 41
282403624, -547, -14141, -8201, -966, 396, 427, -3841, -83, 2146, -204, 222, 302, 165, 179, 161, 35, 36, 41
282408747, -547, -14141, -8201, -966, 396, 427, -3841, -83, 2146, -204, 222, 302, 165, 179, 161, 35, 36, 41
282409673, -350, -14093, -8244, -1328, 384, 404, -3818, -66, 2334, -210, 222, 302, 165, 179, 161, 35, 36, 41
282410506, -350, -14093, -8244, -1328, 384, 404, -3818, -66, 2334, -210, 222, 302, 165, 179, 161, 35, 36, 41
282411297, -350, -14093, -8244, -1328, 384, 404, -3818, -66, 2334, -210, 228, 354, 170, 171, 146, 34, 33, 42
282416324, -350, -14093, -8244, -1328, 384, 404, -3818, -66, 2334, -210, 228, 354, 170, 171, 146, 34, 33, 42
282417125, -350, -14093, -8244, -1328, 384, 404, -3818, -66, 2334, -210, 228, 354, 170, 171, 146, 34, 33, 42
282417971, -350, -14093, -8244, -1328, 384, 404, -3818, -66, 2334, -210, 228, 354, 170, 171, 146, 34, 33, 42
282418765, -350, -14093, -8244, -1328, 384, 404, -3818, -66, 2334, -210, 228, 354, 170, 171, 146, 34, 33, 42
282423776, -350, -14093, -8244, -1328, 384, 404, -3818, -66, 2334, -210, 228, 354, 170, 171, 146, 34, 33, 42
282424505, -350, -14093, -8244, -1328, 384, 404, -3818, -66, 2334, -210, 228, 354, 170, 171, 146, 34, 33, 42
282425375, -350, -14093, -8244, -1328, 384, 404, -3818, -66, 2334, -210, 228, 354, 170, 171, 146, 34, 33, 42
282426163, -350, -14093, -8244, -1328, 384, 404, -3818, -66, 2334, -210, 228, 354, 170, 171, 146, 34, 33, 42
282431230, -350, -14093, -8244, -1328, 384, 404, -3818, -66, 2334, -210, 228, 354, 170, 171, 146, 34, 33, 42
282432153, -144, -14030, -8287, -1707, 343, 423, -3838, -69, 2478, -242, 228, 354, 170, 171, 146, 34, 33, 42
282432958, -144, -14030, -8287, -1707, 343, 423, -3838, -69, 2478, -242, 242, 380, 178, 161, 148, 32, 34, 41
282433764, -144, -14030, -8287, -1707, 343, 423, -3838, -69, 2478, -242, 242, 380, 178, 161, 148, 32, 34, 41
282438774, -144, -14030, -8287, -1707, 343, 423, -3838, -69, 2478, -242, 242, 380, 178, 161, 148, 32, 34, 41
282439624, -144, -14030, -8287, -1707, 343, 423, -3838, -69, 2478, -242, 242, 380, 178, 161, 148, 32, 34, 41
282440423, -144, -14030, -8287, -1707, 343, 423, -3838, -69, 2478, -242, 242, 380, 178, 161, 148, 32, 34, 41
282441242, -144, -14030, -8287, -1707, 343, 423, -3838, -69, 2478, -242, 242, 380, 178, 161, 148, 32, 34, 41
282446172, -144, -14030, -8287, -1707, 343, 423, -3838, -69, 2478, -242, 242, 380, 178, 161, 148, 32, 34, 41
282446994, -144, -14030, -8287, -1707, 343, 423, -3838, -69, 2478, -242, 242, 380, 178, 161, 148, 32, 34, 41
282447800, -144, -14030, -8287, -1707, 343, 423, -3838, -69, 2478, -242, 242, 380, 178, 161, 148, 32, 34, 41
282448651, -144, -14030, -8287, -1707, 343, 423, -3838, -69, 2478, -242, 242, 380, 178, 161, 148, 32, 34, 41
282453765, -144, -14030, -8287, -1707, 343, 423, -3838, -69, 2478, -242, 242, 380, 178, 161, 148, 32, 34, 41
282454668, 57, -13954, -8328, -2096, 304, 415, -3886, -125, 2557, -267, 242, 380, 178, 161, 148, 32, 34, 41
282455428, 57, -13954, -8328, -2096, 304, 415, -3886, -125, 2557, -267, 242, 406, 169, 139, 142, 32, 34, 43
282456287, 57, -13954, -8328, -2096, 304, 415, -3886, -125, 2557, -267, 242, 406, 169, 139, 142, 32, 34, 43
282461255, 57, -13954, -8328, -2096, 304, 415, -3886, -125, 2557, -267, 242, 406, 169, 139, 142, 32, 34, 43
282462100, 57, -13954, -8328, -2096, 304, 415, -3886, -125, 2557, -267, 242, 406, 169, 139, 142, 32, 34, 43
282462877, 57, -13954, -8328, -2096, 304, 415, -3886, -125, 2557, -267, 242, 406, 169, 139, 142, 32, 34, 43
282463772, 57, -13954, -8328, -2096, 304, 415, -3886, -125, 2557, -267, 242, 406, 169, 139, 142, 32, 34, 43
282468653, 57, -13954, -8328, -2096, 304, 415, -3886, -125, 2557, -267, 242, 406, 169, 139, 142, 32, 34, 43
282469494, 57, -13954, -8328, -2096, 304, 415, -3886, -125, 2557, -267, 242, 406, 169, 139, 142, 32, 34, 43
282470292, 57, -13954, -8328, -2096, 304, 415, -3886, -125, 2557, -267, 242, 406, 169, 139, 142, 32, 34, 43
282471126, 57, -13954, -8328, -2096, 304, 415, -3886, -125, 2557, -267, 242, 406, 169, 139, 142, 32, 34, 43
282476233, 57, -13954, -8328, -2096, 304, 415, -3886, -125, 2557, -267, 242, 406, 169, 139, 142, 32, 34, 43
282477174, 251, -13865, -8363, -2492, 292, 430, -3935, -191, 2614, -278, 242, 406, 169, 139, 142, 32, 34, 43
282477994, 251, -13865, -8363, -2492, 292, 430, -3935, -191, 2614, -278, 235, 404, 172, 119, 110, 29, 33, 41
282478800, 251, -13865, -8363, -2492, 292, 430, -3935, -191, 2614, -278, 235, 404, 172, 119, 110, 29, 33, 41
282491324, 251, -13865, -8363, -2492, 292, 430, -3935, -191, 2614, -278, 235, 404, 172, 119, 110, 29, 33, 41
282492115, 251, -13865, -8363, -2492, 292, 430, -3935, -191, 2614, -278, 235, 404, 172, 119, 110, 29, 33, 41
282492971, 251, -13865, -8363, -2492, 292, 430, -3935, -191, 2614, -278, 235, 404, 172, 119, 110, 29, 33, 41
282493743, 251, -13865, -8363, -2492, 292, 430, -3935, -191, 2614, -278, 235, 404, 172, 119, 110, 29, 33, 41
282498737, 251, -13865, -8363, -2492, 292, 430, -3935, -191, 2614, -278, 235, 404, 172, 119, 110, 29, 33, 41
282499487, 251, -13865, -8363, -2492, 292, 430, -3935, -191, 2614, -278, 235, 404, 172, 119, 110, 29, 33, 41
282500324, 251, -13865, -8363, -2492, 292, 430, -3935, -191, 2614, -278, 235, 404, 172, 119, 110, 29, 33, 41
282501143, 251, -13865, -8363, -2492, 292, 430, -3935, -191, 2614, -278, 235, 404, 172, 119, 110, 29, 33, 41
282506259, 251, -13865, -8363, -2492, 292, 430, -3935, -191, 2614, -278, 214, 418, 180, 107, 104, 27, 28, 37
282507101, 251, -13865, -8363, -2492, 292, 430, -3935, -191, 2614, -278, 214, 418, 180, 107, 104, 27, 28, 37
282507900, 251, -13865, -8363, -2492, 292, 430, -3935, -191, 2614, -278, 214, 418, 180, 107, 104, 27, 28, 37
282508768, 251, -13865, -8363, -2492, 292, 430, -3935, -191, 2614, -278, 214, 418, 180, 107, 104, 27, 28, 37
282513747, 251, -13865, -8363, -2492, 292, 430, -3935, -191, 2614, -278, 214, 418, 180, 107, 104, 27, 28, 37
282514532, 251, -13865, -8363, -2492, 292, 430, -3935, -191, 2614, -278, 214, 418, 180, 107, 104, 27, 28, 37
282515331, 251, -13865, -8363, -2492, 292, 430, -3935, -191, 2614, -278, 214, 418, 180, 107, 104, 27, 28, 37
282516143, 251, -13865, -8363, -2492, 292, 430, -3935, -191, 2614, -278, 214, 418, 180, 107, 104, 27, 28, 37
282521245, 251, -13865, -8363, -2492, 292, 430, -3935, -191, 2614, -278, 214, 418, 180, 107, 104, 27, 28, 37
282522125, 612, -13656, -8401, -3321, 370, 437, -3986, -376, 2741, -259, 214, 418, 180, 107, 104, 27, 28, 37
282522975, 612, -13656, -8401, -3321, 370, 437, -3986, -376, 2741, -259, 207, 408, 186, 114, 103, 28, 31, 38
282523774, 612, -13656, -8401, -3321, 370, 437, -3986, -376, 2741, -259, 207, 408, 186, 114, 103, 28, 31, 38
282528827, 612, -13656, -8401, -3321, 370, 437, -3986, -376, 2741, -259, 207, 408, 186, 114, 103, 28, 31, 38
282529595, 612, -13656, -8401, -3321, 370, 437, -3986, -376, 2741, -259, 207, 408, 186, 114, 103, 28, 31, 38
282530429, 612, -13656, -8401, -3321, 370, 437, -3986, -376, 2741, -259, 207, 408, 186, 114, 103, 28, 31, 38
282531219, 612, -13656, -8401, -3321, 370, 437, -3986, -376, 2741, -259, 207, 408, 186, 114, 103, 28, 31, 38
282536167, 612, -13656, -8401, -3321, 370, 437, -3986, -376, 2741, -259, 207, 408, 186, 114, 103, 28, 31, 38
282537019, 612, -13656, -8401, -3321, 370, 437, -3986, -376, 2741, -259, 207, 408, 186, 114, 103, 28, 31, 38
282537800, 612, -13656, -8401, -3321, 370, 437, -3986, -376, 2741, -259, 207, 408, 186, 114, 103, 28, 31, 38
282538607, 612, -13656, -8401, -3321, 370, 437, -3986, -376, 2741, -259, 207, 408, 186, 114, 103, 28, 31, 38
282543741, 612, -13656, -8401, -3321, 370, 437, -3986, -376, 2741, -259, 207, 408, 186, 114, 103, 28, 31, 38
282544664, 780, -13539, -8398, -3744, 399, 378, -4033, -446, 2774, -204, 207, 408, 186, 114, 103, 28, 31, 38
282545440, 780, -13539, -8398, -3744, 399, 378, -4033, -446, 2774, -204, 182, 432, 240, 118, 98, 28, 36, 45
282546247, 780, -13539, -8398, -3744, 399, 378, -4033, -446, 2774, -204, 182, 432, 240, 118, 98, 28, 36, 45
282551275, 780, -13539, -8398, -3744, 399, 378, -4033, -446, 2774, -204, 182, 432, 240, 118, 98, 28, 36, 45
282552077, 780, -13539, -8398, -3744, 399, 378, -4033, -446, 2774, -204, 182, 432, 240, 118, 98, 28, 36, 45
282552867, 780, -13539, -8398, -3744, 399, 378, -4033, -446, 2774, -204, 182, 432, 240, 118, 98, 28, 36, 45
282553717, 780, -13539, -8398, -3744, 399, 378, -4033, -446, 2774, -204, 182, 432, 240, 118, 98, 28, 36, 45
282558654, 780, -13539, -8398, -3744, 399, 378, -4033, -446, 2774, -204, 182, 432, 240, 118, 98, 28, 36, 45
282559469, 780, -13539, -8398, -3744, 399, 378, -4033, -446, 2774, -204, 182, 432, 240, 118, 98, 28, 36, 45
282560245, 780, -13539, -8398, -3744, 399, 378, -4033, -446, 2774, -204, 182, 432, 240, 118, 98, 28, 36, 45
282561073, 780, -13539, -8398, -3744, 399, 378, -4033, -446, 2774, -204, 182, 432, 240, 118, 98, 28, 36, 45
282566211, 780, -13539, -8398, -3744, 399, 378, -4033, -446, 2774, -204, 182, 432, 240, 118, 98, 28, 36, 45
282567168, 957, -13415, -8384, -4158, 344, 368, -4066, -403, 2807, -158, 182, 432, 240, 118, 98, 28, 36, 45
282568010, 957, -13415, -8384, -4158, 344, 368, -4066, -403, 2807, -158, 173, 414, 244, 119, 94, 26, 36, 46
282568807, 957, -13415, -8384, -4158, 344, 368, -4066, -403, 2807, -158, 173, 414, 244, 119, 94, 26, 36, 46
282573812, 957, -13415, -8384, -4158, 344, 368, -4066, -403, 2807, -158, 173, 414, 244, 119, 94, 26, 36, 46
282574609, 957, -13415, -8384, -4158, 344, 368, -4066, -403, 2807, -158, 173, 414, 244, 119, 94, 26, 36, 46
282575469, 957, -13415, -8384, -4158, 344, 368, -4066, -403, 2807, -158, 173, 414, 244, 119, 94, 26, 36, 46
282576245, 957, -13415, -8384, -4158, 344, 368, -4066, -403, 2807, -158, 173, 414, 244, 119, 94, 26, 36, 46
282581195, 957, -13415, -8384, -4158, 344, 368, -4066, -403, 2807, -158, 173, 414, 244, 119, 94, 26, 36, 46
282581983, 957, -13415, -8384, -4158, 344, 368, -4066, -403, 2807, -158, 173, 414, 244, 119, 94, 26, 36, 46
282582801, 957, -13415, -8384, -4158, 344, 368, -4066, -403, 2807, -158, 173, 414, 244, 119, 94, 26, 36, 46
282583609, 957, -13415, -8384, -4158, 344, 368, -4066, -403, 2807, -158, 173, 414, 244, 119, 94, 26, 36, 46
282588736, 957, -13415, -8384, -4158, 344, 368, -4066, -403, 2807, -158, 173, 414, 244, 119, 94, 26, 36, 46
282589628, 1143, -13285, -8361, -4557, 392, 344, -4006, -330, 2791, -118, 173, 414, 244, 119, 94, 26, 36, 46
282590442, 1143, -13285, -8361, -4557, 392, 344, -4006, -330, 2791, -118, 176, 442, 253, 102, 82, 26, 38, 49
282591314, 1143, -13285, -8361, -4557, 392, 344, -4006, -330, 2791, -118, 176, 442, 253, 102, 82, 26, 38, 49
282596272, 1143, -13285, -8361, -4557, 392, 344, -4006, -330, 2791, -118, 176, 442, 253, 102, 82, 26, 38, 49
282597127, 1143, -13285, -8361, -4557, 392, 344, -4006, -330, 2791, -118, 176, 442, 253, 102, 82, 26, 38, 49
282597904, 1143, -13285, -8361, -4557, 392, 344, -4006, -330, 2791, -118, 176, 442, 253, 102, 82, 26, 38, 49
282598733, 1143, -13285, -8361, -4557, 392, 344, -4006, -330, 2791, -118, 176, 442, 253, 102, 82, 26, 38, 49
282601438, 1143, -13285, -8361, -4557, 392, 344, -4006, -330, 2791, -118, 176, 442, 253, 102, 82, 26, 38, 49
282611166, 1143, -13285, -8361, -4557, 392, 344, -4006, -330, 2791, -118, 176, 442, 253, 102, 82, 26, 38, 49
282611981, 1143, -13285, -8361, -4557, 392, 344, -4006, -330, 2791, -118, 176, 442, 253, 102, 82, 26, 38, 49
282612802, 1143, -13285, -8361, -4557, 392, 344, -4006, -330, 2791, -118, 176, 442, 253, 102, 82, 26, 38, 49
282613595, 1143, -13285, -8361, -4557, 392, 344, -4006, -330, 2791, -118, 176, 442, 253, 102, 82, 26, 38, 49
282618801, 1332, -13154, -8328, -4931, 427, 341, -3970, -270, 2712, -61, 176, 442, 253, 102, 82, 26, 38, 49
282619620, 1332, -13154, -8328, -4931, 427, 341, -3970, -270, 2712, -61, 181, 472, 257, 95, 61, 30, 40, 55
282620427, 1332, -13154, -8328, -4931, 427, 341, -3970, -270, 2712, -61, 181, 472, 257, 95, 61, 30, 40, 55
282621296, 1332, -13154, -8328, -4931, 427, 341, -3970, -270, 2712, -61, 181, 472, 257, 95, 61, 30, 40, 55
282626193, 1332, -13154, -8328, -4931, 427, 341, -3970, -270, 2712, -61, 181, 472, 257, 95, 61, 30, 40, 55
282627030, 1332, -13154, -8328, -4931, 427, 341, -3970, -270, 2712, -61, 181, 472, 257, 95, 61, 30, 40, 55
282627826, 1332, -13154, -8328, -4931, 427, 341, -3970, -270, 2712, -61, 181, 472, 257, 95, 61, 30, 40, 55
282628627, 1332, -13154, -8328, -4931, 427, 341, -3970, -270, 2712, -61, 181, 472, 257, 95, 61, 30, 40, 55
282633787, 1332, -13154, -8328, -4931, 427, 341, -3970, -270, 2712, -61, 181, 472, 257, 95, 61, 30, 40, 55
282634639, 1541, -13022, -8290, -5270, 510, 299, -3946, -94, 2626, 4, 181, 472, 257, 95, 61, 30, 40, 55
282635495, 1541, -13022, -8290, -5270, 510, 299, -3946, -94, 2626, 4, 193, 480, 254, 85, 52, 28, 44, 58
282636272, 1541, -13022, -8290, -5270, 510, 299, -3946, -94, 2626, 4, 193, 480, 254, 85, 52, 28, 44, 58
282639771, 1541, -13022, -8290, -5270, 510, 299, -3946, -94, 2626, 4, 193, 480, 254, 85, 52, 28, 44, 58
282640531, 1541, -13022, -8290, -5270, 510, 299, -3946, -94, 2626, 4, 193, 480, 254, 85, 52, 28, 44, 58
282648649, 1541, -13022, -8290, -5270, 510, 299, -3946, -94, 2626, 4, 193, 480, 254, 85, 52, 28, 44, 58
282649466, 1541, -13022, -8290, -5270, 510, 299, -3946, -94, 2626, 4, 193, 480, 254, 85, 52, 28, 44, 58
282650271, 1541, -13022, -8290, -5270, 510, 299, -3946, -94, 2626, 4, 193, 480, 254, 85, 52, 28, 44, 58
282651090, 1541, -13022, -8290, -5270, 510, 299, -3946, -94, 2626, 4, 193, 480, 254, 85, 52, 28, 44, 58
282656144, 1541, -13022, -8290, -5270, 510, 299, -3946, -94, 2626, 4, 193, 480, 254, 85, 52, 28, 44, 58
282656997, 1541, -13022, -8290, -5270, 510, 299, -3946, -94, 2626, 4, 193, 480, 254, 85, 52, 28, 44, 58
282657827, 1541, -13022, -8290, -5270, 510, 299, -3946, -94, 2626, 4, 193, 480, 254, 85, 52, 28, 44, 58
282658746, 1752, -12894, -8245, -5580, 598, 328, -3859, -10, 2507, 71, 193, 480, 254, 85, 52, 28, 44, 58
282663787, 1752, -12894, -8245, -5580, 598, 328, -3859, -10, 2507, 71, 190, 453, 208, 72, 57, 33, 41, 59
282664585, 1752, -12894, -8245, -5580, 598, 328, -3859, -10, 2507, 71, 190, 453, 208, 72, 57, 33, 41, 59
282665376, 1752, -12894, -8245, -5580, 598, 328, -3859, -10, 2507, 71, 190, 453, 208, 72, 57, 33, 41, 59
282666235, 1752, -12894, -8245, -5580, 598, 328, -3859, -10, 2507, 71, 190, 453, 208, 72, 57, 33, 41, 59
282671141, 1752, -12894, -8245, -5580, 598, 328, -3859, -10, 2507, 71, 190, 453, 208, 72, 57, 33, 41, 59
282671978, 1752, -12894, -8245, -5580, 598, 328, -3859, -10, 2507, 71, 190, 453, 208, 72, 57, 33, 41, 59
282672772, 1752, -12894, -8245, -5580, 598, 328, -3859, -10, 2507, 71, 190, 453, 208, 72, 57, 33, 41, 59
282673568, 1752, -12894, -8245, -5580, 598, 328, -3859, -10, 2507, 71, 190, 453, 208, 72, 57, 33, 41, 59
282678727, 1752, -12894, -8245, -5580, 598, 328, -3859, -10, 2507, 71, 190, 453, 208, 72, 57, 33, 41, 59
282679640, 1977, -12768, -8199, -5858, 724, 351, -3781, 143, 2403, 126, 190, 453, 208, 72, 57, 33, 41, 59
282680428, 1977, -12768, -8199, -5858, 724, 351, -3781, 143, 2403, 126, 214, 473, 212, 91, 124, 36, 38, 58
282681283, 1977, -12768, -8199, -5858, 724, 351, -3781, 143, 2403, 126, 214, 473, 212, 91, 124, 36, 38, 58
282686319, 1977, -12768, -8199, -5858, 724, 351, -3781, 143, 2403, 126, 214, 473, 212, 91, 124, 36, 38, 58
282687116, 1977, -12768, -8199, -5858, 724, 351, -3781, 143, 2403, 126, 214, 473, 212, 91, 124, 36, 38, 58
282687917, 1977, -12768, -8199, -5858, 724, 351, -3781, 143, 2403, 126, 214, 473, 212, 91, 124, 36, 38, 58
282688744, 1977, -12768, -8199, -5858, 724, 351, -3781, 143, 2403, 126, 214, 473, 212, 91, 124, 36, 38, 58
282693785, 1977, -12768, -8199, -5858, 724, 351, -3781, 143, 2403, 126, 214, 473, 212, 91, 124, 36, 38, 58
282694448, 1977, -12768, -8199, -5858, 724, 351, -3781, 143, 2403, 126, 214, 473, 212, 91, 124, 36, 38, 58
282695324, 1977, -12768, -8199, -5858, 724, 351, -3781, 143, 2403, 126, 214, 473, 212, 91, 124, 36, 38, 58
282696137, 1977, -12768, -8199, -5858, 724, 351, -3781, 143, 2403, 126, 214, 473, 212, 91, 124, 36, 38, 58
282701244, 1977, -12768, -8199, -5858, 724, 351, -3781, 143, 2403, 126, 214, 473, 212, 91, 124, 36, 38, 58
282702140, 2215, -12638, -8159, -6105, 846, 405, -3689, 308, 2309, 142, 214, 473, 212, 91, 124, 36, 38, 58
282702997, 2215, -12638, -8159, -6105, 846, 405, -3689, 308, 2309, 142, 205, 470, 295, 120, 134, 39, 41, 57
282703775, 2215, -12638, -8159, -6105, 846, 405, -3689, 308, 2309, 142, 205, 470, 295, 120, 134, 39, 41, 57
282708806, 2215, -12638, -8159, -6105, 846, 405, -3689, 308, 2309, 142, 205, 470, 295, 120, 134, 39, 41, 57
282709597, 2215, -12638, -8159, -6105, 846, 405, -3689, 308, 2309, 142, 205, 470, 295, 120, 134, 39, 41, 57
282710414, 2215, -12638, -8159, -6105, 846, 405, -3689, 308, 2309, 142, 205, 470, 295, 120, 134, 39, 41, 57
282711259, 2215, -12638, -8159, -6105, 846, 405, -3689, 308, 2309, 142, 205, 470, 295, 120, 134, 39, 41, 57
282716166, 2215, -12638, -8159, -6105, 846, 405, -3689, 308, 2309, 142, 205, 470, 295, 120, 134, 39, 41, 57
282717009, 2215, -12638, -8159, -6105, 846, 405, -3689, 308, 2309, 142, 205, 470, 295, 120, 134, 39, 41, 57
282717822, 2215, -12638, -8159, -6105, 846, 405, -3689, 308, 2309, 142, 205, 470, 295, 120, 134, 39, 41, 57
282718632, 2215, -12638, -8159, -6105, 846, 405, -3689, 308, 2309, 142, 205, 470, 295, 120, 134, 39, 41, 57
282723661, 2215, -12638, -8159, -6105, 846, 405, -3689, 308, 2309, 142, 205, 470, 295, 120, 134, 39, 41, 57
282724660, 2454, -12511, -8119, -6324, 948, 408, -3643, 396, 2184, 175, 205, 470, 295, 120, 134, 39, 41, 57
282725433, 2454, -12511, -8119, -6324, 948, 408, -3643, 396, 2184, 175, 195, 524, 332, 139, 138, 40, 46, 64
282726245, 2454, -12511, -8119, -6324, 948, 408, -3643, 396, 2184, 175, 195, 524, 332, 139, 138, 40, 46, 64
282731273, 2454, -12511, -8119, -6324, 948, 408, -3643, 396, 2184, 175, 195, 524, 332, 139, 138, 40, 46, 64
282732059, 2454, -12511, -8119, -6324, 948, 408, -3643, 396, 2184, 175, 195, 524, 332, 139, 138, 40, 46, 64
282732904, 2454, -12511, -8119, -6324, 948, 408, -3643, 396, 2184, 175, 195, 524, 332, 139, 138, 40, 46, 64
282733765, 2454, -12511, -8119, -6324, 948, 408, -3643, 396, 2184, 175, 195, 524, 332, 139, 138, 40, 46, 64
282738643, 2454, -12511, -8119, -6324, 948, 408, -3643, 396, 2184, 175, 195, 524, 332, 139, 138, 40, 46, 64
282739451, 2454, -12511, -8119, -6324, 948, 408, -3643, 396, 2184, 175, 195, 524, 332, 139, 138, 40, 46, 64
282740263, 2454, -12511, -8119, -6324, 948, 408, -3643, 396, 2184, 175, 195, 524, 332, 139, 138, 40, 46, 64
282741048, 2454, -12511, -8119, -6324, 948, 408, -3643, 396, 2184, 175, 195, 524, 332, 139, 138, 40, 46, 64
282746205, 2454, -12511, -8119, -6324, 948, 408, -3643, 396, 2184, 175, 195, 524, 332, 139, 138, 40, 46, 64
282747133, 2689, -12386, -8087, -6513, 1066, 458, -3570, 485, 2035, 165, 195, 524, 332, 139, 138, 40, 46, 64
282747946, 2689, -12386, -8087, -6513, 1066, 458, -3570, 485, 2035, 165, 183, 543, 363, 149, 142, 45, 46, 66
282748759, 2689, -12386, -8087, -6513, 1066, 458, -3570, 485, 2035, 165, 183, 543, 363, 149, 142, 45, 46, 66
282753773, 2689, -12386, -8087, -6513, 1066, 458, -3570, 485, 2035, 165, 183, 543, 363, 149, 142, 45, 46, 66
282754596, 2689, -12386, -8087, -6513, 1066, 458, -3570, 485, 2035, 165, 183, 543, 363, 149, 142, 45, 46, 66
282755401, 2689, -12386, -8087, -6513, 1066, 458, -3570, 485, 2035, 165, 183, 543, 363, 149, 142, 45, 46, 66
282756245, 2689, -12386, -8087, -6513, 1066, 458, -3570, 485, 2035, 165, 183, 543, 363, 149, 142, 45, 46, 66
282768662, 2689, -12386, -8087, -6513, 1066, 458, -3570, 485, 2035, 165, 183, 543, 363, 149, 142, 45, 46, 66
282769455, 2689, -12386, -8087, -6513, 1066, 458, -3570, 485, 2035, 165, 183, 543, 363, 149, 142, 45, 46, 66
282770246, 2689, -12386, -8087, -6513, 1066, 458, -3570, 485, 2035, 165, 183, 543, 363, 149, 142, 45, 46, 66
282771061, 2689, -12386, -8087, -6513, 1066, 458, -3570, 485, 2035, 165, 183, 543, 363, 149, 142, 45, 46, 66
282783743, 2689, -12386, -8087, -6513, 1066, 458, -3570, 485, 2035, 165, 183, 543, 363, 149, 142, 45, 46, 66
282784659, 2914, -12270, -8058, -6670, 1147, 421, -3491, 532, 1848, 190, 183, 543, 363, 149, 142, 45, 46, 66
282785436, 2914, -12270, -8058, -6670, 1147, 421, -3491, 532, 1848, 190, 180, 553, 557, 162, 170, 68, 51, 63
282786255, 2914, -12270, -8058, -6670, 1147, 421, -3491, 532, 1848, 190, 180, 553, 557, 162, 170, 68, 51, 63
282791273, 2914, -12270, -8058, -6670, 1147, 421, -3491, 532, 1848, 190, 180, 553, 557, 162, 170, 68, 51, 63
282792116, 2914, -12270, -8058, -6670, 1147, 421, -3491, 532, 1848, 190, 180, 553, 557, 162, 170, 68, 51, 63
282792913, 2914, -12270, -8058, -6670, 1147, 421, -3491, 532, 1848, 190, 180, 553, 557, 162, 170, 68, 51, 63
282793771, 2914, -12270, -8058, -6670, 1147, 421, -3491, 532, 1848, 190, 180, 553, 557, 162, 170, 68, 51, 63
282798662, 2914, -12270, -8058, -6670, 1147, 421, -3491, 532, 1848, 190, 180, 553, 557, 162, 170, 68, 51, 63
282799489, 2914, -12270, -8058, -6670, 1147, 421, -3491, 532, 1848, 190, 180, 553, 557, 162, 170, 68, 51, 63
282800306, 2914, -12270, -8058, -6670, 1147, 421, -3491, 532, 1848, 190, 180, 553, 557, 162, 170, 68, 51, 63
282801100, 2914, -12270, -8058, -6670, 1147, 421, -3491, 532, 1848, 190, 180, 553, 557, 162, 170, 68, 51, 63
282806209, 2914, -12270, -8058, -6670, 1147, 421, -3491, 532, 1848, 190, 180, 553, 557, 162, 170, 68, 51, 63
282807132, 3111, -12170, -8021, -6807, 1224, 441, -3405, 442, 1650, 218, 180, 553, 557, 162, 170, 68, 51, 63
282807931, 3111, -12170, -8021, -6807, 1224, 441, -3405, 442, 1650, 218, 158, 595, 781, 186, 213, 137, 64, 69
282808784, 3111, -12170, -8021, -6807, 1224, 441, -3405, 442, 1650, 218, 158, 595, 781, 186, 213, 137, 64, 69
282813743, 3111, -12170, -8021, -6807, 1224, 441, -3405, 442, 1650, 218, 158, 595, 781, 186, 213, 137, 64, 69
282814602, 3111, -12170, -8021, -6807, 1224, 441, -3405, 442, 1650, 218, 158, 595, 781, 186, 213, 137, 64, 69
282815375, 3111, -12170, -8021, -6807, 1224, 441, -3405, 442, 1650, 218, 158, 595, 781, 186, 213, 137, 64, 69
282816233, 3111, -12170, -8021, -6807, 1224, 441, -3405, 442, 1650, 218, 158, 595, 781, 186, 213, 137, 64, 69
282821151, 3111, -12170, -8021, -6807, 1224, 441, -3405, 442, 1650, 218, 158, 595, 781, 186, 213, 137, 64, 69
282821996, 3111, -12170, -8021, -6807, 1224, 441, -3405, 442, 1650, 218, 158, 595, 781, 186, 213, 137, 64, 69
282822796, 3111, -12170, -8021, -6807, 1224, 441, -3405, 442, 1650, 218, 158, 595, 781, 186, 213, 137, 64, 69
282823624, 3111, -12170, -8021, -6807, 1224, 441, -3405, 442, 1650, 218, 158, 595, 781, 186, 213, 137, 64, 69
282828743, 3111, -12170, -8021, -6807, 1224, 441, -3405, 442, 1650, 218, 158, 595, 781, 186, 213, 137, 64, 69
282829700, 3203, -12164, -8019, -6777, 1297, 529, -3511, 410, 1299, 401, 158, 595, 781, 186, 213, 137, 64, 69
282830476, 3203, -12164, -8019, -6777, 1297, 529, -3511, 410, 1299, 401, 216, 655, 907, 409, 634, 268, 80, 75
282831283, 3203, -12164, -8019, -6777, 1297, 529, -3511, 410, 1299, 401, 216, 655, 907, 409, 634, 268, 80, 75
282836312, 3203, -12164, -8019, -6777, 1297, 529, -3511, 410, 1299, 401, 216, 655, 907, 409, 634, 268, 80, 75
282837100, 3203, -12164, -8019, -6777, 1297, 529, -3511, 410, 1299, 401, 216, 655, 907, 409, 634, 268, 80, 75
282837946, 3203, -12164, -8019, -6777, 1297, 529, -3511, 410, 1299, 401, 216, 655, 907, 409, 634, 268, 80, 75
282838765, 3203, -12164, -8019, -6777, 1297, 529, -3511, 410, 1299, 401, 216, 655, 907, 409, 634, 268, 80, 75
282843767, 3203, -12164, -8019, -6777, 1297, 529, -3511, 410, 1299, 401, 216, 655, 907, 409, 634, 268, 80, 75
282844448, 3203, -12164, -8019, -6777, 1297, 529, -3511, 410, 1299, 401, 216, 655, 907, 409, 634, 268, 80, 75
282845334, 3203, -12164, -8019, -6777, 1297, 529, -3511, 410, 1299, 401, 216, 655, 907, 409, 634, 268, 80, 75
282846116, 3203, -12164, -8019, -6777, 1297, 529, -3511, 410, 1299, 401, 216, 655, 907, 409, 634, 268, 80, 75
282851213, 3203, -12164, -8019, -6777, 1297, 529, -3511, 410, 1299, 401, 216, 655, 907, 409, 634, 268, 80, 75
282852118, 3213, -12227, -7970, -6717, 1232, 465, -3469, -38, 834, 597, 216, 655, 907, 409, 634, 268, 80, 75
282852971, 3213, -12227, -7970, -6717, 1232, 465, -3469, -38, 834, 597, 409, 712, 1004, 482, 755, 323, 135, 256
282853765, 3213, -12227, -7970, -6717, 1232, 465, -3469, -38, 834, 597, 409, 712, 1004, 482, 755, 323, 135, 256
282858803, 3213, -12227, -7970, -6717, 1232, 465, -3469, -38, 834, 597, 409, 712, 1004, 482, 755, 323, 135, 256
282859583, 3213, -12227, -7970, -6717, 1232, 465, -3469, -38, 834, 597, 409, 712, 1004, 482, 755, 323, 135, 256
282860428, 3213, -12227, -7970, -6717, 1232, 465, -3469, -38, 834, 597, 409, 712, 1004, 482, 755, 323, 135, 256
282861205, 3213, -12227, -7970, -6717, 1232, 465, -3469, -38, 834, 597, 409, 712, 1004, 482, 755, 323, 135, 256
282866196, 3213, -12227, -7970, -6717, 1232, 465, -3469, -38, 834, 597, 409, 712, 1004, 482, 755, 323, 135, 256
282866995, 3213, -12227, -7970, -6717, 1232, 465, -3469, -38, 834, 597, 409, 712, 1004, 482, 755, 323, 135, 256
282867802, 3213, -12227, -7970, -6717, 1232, 465, -3469, -38, 834, 597, 409, 712, 1004, 482, 755, 323, 135, 256
282868609, 3213, -12227, -7970, -6717, 1232, 465, -3469, -38, 834, 597, 409, 712, 1004, 482, 755, 323, 135, 256
282873784, 3213, -12227, -7970, -6717, 1232, 465, -3469, -38, 834, 597, 409, 712, 1004, 482, 755, 323, 135, 256
282874611, 3041, -12382, -7854, -6649, 1264, 971, -3308, -854, 60, 927, 409, 712, 1004, 482, 755, 323, 135, 256
282875449, 3041, -12382, -7854, -6649, 1264, 971, -3308, -854, 60, 927, 535, 771, 1153, 512, 933, 454, 162, 333
282876239, 3041, -12382, -7854, -6649, 1264, 971, -3308, -854, 60, 927, 535, 771, 1153, 512, 933, 454, 162, 333
282881236, 3041, -12382, -7854, -6649, 1264, 971, -3308, -854, 60, 927, 535, 771, 1153, 512, 933, 454, 162, 333
282882097, 3041, -12382, -7854, -6649, 1264, 971, -3308, -854, 60, 927, 535, 771, 1153, 512, 933, 454, 162, 333
282882879, 3041, -12382, -7854, -6649, 1264, 971, -3308, -854, 60, 927, 535, 771, 1153, 512, 933, 454, 162, 333
282883769, 3041, -12382, -7854, -6649, 1264, 971, -3308, -854, 60, 927, 535, 771, 1153, 512, 933, 454, 162, 333
282888634, 3041, -12382, -7854, -6649, 1264, 971, -3308, -854, 60, 927, 535, 771, 1153, 512, 933, 454, 162, 333
282889479, 3041, -12382, -7854, -6649, 1264, 971, -3308, -854, 60, 927, 535, 771, 1153, 512, 933, 454, 162, 333
282890293, 3041, -12382, -7854, -6649, 1264, 971, -3308, -854, 60, 927, 535, 771, 1153, 512, 933, 454, 162, 333
282891114, 3041, -12382, -7854, -6649, 1264, 971, -3308, -854, 60, 927, 535, 771, 1153, 512, 933, 454, 162, 333
282896215, 3041, -12382, -7854, -6649, 1264, 971, -3308, -854, 60, 927, 535, 771, 1153, 512, 933, 454, 162, 333
282897194, 2773, -12584, -7739, -6520, 1220, 981, -4020, -1191, -293, 881, 535, 771, 1153, 512, 933, 454, 162, 333
282897979, 2773, -12584, -7739, -6520, 1220, 981, -4020, -1191, -293, 881, 687, 819, 1155, 573, 1052, 527, 181, 405
282898817, 2773, -12584, -7739, -6520, 1220, 981, -4020, -1191, -293, 881, 687, 819, 1155, 573, 1052, 527, 181, 405
282903780, 2773, -12584, -7739, -6520, 1220, 981, -4020, -1191, -293, 881, 687, 819, 1155, 573, 1052, 527, 181, 405
282904607, 2773, -12584, -7739, -6520, 1220, 981, -4020, -1191, -293, 881, 687, 819, 1155, 573, 1052, 527, 181, 405
282905411, 2773, -12584, -7739, -6520, 1220, 981, -4020, -1191, -293, 881, 687, 819, 1155, 573, 1052, 527, 181, 405
282906260, 2773, -12584, -7739, -6520, 1220, 981, -4020, -1191, -293, 881, 687, 819, 1155, 573, 1052, 527, 181, 405
282911156, 2773, -12584, -7739, -6520, 1220, 981, -4020, -1191, -293, 881, 687, 819, 1155, 573, 1052, 527, 181, 405
282911971, 2773, -12584, -7739, -6520, 1220, 981, -4020, -1191, -293, 881, 687, 819, 1155, 573, 1052, 527, 181, 405
282912802, 2773, -12584, -7739, -6520, 1220, 981, -4020, -1191, -293, 881, 687, 819, 1155, 573, 1052, 527, 181, 405
282913632, 2773, -12584, -7739, -6520, 1220, 981, -4020, -1191, -293, 881, 687, 819, 1155, 573, 1052, 527, 181, 405
282918752, 2773, -12584, -7739, -6520, 1220, 981, -4020, -1191, -293, 881, 687, 819, 1155, 573, 1052, 527, 181, 405
282919612, 2380, -12709, -7497, -6714, 1266, 617, -3532, -2883, 10, 343, 687, 819, 1155, 573, 1052, 527, 181, 405
282920468, 2380, -12709, -7497, -6714, 1266, 617, -3532, -2883, 10, 343, 755, 857, 1207, 638, 1151, 579, 217, 444
282921277, 2380, -12709, -7497, -6714, 1266, 617, -3532, -2883, 10, 343, 755, 857, 1207, 638, 1151, 579, 217, 444
282926273, 2380, -12709, -7497, -6714, 1266, 617, -3532, -2883, 10, 343, 755, 857, 1207, 638, 1151, 579, 217, 444
282927062, 2380, -12709, -7497, -6714, 1266, 617, -3532, -2883, 10, 343, 755, 857, 1207, 638, 1151, 579, 217, 444
282927919, 2380, -12709, -7497, -6714, 1266, 617, -3532, -2883, 10, 343, 755, 857, 1207, 638, 1151, 579, 217, 444
282928765, 2380, -12709, -7497, -6714, 1266, 617, -3532, -2883, 10, 343, 755, 857, 1207, 638, 1151, 579, 217, 444
282933702, 2380, -12709, -7497, -6714, 1266, 617, -3532, -2883, 10, 343, 755, 857, 1207, 638, 1151, 579, 217, 444
282934439, 2380, -12709, -7497, -6714, 1266, 617, -3532, -2883, 10, 343, 755, 857, 1207, 638, 1151, 579, 217, 444
282935278, 2380, -12709, -7497, -6714, 1266, 617, -3532, -2883, 10, 343, 755, 857, 1207, 638, 1151, 579, 217, 444
282936102, 2380, -12709, -7497, -6714, 1266, 617, -3532, -2883, 10, 343, 755, 857, 1207, 638, 1151, 579, 217, 444
282941204, 2380, -12709, -7497, -6714, 1266, 617, -3532, -2883, 10, 343, 755, 857, 1207, 638, 1151, 579, 217, 444
282942183, 1830, -12823, -7232, -6956, 977, 1168, -2479, -3679, -226, 71, 755, 857, 1207, 638, 1151, 579, 217, 444
282942978, 1830, -12823, -7232, -6956, 977, 1168, -2479, -3679, -226, 71, 843, 915, 1170, 547, 1071, 575, 230, 500
282943786, 1830, -12823, -7232, -6956, 977, 1168, -2479, -3679, -226, 71, 843, 915, 1170, 547, 1071, 575, 230, 500
282948779, 1830, -12823, -7232, -6956, 977, 1168, -2479, -3679, -226, 71, 843, 915, 1170, 547, 1071, 575, 230, 500
282949574, 1830, -12823, -7232, -6956, 977, 1168, -2479, -3679, -226, 71, 843, 915, 1170, 547, 1071, 575, 230, 500
282950402, 1830, -12823, -7232, -6956, 977, 1168, -2479, -3679, -226, 71, 843, 915, 1170, 547, 1071, 575, 230, 500
282951219, 1830, -12823, -7232, -6956, 977, 1168, -2479, -3679, -226, 71, 843, 915, 1170, 547, 1071, 575, 230, 500
282963702, 1830, -12823, -7232, -6956, 977, 1168, -2479, -3679, -226, 71, 843, 915, 1170, 547, 1071, 575, 230, 500
282964492, 1830, -12823, -7232, -6956, 977, 1168, -2479, -3679, -226, 71, 843, 915, 1170, 547, 1071, 575, 230, 500
282965296, 1830, -12823, -7232, -6956, 977, 1168, -2479, -3679, -226, 71, 843, 915, 1170, 547, 1071, 575, 230, 500
282966104, 1830, -12823, -7232, -6956, 977, 1168, -2479, -3679, -226, 71, 843, 915, 1170, 547, 1071, 575, 230, 500
282971184, 1830, -12823, -7232, -6956, 977, 1168, -2479, -3679, -226, 71, 843, 915, 1170, 547, 1071, 575, 230, 500
282972143, 1286, -13039, -6883, -7030, 1665, 2417, -2491, -3412, -1195, 915, 843, 915, 1170, 547, 1071, 575, 230, 500
282972931, 1286, -13039, -6883, -7030, 1665, 2417, -2491, -3412, -1195, 915, 846, 862, 1161, 550, 1121, 620, 251, 507
282973785, 1286, -13039, -6883, -7030, 1665, 2417, -2491, -3412, -1195, 915, 846, 862, 1161, 550, 1121, 620, 251, 507
282978783, 1286, -13039, -6883, -7030, 1665, 2417, -2491, -3412, -1195, 915, 846, 862, 1161, 550, 1121, 620, 251, 507
282979580, 1286, -13039, -6883, -7030, 1665, 2417, -2491, -3412, -1195, 915, 846, 862, 1161, 550, 1121, 620, 251, 507
282980376, 1286, -13039, -6883, -7030, 1665, 2417, -2491, -3412, -1195, 915, 846, 862, 1161, 550, 1121, 620, 251, 507
282981205, 1286, -13039, -6883, -7030, 1665, 2417, -2491, -3412, -1195, 915, 846, 862, 1161, 550, 1121, 620, 251, 507
282986136, 1286, -13039, -6883, -7030, 1665, 2417, -2491, -3412, -1195, 915, 846, 862, 1161, 550, 1121, 620, 251, 507
282986958, 1286, -13039, -6883, -7030, 1665, 2417, -2491, -3412, -1195, 915, 846, 862, 1161, 550, 1121, 620, 251, 507
282987775, 1286, -13039, -6883, -7030, 1665, 2417, -2491, -3412, -1195, 915, 846, 862, 1161, 550, 1121, 620, 251, 507
282988584, 1286, -13039, -6883, -7030, 1665, 2417, -2491, -3412, -1195, 915, 846, 862, 1161, 550, 1121, 620, 251, 507
282993740, 1286, -13039, -6883, -7030, 1665, 2417, -2491, -3412, -1195, 915, 846, 862, 1161, 550, 1121, 620, 251, 507
282994635, 940, -13125, -6638, -7158, 2773, 513, -2917, -2530, -278, 358, 846, 862, 1161, 550, 1121, 620, 251, 507
282995453, 940, -13125, -6638, -7158, 2773, 513, -2917, -2530, -278, 358, 811, 882, 1075, 621, 1092, 541, 243, 475
282996313, 940, -13125, -6638, -7158, 2773, 513, -2917, -2530, -278, 358, 811, 882, 1075, 621, 1092, 541, 243, 475
283001283, 940, -13125, -6638, -7158, 2773, 513, -2917, -2530, -278, 358, 811, 882, 1075, 621, 1092, 541, 243, 475
283002097, 940, -13125, -6638, -7158, 2773, 513, -2917, -2530, -278, 358, 811, 882, 1075, 621, 1092, 541, 243, 475
283002906, 940, -13125, -6638, -7158, 2773, 513, -2917, -2530, -278, 358, 811, 882, 1075, 621, 1092, 541, 243, 475
283003733, 940, -13125, -6638, -7158, 2773, 513, -2917, -2530, -278, 358, 811, 882, 1075, 621, 1092, 541, 243, 475
283008744, 940, -13125, -6638, -7158, 2773, 513, -2917, -2530, -278, 358, 811, 882, 1075, 621, 1092, 541, 243, 475
283009462, 940, -13125, -6638, -7158, 2773, 513, -2917, -2530, -278, 358, 811, 882, 1075, 621, 1092, 541, 243, 475
283010320, 940, -13125, -6638, -7158, 2773, 513, -2917, -2530, -278, 358, 811, 882, 1075, 621, 1092, 541, 243, 475
283011143, 940, -13125, -6638, -7158, 2773, 513, -2917, -2530, -278, 358, 811, 882, 1075, 621, 1092, 541, 243, 475
283016193, 940, -13125, -6638, -7158, 2773, 513, -2917, -2530, -278, 358, 811, 882, 1075, 621, 1092, 541, 243, 475
283017154, 580, -13029, -6638, -7368, 2154, 1452, -3476, -2086, 539, -1116, 811, 882, 1075, 621, 1092, 541, 243, 475
283017930, 580, -13029, -6638, -7368, 2154, 1452, -3476, -2086, 539, -1116, 759, 963, 1161, 618, 1047, 487, 238, 440
283018770, 580, -13029, -6638, -7368, 2154, 1452, -3476, -2086, 539, -1116, 759, 963, 1161, 618, 1047, 487, 238, 440
283023774, 580, -13029, -6638, -7368, 2154, 1452, -3476, -2086, 539, -1116, 759, 963, 1161, 618, 1047, 487, 238, 440
283024623, 580, -13029, -6638, -7368, 2154, 1452, -3476, -2086, 539, -1116, 759, 963, 1161, 618, 1047, 487, 238, 440
283025407, 580, -13029, -6638, -7368, 2154, 1452, -3476, -2086, 539, -1116, 759, 963, 1161, 618, 1047, 487, 238, 440
283026221, 580, -13029, -6638, -7368, 2154, 1452, -3476, -2086, 539, -1116, 759, 963, 1161, 618, 1047, 487, 238, 440
283031142, 580, -13029, -6638, -7368, 2154, 1452, -3476, -2086, 539, -1116, 759, 963, 1161, 618, 1047, 487, 238, 440
283031997, 580, -13029, -6638, -7368, 2154, 1452, -3476, -2086, 539, -1116, 759, 963, 1161, 618, 1047, 487, 238, 440
283032807, 580, -13029, -6638, -7368, 2154, 1452, -3476, -2086, 539, -1116, 759, 963, 1161, 618, 1047, 487, 238, 440
283033616, 580, -13029, -6638, -7368, 2154, 1452, -3476, -2086, 539, -1116, 759, 963, 1161, 618, 1047, 487, 238, 440
283036453, 580, -13029, -6638, -7368, 2154, 1452, -3476, -2086, 539, -1116, 759, 963, 1161, 618, 1047, 487, 238, 440
283046314, 118, -13003, -6449, -7601, 1548, 627, -3627, -3180, 340, -448, 759, 963, 1161, 618, 1047, 487, 238, 440
283047100, 118, -13003, -6449, -7601, 1548, 627, -3627, -3180, 340, -448, 694, 930, 1007, 586, 957, 428, 214, 409
283047880, 118, -13003, -6449, -7601, 1548, 627, -3627, -3180, 340, -448, 694, 930, 1007, 586, 957, 428, 214, 409
283048718, 118, -13003, -6449, -7601, 1548, 627, -3627, -3180, 340, -448, 694, 930, 1007, 586, 957, 428, 214, 409
283053717, 118, -13003, -6449, -7601, 1548, 627, -3627, -3180, 340, -448, 694, 930, 1007, 586, 957, 428, 214, 409
283054402, 118, -13003, -6449, -7601, 1548, 627, -3627, -3180, 340, -448, 694, 930, 1007, 586, 957, 428, 214, 409
283055272, 118, -13003, -6449, -7601, 1548, 627, -3627, -3180, 340, -448, 694, 930, 1007, 586, 957, 428, 214, 409
283056090, 118, -13003, -6449, -7601, 1548, 627, -3627, -3180, 340, -448, 694, 930, 1007, 586, 957, 428, 214, 409
283061218, 118, -13003, -6449, -7601, 1548, 627, -3627, -3180, 340, -448, 694, 930, 1007, 586, 957, 428, 214, 409
283062118, -149, -13003, -6314, -7713, 1971, 194, -3523, -1952, 115, -184, 694, 930, 1007, 586, 957, 428, 214, 409
283062973, -149, -13003, -6314, -7713, 1971, 194, -3523, -1952, 115, -184, 692, 944, 1016, 582, 897, 507, 272, 428
283063782, -149, -13003, -6314, -7713, 1971, 194, -3523, -1952, 115, -184, 692, 944, 1016, 582, 897, 507, 272, 428
283068785, -149, -13003, -6314, -7713, 1971, 194, -3523, -1952, 115, -184, 692, 944, 1016, 582, 897, 507, 272, 428
283069596, -149, -13003, -6314, -7713, 1971, 194, -3523, -1952, 115, -184, 692, 944, 1016, 582, 897, 507, 272, 428
283070401, -149, -13003, -6314, -7713, 1971, 194, -3523, -1952, 115, -184, 692, 944, 1016, 582, 897, 507, 272, 428
283071222, -149, -13003, -6314, -7713, 1971, 194, -3523, -1952, 115, -184, 692, 944, 1016, 582, 897, 507, 272, 428
283076169, -149, -13003, -6314, -7713, 1971, 194, -3523, -1952, 115, -184, 692, 944, 1016, 582, 897, 507, 272, 428
283076968, -149, -13003, -6314, -7713, 1971, 194, -3523, -1952, 115, -184, 692, 944, 1016, 582, 897, 507, 272, 428
283077802, -149, -13003, -6314, -7713, 1971, 194, -3523, -1952, 115, -184, 692, 944, 1016, 582, 897, 507, 272, 428
283078608, -149, -13003, -6314, -7713, 1971, 194, -3523, -1952, 115, -184, 692, 944, 1016, 582, 897, 507, 272, 428
283083670, -149, -13003, -6314, -7713, 1971, 194, -3523, -1952, 115, -184, 692, 944, 1016, 582, 897, 507, 272, 428
283084619, -319, -13045, -6315, -7636, 2193, 1798, -3442, -768, -106, -117, 692, 944, 1016, 582, 897, 507, 272, 428
283085410, -319, -13045, -6315, -7636, 2193, 1798, -3442, -768, -106, -117, 698, 963, 1041, 565, 760, 569, 268, 401
283086269, -319, -13045, -6315, -7636, 2193, 1798, -3442, -768, -106, -117, 698, 963, 1041, 565, 760, 569, 268, 401
283091245, -319, -13045, -6315, -7636, 2193, 1798, -3442, -768, -106, -117, 698, 963, 1041, 565, 760, 569, 268, 401
283092087, -319, -13045, -6315, -7636, 2193, 1798, -3442, -768, -106, -117, 698, 963, 1041, 565, 760, 569, 268, 401
283092865, -319, -13045, -6315, -7636, 2193, 1798, -3442, -768, -106, -117, 698, 963, 1041, 565, 760, 569, 268, 401
283093735, -319, -13045, -6315, -7636, 2193, 1798, -3442, -768, -106, -117, 698, 963, 1041, 565, 760, 569, 268, 401
283106170, -319, -13045, -6315, -7636, 2193, 1798, -3442, -768, -106, -117, 698, 963, 1041, 565, 760, 569, 268, 401
283106998, -319, -13045, -6315, -7636, 2193, 1798, -3442, -768, -106, -117, 698, 963, 1041, 565, 760, 569, 268, 401
283107815, -319, -13045, -6315, -7636, 2193, 1798, -3442, -768, -106, -117, 698, 963, 1041, 565, 760, 569, 268, 401
283108632, -319, -13045, -6315, -7636, 2193, 1798, -3442, -768, -106, -117, 698, 963, 1041, 565, 760, 569, 268, 401
283113734, -319, -13045, -6315, -7636, 2193, 1798, -3442, -768, -106, -117, 698, 963, 1041, 565, 760, 569, 268, 401
283114614, -695, -13015, -6187, -7766, 2112, 2911, -3272, -2266, 4, -304, 698, 963, 1041, 565, 760, 569, 268, 401
283115433, -695, -13015, -6187, -7766, 2112, 2911, -3272, -2266, 4, -304, 716, 995, 1031, 562, 707, 598, 299, 402
283116274, -695, -13015, -6187, -7766, 2112, 2911, -3272, -2266, 4, -304, 716, 995, 1031, 562, 707, 598, 299, 402
283121278, -695, -13015, -6187, -7766, 2112, 2911, -3272, -2266, 4, -304, 716, 995, 1031, 562, 707, 598, 299, 402
283122057, -695, -13015, -6187, -7766, 2112, 2911, -3272, -2266, 4, -304, 716, 995, 1031, 562, 707, 598, 299, 402
283122878, -695, -13015, -6187, -7766, 2112, 2911, -3272, -2266, 4, -304, 716, 995, 1031, 562, 707, 598, 299, 402
283123742, -695, -13015, -6187, -7766, 2112, 2911, -3272, -2266, 4, -304, 716, 995, 1031, 562, 707, 598, 299, 402
283128658, -695, -13015, -6187, -7766, 2112, 2911, -3272, -2266, 4, -304, 716, 995, 1031, 562, 707, 598, 299, 402
283129456, -695, -13015, -6187, -7766, 2112, 2911, -3272, -2266, 4, -304, 716, 995, 1031, 562, 707, 598, 299, 402
283130270, -695, -13015, -6187, -7766, 2112, 2911, -3272, -2266, 4, -304, 716, 995, 1031, 562, 707, 598, 299, 402
283131127, -695, -13015, -6187, -7766, 2112, 2911, -3272, -2266, 4, -304, 716, 995, 1031, 562, 707, 598, 299, 402
283136168, -695, -13015, -6187, -7766, 2112, 2911, -3272, -2266, 4, -304, 716, 995, 1031, 562, 707, 598, 299, 402
283137143, -1434, -12880, -5843, -8148, 1617, 2615, -3695, -5044, 408, -623, 716, 995, 1031, 562, 707, 598, 299, 402
283137927, -1434, -12880, -5843, -8148, 1617, 2615, -3695, -5044, 408, -623, 685, 966, 891, 632, 683, 649, 320, 386
283138773, -1434, -12880, -5843, -8148, 1617, 2615, -3695, -5044, 408, -623, 685, 966, 891, 632, 683, 649, 320, 386
283143743, -1434, -12880, -5843, -8148, 1617, 2615, -3695, -5044, 408, -623, 685, 966, 891, 632, 683, 649, 320, 386
283144599, -1434, -12880, -5843, -8148, 1617, 2615, -3695, -5044, 408, -623, 685, 966, 891, 632, 683, 649, 320, 386
283145359, -1434, -12880, -5843, -8148, 1617, 2615, -3695, -5044, 408, -623, 685, 966, 891, 632, 683, 649, 320, 386
283146181, -1434, -12880, -5843, -8148, 1617, 2615, -3695, -5044, 408, -623, 685, 966, 891, 632, 683, 649, 320, 386
283151135, -1434, -12880, -5843, -8148, 1617, 2615, -3695, -5044, 408, -623, 685, 966, 891, 632, 683, 649, 320, 386
283151935, -1434, -12880, -5843, -8148, 1617, 2615, -3695, -5044, 408, -623, 685, 966, 891, 632, 683, 649, 320, 386
283152749, -1434, -12880, -5843, -8148, 1617, 2615, -3695, -5044, 408, -623, 685, 966, 891, 632, 683, 649, 320, 386
283153583, -1434, -12880, -5843, -8148, 1617, 2615, -3695, -5044, 408, -623, 685, 966, 891, 632, 683, 649, 320, 386
283158748, -1434, -12880, -5843, -8148, 1617, 2615, -3695, -5044, 408, -623, 685, 966, 891, 632, 683, 649, 320, 386
283159628, -2344, -12667, -5402, -8565, 1788, 1418, -3678, -6379, 656, -831, 685, 966, 891, 632, 683, 649, 320, 386
283160456, -2344, -12667, -5402, -8565, 1788, 1418, -3678, -6379, 656, -831, 735, 986, 921, 615, 757, 697, 323, 391
283161273, -2344, -12667, -5402, -8565, 1788, 1418, -3678, -6379, 656, -831, 735, 986, 921, 615, 757, 697, 323, 391
283166301, -2344, -12667, -5402, -8565, 1788, 1418, -3678, -6379, 656, -831, 735, 986, 921, 615, 757, 697, 323, 391
283167113, -2344, -12667, -5402, -8565, 1788, 1418, -3678, -6379, 656, -831, 735, 986, 921, 615, 757, 697, 323, 391
283167932, -2344, -12667, -5402, -8565, 1788, 1418, -3678, -6379, 656, -831, 735, 986, 921, 615, 757, 697, 323, 391
283168744, -2344, -12667, -5402, -8565, 1788, 1418, -3678, -6379, 656, -831, 735, 986, 921, 615, 757, 697, 323, 391
283173784, -2344, -12667, -5402, -8565, 1788, 1418, -3678, -6379, 656, -831, 735, 986, 921, 615, 757, 697, 323, 391
283174440, -2344, -12667, -5402, -8565, 1788, 1418, -3678, -6379, 656, -831, 735, 986, 921, 615, 757, 697, 323, 391
283175285, -2344, -12667, -5402, -8565, 1788, 1418, -3678, -6379, 656, -831, 735, 986, 921, 615, 757, 697, 323, 391
283176122, -2344, -12667, -5402, -8565, 1788, 1418, -3678, -6379, 656, -831, 735, 986, 921, 615, 757, 697, 323, 391
283181217, -2344, -12667, -5402, -8565, 1788, 1418, -3678, -6379, 656, -831, 735, 986, 921, 615, 757, 697, 323, 391
283182124, -3122, -12411, -4997, -8928, 2401, 1393, -3243, -5647, 762, -789, 735, 986, 921, 615, 757, 697, 323, 391
283182933, -3122, -12411, -4997, -8928, 2401, 1393, -3243, -5647, 762, -789, 648, 954, 903, 666, 827, 701, 274, 299
283183745, -3122, -12411, -4997, -8928, 2401, 1393, -3243, -5647, 762, -789, 648, 954, 903, 666, 827, 701, 274, 299
283188743, -3122, -12411, -4997, -8928, 2401, 1393, -3243, -5647, 762, -789, 648, 954, 903, 666, 827, 701, 274, 299
283189575, -3122, -12411, -4997, -8928, 2401, 1393, -3243, -5647, 762, -789, 648, 954, 903, 666, 827, 701, 274, 299
283190376, -3122, -12411, -4997, -8928, 2401, 1393, -3243, -5647, 762, -789, 648, 954, 903, 666, 827, 701, 274, 299
283191216, -3122, -12411, -4997, -8928, 2401, 1393, -3243, -5647, 762, -789, 648, 954, 903, 666, 827, 701, 274, 299
283194596, -3122, -12411, -4997, -8928, 2401, 1393, -3243, -5647, 762, -789, 648, 954, 903, 666, 827, 701, 274, 299
283195401, -3122, -12411, -4997, -8928, 2401, 1393, -3243, -5647, 762, -789, 648, 954, 903, 666, 827, 701, 274, 299
283203766, -3122, -12411, -4997, -8928, 2401, 1393, -3243, -5647, 762, -789, 648, 954, 903, 666, 827, 701, 274, 299
283204530, -3122, -12411, -4997, -8928, 2401, 1393, -3243, -5647, 762, -789, 648, 954, 903, 666, 827, 701, 274, 299
283205346, -3122, -12411, -4997, -8928, 2401, 1393, -3243, -5647, 762, -789, 648, 954, 903, 666, 827, 701, 274, 299
283206274, -3808, -12151, -4640, -9209, 1876, 1448, -3106, -4987, 660, -765, 648, 954, 903, 666, 827, 701, 274, 299
283211314, -3808, -12151, -4640, -9209, 1876, 1448, -3106, -4987, 660, -765, 542, 926, 847, 676, 814, 645, 250, 217
283212118, -3808, -12151, -4640, -9209, 1876, 1448, -3106, -4987, 660, -765, 542, 926, 847, 676, 814, 645, 250, 217
283212919, -3808, -12151, -4640, -9209, 1876, 1448, -3106, -4987, 660, -765, 542, 926, 847, 676, 814, 645, 250, 217
283213755, -3808, -12151, -4640, -9209, 1876, 1448, -3106, -4987, 660, -765, 542, 926, 847, 676, 814, 645, 250, 217
283218661, -3808, -12151, -4640, -9209, 1876, 1448, -3106, -4987, 660, -765, 542, 926, 847, 676, 814, 645, 250, 217
283219506, -3808, -12151, -4640, -9209, 1876, 1448, -3106, -4987, 660, -765, 542, 926, 847, 676, 814, 645, 250, 217
283220306, -3808, -12151, -4640, -9209, 1876, 1448, -3106, -4987, 660, -765, 542, 926, 847, 676, 814, 645, 250, 217
283221150, -3808, -12151, -4640, -9209, 1876, 1448, -3106, -4987, 660, -765, 542, 926, 847, 676, 814, 645, 250, 217
283226245, -3808, -12151, -4640, -9209, 1876, 1448, -3106, -4987, 660, -765, 542, 926, 847, 676, 814, 645, 250, 217
283227126, -4317, -11941, -4363, -9392, 1981, 1145, -2792, -3774, 459, -631, 542, 926, 847, 676, 814, 645, 250, 217
283227943, -4317, -11941, -4363, -9392, 1981, 1145, -2792, -3774, 459, -631, 529, 842, 850, 609, 782, 639, 214, 219
283228743, -4317, -11941, -4363, -9392, 1981, 1145, -2792, -3774, 459, -631, 529, 842, 850, 609, 782, 639, 214, 219
283233770, -4317, -11941, -4363, -9392, 1981, 1145, -2792, -3774, 459, -631, 529, 842, 850, 609, 782, 639, 214, 219
283234579, -4317, -11941, -4363, -9392, 1981, 1145, -2792, -3774, 459, -631, 529, 842, 850, 609, 782, 639, 214, 219
283235387, -4317, -11941, -4363, -9392, 1981, 1145, -2792, -3774, 459, -631, 529, 842, 850, 609, 782, 639, 214, 219
283236197, -4317, -11941, -4363, -9392, 1981, 1145, -2792, -3774, 459, -631, 529, 842, 850, 609, 782, 639, 214, 219
283241184, -4317, -11941, -4363, -9392, 1981, 1145, -2792, -3774, 459, -631, 529, 842, 850, 609, 782, 639, 214, 219
283241959, -4317, -11941, -4363, -9392, 1981, 1145, -2792, -3774, 459, -631, 529, 842, 850, 609, 782, 639, 214, 219
283242817, -4317, -11941, -4363, -9392, 1981, 1145, -2792, -3774, 459, -631, 529, 842, 850, 609, 782, 639, 214, 219
283243591, -4317, -11941, -4363, -9392, 1981, 1145, -2792, -3774, 459, -631, 529, 842, 850, 609, 782, 639, 214, 219
283248679, -4317, -11941, -4363, -9392, 1981, 1145, -2792, -3774, 459, -631, 529, 842, 850, 609, 782, 639, 214, 219
283249599, -4542, -11840, -4267, -9458, 2178, 1173, -2433, -1679, 288, -484, 529, 842, 850, 609, 782, 639, 214, 219
283250403, -4542, -11840, -4267, -9458, 2178, 1173, -2433, -1679, 288, -484, 511, 838, 840, 487, 721, 596, 185, 258
283251218, -4542, -11840, -4267, -9458, 2178, 1173, -2433, -1679, 288, -484, 511, 838, 840, 487, 721, 596, 185, 258
283256218, -4542, -11840, -4267, -9458, 2178, 1173, -2433, -1679, 288, -484, 511, 838, 840, 487, 721, 596, 185, 258
283257074, -4542, -11840, -4267, -9458, 2178, 1173, -2433, -1679, 288, -484, 511, 838, 840, 487, 721, 596, 185, 258
283257853, -4542, -11840, -4267, -9458, 2178, 1173, -2433, -1679, 288, -484, 511, 838, 840, 487, 721, 596, 185, 258
283258744, -4542, -11840, -4267, -9458, 2178, 1173, -2433, -1679, 288, -484, 511, 838, 840, 487, 721, 596, 185, 258
283263663, -4542, -11840, -4267, -9458, 2178, 1173, -2433, -1679, 288, -484, 511, 838, 840, 487, 721, 596, 185, 258
283264428, -4542, -11840, -4267, -9458, 2178, 1173, -2433, -1679, 288, -484, 511, 838, 840, 487, 721, 596, 185, 258
283265296, -4542, -11840, -4267, -9458, 2178, 1173, -2433, -1679, 288, -484, 511, 838, 840, 487, 721, 596, 185, 258
283266060, -4542, -11840, -4267, -9458, 2178, 1173, -2433, -1679, 288, -484, 511, 838, 840, 487, 721, 596, 185, 258
283271205, -4542, -11840, -4267, -9458, 2178, 1173, -2433, -1679, 288, -484, 511, 838, 840, 487, 721, 596, 185, 258
283272143, -4514, -11918, -4339, -9340, 2005, 1936, -2335, -56, 97, -318, 511, 838, 840, 487, 721, 596, 185, 258
283272983, -4514, -11918, -4339, -9340, 2005, 1936, -2335, -56, 97, -318, 489, 822, 808, 473, 668, 567, 176, 263
283273774, -4514, -11918, -4339, -9340, 2005, 1936, -2335, -56, 97, -318, 489, 822, 808, 473, 668, 567, 176, 263
283278766, -4514, -11918, -4339, -9340, 2005, 1936, -2335, -56, 97, -318, 489, 822, 808, 473, 668, 567, 176, 263
283279558, -4514, -11918, -4339, -9340, 2005, 1936, -2335, -56, 97, -318, 489, 822, 808, 473, 668, 567, 176, 263
283280376, -4514, -11918, -4339, -9340, 2005, 1936, -2335, -56, 97, -318, 489, 822, 808, 473, 668, 567, 176, 263
283281178, -4514, -11918, -4339, -9340, 2005, 1936, -2335, -56, 97, -318, 489, 822, 808, 473, 668, 567, 176, 263
283286160, -4514, -11918, -4339, -9340, 2005, 1936, -2335, -56, 97, -318, 489, 822, 808, 473, 668, 567, 176, 263
283286993, -4514, -11918, -4339, -9340, 2005, 1936, -2335, -56, 97, -318, 489, 822, 808, 473, 668, 567, 176, 263
283287799, -4514, -11918, -4339, -9340, 2005, 1936, -2335, -56, 97, -318, 489, 822, 808, 473, 668, 567, 176, 263
283288635, -4514, -11918, -4339, -9340, 2005, 1936, -2335, -56, 97, -318, 489, 822, 808, 473, 668, 567, 176, 263
283293743, -4514, -11918, -4339, -9340, 2005, 1936, -2335, -56, 97, -318, 489, 822, 808, 473, 668, 567, 176, 263
283294610, -4474, -12010, -4434, -9195, 1998, 2632, -2348, 221, -38, -139, 489, 822, 808, 473, 668, 567, 176, 263
283295425, -4474, -12010, -4434, -9195, 1998, 2632, -2348, 221, -38, -139, 464, 716, 728, 408, 572, 492, 169, 264
283296267, -4474, -12010, -4434, -9195, 1998, 2632, -2348, 221, -38, -139, 464, 716, 728, 408, 572, 492, 169, 264
283301256, -4474, -12010, -4434, -9195, 1998, 2632, -2348, 221, -38, -139, 464, 716, 728, 408, 572, 492, 169, 264
283302075, -4474, -12010, -4434, -9195, 1998, 2632, -2348, 221, -38, -139, 464, 716, 728, 408, 572, 492, 169, 264
283302878, -4474, -12010, -4434, -9195, 1998, 2632, -2348, 221, -38, -139, 464, 716, 728, 408, 572, 492, 169, 264
283303770, -4474, -12010, -4434, -9195, 1998, 2632, -2348, 221, -38, -139, 464, 716, 728, 408, 572, 492, 169, 264
283308635, -4474, -12010, -4434, -9195, 1998, 2632, -2348, 221, -38, -139, 464, 716, 728, 408, 572, 492, 169, 264
283309481, -4474, -12010, -4434, -9195, 1998, 2632, -2348, 221, -38, -139, 464, 716, 728, 408, 572, 492, 169, 264
283310271, -4474, -12010, -4434, -9195, 1998, 2632, -2348, 221, -38, -139, 464, 716, 728, 408, 572, 492, 169, 264
283311089, -4474, -12010, -4434, -9195, 1998, 2632, -2348, 221, -38, -139, 464, 716, 728, 408, 572, 492, 169, 264
283323744, -4474, -12010, -4434, -9195, 1998, 2632, -2348, 221, -38, -139, 464, 716, 728, 408, 572, 492, 169, 264
283324646, -4451, -12083, -4501, -9078, 1938, 2513, -2386, -15, 63, -94, 464, 716, 728, 408, 572, 492, 169, 264
283325459, -4451, -12083, -4501, -9078, 1938, 2513, -2386, -15, 63, -94, 498, 671, 722, 374, 591, 441, 178, 284
283326246, -4451, -12083, -4501, -9078, 1938, 2513, -2386, -15, 63, -94, 498, 671, 722, 374, 591, 441, 178, 284
283331298, -4451, -12083, -4501, -9078, 1938, 2513, -2386, -15, 63, -94, 498, 671, 722, 374, 591, 441, 178, 284
283332086, -4451, -12083, -4501, -9078, 1938, 2513, -2386, -15, 63, -94, 498, 671, 722, 374, 591, 441, 178, 284
283332932, -4451, -12083, -4501, -9078, 1938, 2513, -2386, -15, 63, -94, 498, 671, 722, 374, 591, 441, 178, 284
283333765, -4451, -12083, -4501, -9078, 1938, 2513, -2386, -15, 63, -94, 498, 671, 722, 374, 591, 441, 178, 284
283338689, -4451, -12083, -4501, -9078, 1938, 2513, -2386, -15, 63, -94, 498, 671, 722, 374, 591, 441, 178, 284
283339479, -4451, -12083, -4501, -9078, 1938, 2513, -2386, -15, 63, -94, 498, 671, 722, 374, 591, 441, 178, 284
283340295, -4451, -12083, -4501, -9078, 1938, 2513, -2386, -15, 63, -94, 498, 671, 722, 374, 591, 441, 178, 284
283341098, -4451, -12083, -4501, -9078, 1938, 2513, -2386, -15, 63, -94, 498, 671, 722, 374, 591, 441, 178, 284
283346182, -4451, -12083, -4501, -9078, 1938, 2513, -2386, -15, 63, -94, 498, 671, 722, 374, 591, 441, 178, 284
283347104, -4447, -12146, -4564, -8963, 1935, 2610, -2426, -109, 59, -129, 498, 671, 722, 374, 591, 441, 178, 284
283347880, -4447, -12146, -4564, -8963, 1935, 2610, -2426, -109, 59, -129, 458, 703, 677, 356, 538, 436, 168, 284
283348718, -4447, -12146, -4564, -8963, 1935, 2610, -2426, -109, 59, -129, 458, 703, 677, 356, 538, 436, 168, 284
283353717, -4447, -12146, -4564, -8963, 1935, 2610, -2426, -109, 59, -129, 458, 703, 677, 356, 538, 436, 168, 284
283354532, -4447, -12146, -4564, -8963, 1935, 2610, -2426, -109, 59, -129, 458, 703, 677, 356, 538, 436, 168, 284
283355350, -4447, -12146, -4564, -8963, 1935, 2610, -2426, -109, 59, -129, 458, 703, 677, 356, 538, 436, 168, 284
283356194, -4447, -12146, -4564, -8963, 1935, 2610, -2426, -109, 59, -129, 458, 703, 677, 356, 538, 436, 168, 284
283361124, -4447, -12146, -4564, -8963, 1935, 2610, -2426, -109, 59, -129, 458, 703, 677, 356, 538, 436, 168, 284
283361996, -4447, -12146, -4564, -8963, 1935, 2610, -2426, -109, 59, -129, 458, 703, 677, 356, 538, 436, 168, 284
283362796, -4447, -12146, -4564, -8963, 1935, 2610, -2426, -109, 59, -129, 458, 703, 677, 356, 538, 436, 168, 284
283363606, -4447, -12146, -4564, -8963, 1935, 2610, -2426, -109, 59, -129, 458, 703, 677, 356, 538, 436, 168, 284
283368772, -4447, -12146, -4564, -8963, 1935, 2610, -2426, -109, 59, -129, 458, 703, 677, 356, 538, 436, 168, 284
283369633, -4468, -12208, -4600, -8849, 1822, 2525, -2472, -303, -15, -94, 458, 703, 677, 356, 538, 436, 168, 284
283370494, -4468, -12208, -4600, -8849, 1822, 2525, -2472, -303, -15, -94, 463, 663, 672, 426, 588, 420, 154, 257
283371294, -4468, -12208, -4600, -8849, 1822, 2525, -2472, -303, -15, -94, 463, 663, 672, 426, 588, 420, 154, 257
283376287, -4468, -12208, -4600, -8849, 1822, 2525, -2472, -303, -15, -94, 463, 663, 672, 426, 588, 420, 154, 257
283377065, -4468, -12208, -4600, -8849, 1822, 2525, -2472, -303, -15, -94, 463, 663, 672, 426, 588, 420, 154, 257
283377879, -4468, -12208, -4600, -8849, 1822, 2525, -2472, -303, -15, -94, 463, 663, 672, 426, 588, 420, 154, 257
283378718, -4468, -12208, -4600, -8849, 1822, 2525, -2472, -303, -15, -94, 463, 663, 672, 426, 588, 420, 154, 257
283383636, -4468, -12208, -4600, -8849, 1822, 2525, -2472, -303, -15, -94, 463, 663, 672, 426, 588, 420, 154, 257
283384454, -4468, -12208, -4600, -8849, 1822, 2525, -2472, -303, -15, -94, 463, 663, 672, 426, 588, 420, 154, 257
283385282, -4468, -12208, -4600, -8849, 1822, 2525, -2472, -303, -15, -94, 463, 663, 672, 426, 588, 420, 154, 257
283386090, -4468, -12208, -4600, -8849, 1822, 2525, -2472, -303, -15, -94, 463, 663, 672, 426, 588, 420, 154, 257
283391169, -4468, -12208, -4600, -8849, 1822, 2525, -2472, -303, -15, -94, 463, 663, 672, 426, 588, 420, 154, 257
283392144, -4491, -12276, -4622, -8731, 1801, 2375, -2519, -375, -71, -98, 463, 663, 672, 426, 588, 420, 154, 257
283392931, -4491, -12276, -4622, -8731, 1801, 2375, -2519, -375, -71, -98, 451, 678, 689, 474, 546, 381, 155, 245
283393783, -4491, -12276, -4622, -8731, 1801, 2375, -2519, -375, -71, -98, 451, 678, 689, 474, 546, 381, 155, 245
283398743, -4491, -12276, -4622, -8731, 1801, 2375, -2519, -375, -71, -98, 451, 678, 689, 474, 546, 381, 155, 245
283399585, -4491, -12276, -4622, -8731, 1801, 2375, -2519, -375, -71, -98, 451, 678, 689, 474, 546, 381, 155, 245
283400378, -4491, -12276, -4622, -8731, 1801, 2375, -2519, -375, -71, -98, 451, 678, 689, 474, 546, 381, 155, 245
283401194, -4491, -12276, -4622, -8731, 1801, 2375, -2519, -375, -71, -98, 451, 678, 689, 474, 546, 381, 155, 245
283406150, -4491, -12276, -4622, -8731, 1801, 2375, -2519, -375, -71, -98, 451, 678, 689, 474, 546, 381, 155, 245
283406957, -4491, -12276, -4622, -8731, 1801, 2375, -2519, -375, -71, -98, 451, 678, 689, 474, 546, 381, 155, 245
283407797, -4491, -12276, -4622, -8731, 1801, 2375, -2519, -375, -71, -98, 451, 678, 689, 474, 546, 381, 155, 245
283408583, -4491, -12276, -4622, -8731, 1801, 2375, -2519, -375, -71, -98, 451, 678, 689, 474, 546, 381, 155, 245
283413660, -4491, -12276, -4622, -8731, 1801, 2375, -2519, -375, -71, -98, 451, 678, 689, 474, 546, 381, 155, 245
283414585, -4491, -12356, -4643, -8607, 1777, 2325, -2561, -251, -112, -36, 451, 678, 689, 474, 546, 381, 155, 245
283415441, -4491, -12356, -4643, -8607, 1777, 2325, -2561, -251, -112, -36, 482, 825, 693, 466, 573, 318, 151, 253
283416242, -4491, -12356, -4643, -8607, 1777, 2325, -2561, -251, -112, -36, 482, 825, 693, 466, 573, 318, 151, 253
283421254, -4491, -12356, -4643, -8607, 1777, 2325, -2561, -251, -112, -36, 482, 825, 693, 466, 573, 318, 151, 253
283422055, -4491, -12356, -4643, -8607, 1777, 2325, -2561, -251, -112, -36, 482, 825, 693, 466, 573, 318, 151, 253
283422876, -4491, -12356, -4643, -8607, 1777, 2325, -2561, -251, -112, -36, 482, 825, 693, 466, 573, 318, 151, 253
283423743, -4491, -12356, -4643, -8607, 1777, 2325, -2561, -251, -112, -36, 482, 825, 693, 466, 573, 318, 151, 253
283428624, -4491, -12356, -4643, -8607, 1777, 2325, -2561, -251, -112, -36, 482, 825, 693, 466, 573, 318, 151, 253
283429471, -4491, -12356, -4643, -8607, 1777, 2325, -2561, -251, -112, -36, 482, 825, 693, 466, 573, 318, 151, 253
283430272, -4491, -12356, -4643, -8607, 1777, 2325, -2561, -251, -112, -36, 482, 825, 693, 466, 573, 318, 151, 253
283431061, -4491, -12356, -4643, -8607, 1777, 2325, -2561, -251, -112, -36, 482, 825, 693, 466, 573, 318, 151, 253
283435337, -4491, -12356, -4643, -8607, 1777, 2325, -2561, -251, -112, -36, 482, 825, 693, 466, 573, 318, 151, 253
283436247, -4467, -12445, -4668, -8476, 1822, 2295, -2562, -91, -154, -11, 482, 825, 693, 466, 573, 318, 151, 253
283437102, -4467, -12445, -4668, -8476, 1822, 2295, -2562, -91, -154, -11, 451, 880, 741, 454, 570, 286, 127, 243
283443775, -4467, -12445, -4668, -8476, 1822, 2295, -2562, -91, -154, -11, 451, 880, 741, 454, 570, 286, 127, 243
283444615, -4467, -12445, -4668, -8476, 1822, 2295, -2562, -91, -154, -11, 451, 880, 741, 454, 570, 286, 127, 243
283445385, -4467, -12445, -4668, -8476, 1822, 2295, -2562, -91, -154, -11, 451, 880, 741, 454, 570, 286, 127, 243
283446247, -4467, -12445, -4668, -8476, 1822, 2295, -2562, -91, -154, -11, 451, 880, 741, 454, 570, 286, 127, 243
283451175, -4467, -12445, -4668, -8476, 1822, 2295, -2562, -91, -154, -11, 451, 880, 741, 454, 570, 286, 127, 243
283451989, -4467, -12445, -4668, -8476, 1822, 2295, -2562, -91, -154, -11, 451, 880, 741, 454, 570, 286, 127, 243
283452809, -4467, -12445, -4668, -8476, 1822, 2295, -2562, -91, -154, -11, 451, 880, 741, 454, 570, 286, 127, 243
283453596, -4467, -12445, -4668, -8476, 1822, 2295, -2562, -91, -154, -11, 451, 880, 741, 454, 570, 286, 127, 243
283458664, -4467, -12445, -4668, -8476, 1822, 2295, -2562, -91, -154, -11, 451, 880, 741, 454, 570, 286, 127, 243
283459614, -4413, -12542, -4706, -8339, 1839, 2292, -2569, 122, -168, 21, 451, 880, 741, 454, 570, 286, 127, 243
283460418, -4413, -12542, -4706, -8339, 1839, 2292, -2569, 122, -168, 21, 440, 879, 758, 486, 549, 237, 121, 221
283461205, -4413, -12542, -4706, -8339, 1839, 2292, -2569, 122, -168, 21, 440, 879, 758, 486, 549, 237, 121, 221
283473774, -4413, -12542, -4706, -8339, 1839, 2292, -2569, 122, -168, 21, 440, 879, 758, 486, 549, 237, 121, 221
283474559, -4413, -12542, -4706, -8339, 1839, 2292, -2569, 122, -168, 21, 440, 879, 758, 486, 549, 237, 121, 221
283475417, -4413, -12542, -4706, -8339, 1839, 2292, -2569, 122, -168, 21, 440, 879, 758, 486, 549, 237, 121, 221
283476193, -4413, -12542, -4706, -8339, 1839, 2292, -2569, 122, -168, 21, 440, 879, 758, 486, 549, 237, 121, 221
283481155, -4413, -12542, -4706, -8339, 1839, 2292, -2569, 122, -168, 21, 440, 879, 758, 486, 549, 237, 121, 221
283481957, -4413, -12542, -4706, -8339, 1839, 2292, -2569, 122, -168, 21, 440, 879, 758, 486, 549, 237, 121, 221
283482816, -4413, -12542, -4706, -8339, 1839, 2292, -2569, 122, -168, 21, 440, 879, 758, 486, 549, 237, 121, 221
283483585, -4413, -12542, -4706, -8339, 1839, 2292, -2569, 122, -168, 21, 440, 879, 758, 486, 549, 237, 121, 221
283488657, -4413, -12542, -4706, -8339, 1839, 2292, -2569, 122, -168, 21, 440, 879, 758, 486, 549, 237, 121, 221
283489571, -4339, -12643, -4751, -8199, 1856, 2354, -2623, 265, -165, 57, 440, 879, 758, 486, 549, 237, 121, 221
283490443, -4339, -12643, -4751, -8199, 1856, 2354, -2623, 265, -165, 57, 404, 844, 707, 484, 500, 224, 118, 193
283491241, -4339, -12643, -4751, -8199, 1856, 2354, -2623, 265, -165, 57, 404, 844, 707, 484, 500, 224, 118, 193
283496242, -4339, -12643, -4751, -8199, 1856, 2354, -2623, 265, -165, 57, 404, 844, 707, 484, 500, 224, 118, 193
283497020, -4339, -12643, -4751, -8199, 1856, 2354, -2623, 265, -165, 57, 404, 844, 707, 484, 500, 224, 118, 193
283497890, -4339, -12643, -4751, -8199, 1856, 2354, -2623, 265, -165, 57, 404, 844, 707, 484, 500, 224, 118, 193
283498660, -4339, -12643, -4751, -8199, 1856, 2354, -2623, 265, -165, 57, 404, 844, 707, 484, 500, 224, 118, 193
283503669, -4339, -12643, -4751, -8199, 1856, 2354, -2623, 265, -165, 57, 404, 844, 707, 484, 500, 224, 118, 193
283504463, -4339, -12643, -4751, -8199, 1856, 2354, -2623, 265, -165, 57, 404, 844, 707, 484, 500, 224, 118, 193
283505283, -4339, -12643, -4751, -8199, 1856, 2354, -2623, 265, -165, 57, 404, 844, 707, 484, 500, 224, 118, 193
283506090, -4339, -12643, -4751, -8199, 1856, 2354, -2623, 265, -165, 57, 404, 844, 707, 484, 500, 224, 118, 193
283511169, -4339, -12643, -4751, -8199, 1856, 2354, -2623, 265, -165, 57, 404, 844, 707, 484, 500, 224, 118, 193
283512118, -4276, -12732, -4790, -8071, 1825, 2397, -2615, 210, -133, 76, 404, 844, 707, 484, 500, 224, 118, 193
283512971, -4276, -12732, -4790, -8071, 1825, 2397, -2615, 210, -133, 76, 420, 860, 659, 524, 503, 274, 125, 205
283513744, -4276, -12732, -4790, -8071, 1825, 2397, -2615, 210, -133, 76, 420, 860, 659, 524, 503, 274, 125, 205
283518751, -4276, -12732, -4790, -8071, 1825, 2397, -2615, 210, -133, 76, 420, 860, 659, 524, 503, 274, 125, 205
283519565, -4276, -12732, -4790, -8071, 1825, 2397, -2615, 210, -133, 76, 420, 860, 659, 524, 503, 274, 125, 205
283520375, -4276, -12732, -4790, -8071, 1825, 2397, -2615, 210, -133, 76, 420, 860, 659, 524, 503, 274, 125, 205
283521229, -4276, -12732, -4790, -8071, 1825, 2397, -2615, 210, -133, 76, 420, 860, 659, 524, 503, 274, 125, 205
283533623, -4276, -12732, -4790, -8071, 1825, 2397, -2615, 210, -133, 76, 420, 860, 659, 524, 503, 274, 125, 205
283534437, -4276, -12732, -4790, -8071, 1825, 2397, -2615, 210, -133, 76, 420, 860, 659, 524, 503, 274, 125, 205
283535247, -4276, -12732, -4790, -8071, 1825, 2397, -2615, 210, -133, 76, 420, 860, 659, 524, 503, 274, 125, 205
283536050, -4276, -12732, -4790, -8071, 1825, 2397, -2615, 210, -133, 76, 420, 860, 659, 524, 503, 274, 125, 205
283541179, -4276, -12732, -4790, -8071, 1825, 2397, -2615, 210, -133, 76, 420, 860, 659, 524, 503, 274, 125, 205
283542118, -4220, -12810, -4819, -7959, 1836, 2334, -2595, 137, -90, 80, 420, 860, 659, 524, 503, 274, 125, 205
283542931, -4220, -12810, -4819, -7959, 1836, 2334, -2595, 137, -90, 80, 395, 769, 692, 622, 461, 287, 120, 181
283543767, -4220, -12810, -4819, -7959, 1836, 2334, -2595, 137, -90, 80, 395, 769, 692, 622, 461, 287, 120, 181
283548776, -4220, -12810, -4819, -7959, 1836, 2334, -2595, 137, -90, 80, 395, 769, 692, 622, 461, 287, 120, 181
283549543, -4220, -12810, -4819, -7959, 1836, 2334, -2595, 137, -90, 80, 395, 769, 692, 622, 461, 287, 120, 181
283550376, -4220, -12810, -4819, -7959, 1836, 2334, -2595, 137, -90, 80, 395, 769, 692, 622, 461, 287, 120, 181
283551193, -4220, -12810, -4819, -7959, 1836, 2334, -2595, 137, -90, 80, 395, 769, 692, 622, 461, 287, 120, 181
283556168, -4220, -12810, -4819, -7959, 1836, 2334, -2595, 137, -90, 80, 395, 769, 692, 622, 461, 287, 120, 181
283557010, -4220, -12810, -4819, -7959, 1836, 2334, -2595, 137, -90, 80, 395, 769, 692, 622, 461, 287, 120, 181
283557800, -4220, -12810, -4819, -7959, 1836, 2334, -2595, 137, -90, 80, 395, 769, 692, 622, 461, 287, 120, 181
283558636, -4220, -12810, -4819, -7959, 1836, 2334, -2595, 137, -90, 80, 395, 769, 692, 622, 461, 287, 120, 181
283563661, -4220, -12810, -4819, -7959, 1836, 2334, -2595, 137, -90, 80, 395, 769, 692, 622, 461, 287, 120, 181
283564648, -4151, -12889, -4841, -7853, 1850, 2205, -2630, 153, -68, 107, 395, 769, 692, 622, 461, 287, 120, 181
283565464, -4151, -12889, -4841, -7853, 1850, 2205, -2630, 153, -68, 107, 384, 770, 552, 779, 475, 284, 104, 157
283566268, -4151, -12889, -4841, -7853, 1850, 2205, -2630, 153, -68, 107, 384, 770, 552, 779, 475, 284, 104, 157
283571252, -4151, -12889, -4841, -7853, 1850, 2205, -2630, 153, -68, 107, 384, 770, 552, 779, 475, 284, 104, 157
283572102, -4151, -12889, -4841, -7853, 1850, 2205, -2630, 153, -68, 107, 384, 770, 552, 779, 475, 284, 104, 157
283572866, -4151, -12889, -4841, -7853, 1850, 2205, -2630, 153, -68, 107, 384, 770, 552, 779, 475, 284, 104, 157
283573769, -4151, -12889, -4841, -7853, 1850, 2205, -2630, 153, -68, 107, 384, 770, 552, 779, 475, 284, 104, 157
283578635, -4151, -12889, -4841, -7853, 1850, 2205, -2630, 153, -68, 107, 384, 770, 552, 779, 475, 284, 104, 157
283579451, -4151, -12889, -4841, -7853, 1850, 2205, -2630, 153, -68, 107, 384, 770, 552, 779, 475, 284, 104, 157
283580270, -4151, -12889, -4841, -7853, 1850, 2205, -2630, 153, -68, 107, 384, 770, 552, 779, 475, 284, 104, 157
283581100, -4151, -12889, -4841, -7853, 1850, 2205, -2630, 153, -68, 107, 384, 770, 552, 779, 475, 284, 104, 157
283586140, -4151, -12889, -4841, -7853, 1850, 2205, -2630, 153, -68, 107, 384, 770, 552, 779, 475, 284, 104, 157
283587115, -4047, -12974, -4875, -7745, 1845, 2104, -2688, 342, -23, 134, 384, 770, 552, 779, 475, 284, 104, 157
283587904, -4047, -12974, -4875, -7745, 1845, 2104, -2688, 342, -23, 134, 406, 767, 533, 792, 470, 288, 110, 153
283588784, -4047, -12974, -4875, -7745, 1845, 2104, -2688, 342, -23, 134, 406, 767, 533, 792, 470, 288, 110, 153
283591505, -4047, -12974, -4875, -7745, 1845, 2104, -2688, 342, -23, 134, 406, 767, 533, 792, 470, 288, 110, 153
283601192, -4047, -12974, -4875, -7745, 1845, 2104, -2688, 342, -23, 134, 406, 767, 533, 792, 470, 288, 110, 153
283601982, -4047, -12974, -4875, -7745, 1845, 2104, -2688, 342, -23, 134, 406, 767, 533, 792, 470, 288, 110, 153
283602842, -4047, -12974, -4875, -7745, 1845, 2104, -2688, 342, -23, 134, 406, 767, 533, 792, 470, 288, 110, 153
283603609, -4047, -12974, -4875, -7745, 1845, 2104, -2688, 342, -23, 134, 406, 767, 533, 792, 470, 288, 110, 153
283608634, -4047, -12974, -4875, -7745, 1845, 2104, -2688, 342, -23, 134, 406, 767, 533, 792, 470, 288, 110, 153
283609443, -4047, -12974, -4875, -7745, 1845, 2104, -2688, 342, -23, 134, 406, 767, 533, 792, 470, 288, 110, 153
283610275, -4047, -12974, -4875, -7745, 1845, 2104, -2688, 342, -23, 134, 406, 767, 533, 792, 470, 288, 110, 153
283611072, -4047, -12974, -4875, -7745, 1845, 2104, -2688, 342, -23, 134, 406, 767, 533, 792, 470, 288, 110, 153
283616259, -4047, -12974, -4875, -7745, 1845, 2104, -2688, 342, -23, 134, 416, 790, 532, 925, 499, 276, 108, 155
283617060, -4047, -12974, -4875, -7745, 1845, 2104, -2688, 342, -23, 134, 416, 790, 532, 925, 499, 276, 108, 155
283617864, -4047, -12974, -4875, -7745, 1845, 2104, -2688, 342, -23, 134, 416, 790, 532, 925, 499, 276, 108, 155
283618743, -4047, -12974, -4875, -7745, 1845, 2104, -2688, 342, -23, 134, 416, 790, 532, 925, 499, 276, 108, 155
283623676, -4047, -12974, -4875, -7745, 1845, 2104, -2688, 342, -23, 134, 416, 790, 532, 925, 499, 276, 108, 155
283624475, -4047, -12974, -4875, -7745, 1845, 2104, -2688, 342, -23, 134, 416, 790, 532, 925, 499, 276, 108, 155
283625267, -4047, -12974, -4875, -7745, 1845, 2104, -2688, 342, -23, 134, 416, 790, 532, 925, 499, 276, 108, 155
283626073, -4047, -12974, -4875, -7745, 1845, 2104, -2688, 342, -23, 134, 416, 790, 532, 925, 499, 276, 108, 155
283631145, -4047, -12974, -4875, -7745, 1845, 2104, -2688, 342, -23, 134, 416, 790, 532, 925, 499, 276, 108, 155
283632087, -3673, -13147, -5050, -7526, 1916, 1863, -2698, 1136, 177, 49, 416, 790, 532, 925, 499, 276, 108, 155
283632907, -3673, -13147, -5050, -7526, 1916, 1863, -2698, 1136, 177, 49, 359, 801, 506, 925, 468, 190, 79, 114
283633756, -3673, -13147, -5050, -7526, 1916, 1863, -2698, 1136, 177, 49, 359, 801, 506, 925, 468, 190, 79, 114
283638742, -3673, -13147, -5050, -7526, 1916, 1863, -2698, 1136, 177, 49, 359, 801, 506, 925, 468, 190, 79, 114
283639573, -3673, -13147, -5050, -7526, 1916, 1863, -2698, 1136, 177, 49, 359, 801, 506, 925, 468, 190, 79, 114
283640350, -3673, -13147, -5050, -7526, 1916, 1863, -2698, 1136, 177, 49, 359, 801, 506, 925, 468, 190, 79, 114
283641193, -3673, -13147, -5050, -7526, 1916, 1863, -2698, 1136, 177, 49, 359, 801, 506, 925, 468, 190, 79, 114
283646162, -3673, -13147, -5050, -7526, 1916, 1863, -2698, 1136, 177, 49, 359, 801, 506, 925, 468, 190, 79, 114
283646965, -3673, -13147, -5050, -7526, 1916, 1863, -2698, 1136, 177, 49, 359, 801, 506, 925, 468, 190, 79, 114
283647776, -3673, -13147, -5050, -7526, 1916, 1863, -2698, 1136, 177, 49, 359, 801, 506, 925, 468, 190, 79, 114
283648583, -3673, -13147, -5050, -7526, 1916, 1863, -2698, 1136, 177, 49, 359, 801, 506, 925, 468, 190, 79, 114
283653759, -3673, -13147, -5050, -7526, 1916, 1863, -2698, 1136, 177, 49, 359, 801, 506, 925, 468, 190, 79, 114
283654612, -3395, -13202, -5218, -7444, 1968, 1746, -2636, 1787, 266, -67, 359, 801, 506, 925, 468, 190, 79, 114
283655469, -3395, -13202, -5218, -7444, 1968, 1746, -2636, 1787, 266, -67, 352, 792, 422, 864, 426, 151, 70, 120
283656245, -3395, -13202, -5218, -7444, 1968, 1746, -2636, 1787, 266, -67, 352, 792, 422, 864, 426, 151, 70, 120
283661296, -3395, -13202, -5218, -7444, 1968, 1746, -2636, 1787, 266, -67, 352, 792, 422, 864, 426, 151, 70, 120
283662060, -3395, -13202, -5218, -7444, 1968, 1746, -2636, 1787, 266, -67, 352, 792, 422, 864, 426, 151, 70, 120
283662906, -3395, -13202, -5218, -7444, 1968, 1746, -2636, 1787, 266, -67, 352, 792, 422, 864, 426, 151, 70, 120
283663772, -3395, -13202, -5218, -7444, 1968, 1746, -2636, 1787, 266, -67, 352, 792, 422, 864, 426, 151, 70, 120
283668635, -3395, -13202, -5218, -7444, 1968, 1746, -2636, 1787, 266, -67, 352, 792, 422, 864, 426, 151, 70, 120
283669490, -3395, -13202, -5218, -7444, 1968, 1746, -2636, 1787, 266, -67, 352, 792, 422, 864, 426, 151, 70, 120
283670274, -3395, -13202, -5218, -7444, 1968, 1746, -2636, 1787, 266, -67, 352, 792, 422, 864, 426, 151, 70, 120
283671096, -3395, -13202, -5218, -7444, 1968, 1746, -2636, 1787, 266, -67, 352, 792, 422, 864, 426, 151, 70, 120
283676145, -3395, -13202, -5218, -7444, 1968, 1746, -2636, 1787, 266, -67, 352, 792, 422, 864, 426, 151, 70, 120
283677081, -3007, -13265, -5461, -7323, 1957, 1637, -2636, 2564, 339, -165, 352, 792, 422, 864, 426, 151, 70, 120
283677875, -3007, -13265, -5461, -7323, 1957, 1637, -2636, 2564, 339, -165, 348, 747, 402, 762, 356, 127, 70, 115
283678717, -3007, -13265, -5461, -7323, 1957, 1637, -2636, 2564, 339, -165, 348, 747, 402, 762, 356, 127, 70, 115
283683735, -3007, -13265, -5461, -7323, 1957, 1637, -2636, 2564, 339, -165, 348, 747, 402, 762, 356, 127, 70, 115
283684507, -3007, -13265, -5461, -7323, 1957, 1637, -2636, 2564, 339, -165, 348, 747, 402, 762, 356, 127, 70, 115
283685334, -3007, -13265, -5461, -7323, 1957, 1637, -2636, 2564, 339, -165, 348, 747, 402, 762, 356, 127, 70, 115
283686142, -3007, -13265, -5461, -7323, 1957, 1637, -2636, 2564, 339, -165, 348, 747, 402, 762, 356, 127, 70, 115
283691109, -3007, -13265, -5461, -7323, 1957, 1637, -2636, 2564, 339, -165, 348, 747, 402, 762, 356, 127, 70, 115
283691921, -3007, -13265, -5461, -7323, 1957, 1637, -2636, 2564, 339, -165, 348, 747, 402, 762, 356, 127, 70, 115
283692745, -3007, -13265, -5461, -7323, 1957, 1637, -2636, 2564, 339, -165, 348, 747, 402, 762, 356, 127, 70, 115
283693566, -3007, -13265, -5461, -7323, 1957, 1637, -2636, 2564, 339, -165, 348, 747, 402, 762, 356, 127, 70, 115
283698635, -3007, -13265, -5461, -7323, 1957, 1637, -2636, 2564, 339, -165, 348, 747, 402, 762, 356, 127, 70, 115
283699587, -2505, -13338, -5771, -7140, 1823, 1496, -2759, 3377, 326, -210, 348, 747, 402, 762, 356, 127, 70, 115
283700377, -2505, -13338, -5771, -7140, 1823, 1496, -2759, 3377, 326, -210, 278, 754, 338, 737, 333, 92, 65, 106
283701244, -2505, -13338, -5771, -7140, 1823, 1496, -2759, 3377, 326, -210, 278, 754, 338, 737, 333, 92, 65, 106
283706216, -2505, -13338, -5771, -7140, 1823, 1496, -2759, 3377, 326, -210, 278, 754, 338, 737, 333, 92, 65, 106
283707030, -2505, -13338, -5771, -7140, 1823, 1496, -2759, 3377, 326, -210, 278, 754, 338, 737, 333, 92, 65, 106
283707843, -2505, -13338, -5771, -7140, 1823, 1496, -2759, 3377, 326, -210, 278, 754, 338, 737, 333, 92, 65, 106
283708661, -2505, -13338, -5771, -7140, 1823, 1496, -2759, 3377, 326, -210, 278, 754, 338, 737, 333, 92, 65, 106
283712156, -2505, -13338, -5771, -7140, 1823, 1496, -2759, 3377, 326, -210, 278, 754, 338, 737, 333, 92, 65, 106
283712904, -2505, -13338, -5771, -7140, 1823, 1496, -2759, 3377, 326, -210, 278, 754, 338, 737, 333, 92, 65, 106
283721178, -2505, -13338, -5771, -7140, 1823, 1496, -2759, 3377, 326, -210, 278, 754, 338, 737, 333, 92, 65, 106
283721982, -2505, -13338, -5771, -7140, 1823, 1496, -2759, 3377, 326, -210, 278, 754, 338, 737, 333, 92, 65, 106
283722840, -2505, -13338, -5771, -7140, 1823, 1496, -2759, 3377, 326, -210, 278, 754, 338, 737, 333, 92, 65, 106
283723768, -1943, -13411, -6108, -6895, 1778, 1676, -2959, 3865, 193, -217, 278, 754, 338, 737, 333, 92, 65, 106
283728754, -1943, -13411, -6108, -6895, 1778, 1676, -2959, 3865, 193, -217, 280, 727, 332, 510, 240, 69, 63, 104
283729579, -1943, -13411, -6108, -6895, 1778, 1676, -2959, 3865, 193, -217, 280, 727, 332, 510, 240, 69, 63, 104
283730384, -1943, -13411, -6108, -6895, 1778, 1676, -2959, 3865, 193, -217, 280, 727, 332, 510, 240, 69, 63, 104
283731196, -1943, -13411, -6108, -6895, 1778, 1676, -2959, 3865, 193, -217, 280, 727, 332, 510, 240, 69, 63, 104
283736115, -1943, -13411, -6108, -6895, 1778, 1676, -2959, 3865, 193, -217, 280, 727, 332, 510, 240, 69, 63, 104
283736983, -1943, -13411, -6108, -6895, 1778, 1676, -2959, 3865, 193, -217, 280, 727, 332, 510, 240, 69, 63, 104
283737771, -1943, -13411, -6108, -6895, 1778, 1676, -2959, 3865, 193, -217, 280, 727, 332, 510, 240, 69, 63, 104
283738565, -1943, -13411, -6108, -6895, 1778, 1676, -2959, 3865, 193, -217, 280, 727, 332, 510, 240, 69, 63, 104
283743631, -1943, -13411, -6108, -6895, 1778, 1676, -2959, 3865, 193, -217, 280, 727, 332, 510, 240, 69, 63, 104
283744575, -1375, -13462, -6429, -6635, 1786, 1887, -3054, 3916, 178, -151, 280, 727, 332, 510, 240, 69, 63, 104
283745376, -1375, -13462, -6429, -6635, 1786, 1887, -3054, 3916, 178, -151, 268, 628, 299, 410, 180, 60, 62, 98
283746178, -1375, -13462, -6429, -6635, 1786, 1887, -3054, 3916, 178, -151, 268, 628, 299, 410, 180, 60, 62, 98
283757156, -1375, -13462, -6429, -6635, 1786, 1887, -3054, 3916, 178, -151, 268, 628, 299, 410, 180, 60, 62, 98
283757954, -1375, -13462, -6429, -6635, 1786, 1887, -3054, 3916, 178, -151, 268, 628, 299, 410, 180, 60, 62, 98
283766172, -1375, -13462, -6429, -6635, 1786, 1887, -3054, 3916, 178, -151, 268, 628, 299, 410, 180, 60, 62, 98
283766978, -1375, -13462, -6429, -6635, 1786, 1887, -3054, 3916, 178, -151, 268, 628, 299, 410, 180, 60, 62, 98
283767774, -1375, -13462, -6429, -6635, 1786, 1887, -3054, 3916, 178, -151, 268, 628, 299, 410, 180, 60, 62, 98
283768603, -1375, -13462, -6429, -6635, 1786, 1887, -3054, 3916, 178, -151, 268, 628, 299, 410, 180, 60, 62, 98
