Timestamp, Orientation x, Orientation y, Orientation z, Orientation w, Acceleration x, Acceleration y, Acceleration z, Rotation x, Rotation y, Rotation z, EMG 0, EMG 1, EMG 2, EMG 3, EMG 4, EMG 5, EMG 6, EMG 7
160365470, 346, 1797, 15905, 3476, 44, 808, -1752, 24, 21, -2, 0, 0, 0, 0, 0, 0, 0, 0
160366313, 340, 1797, 15907, 3471, 38, 810, -1753, 35, 15, 0, 0, 0, 0, 0, 0, 0, 0, 0
160372287, 340, 1797, 15909, 3461, 4, 806, -1761, 58, -3, 0, 0, 0, 0, 0, 0, 0, 0, 0
160394809, 346, 1799, 15914, 3434, -20, 758, -1761, 130, -36, 2, 0, 0, 0, 0, 0, 0, 0, 0
160417297, 361, 1807, 15927, 3371, -82, 663, -1709, 302, -89, 27, 0, 0, 0, 0, 0, 0, 0, 0
160432948, 361, 1807, 15927, 3371, -82, 663, -1709, 302, -89, 27, 24, 29, 47, 173, 113, 82, 23, 23
160433771, 361, 1807, 15927, 3371, -82, 663, -1709, 302, -89, 27, 24, 29, 47, 173, 113, 82, 23, 23
160439920, 391, 1830, 15954, 3224, -111, 524, -1688, 722, -224, 78, 24, 29, 47, 173, 113, 82, 23, 23
160456143, 391, 1830, 15954, 3224, -111, 524, -1688, 722, -224, 78, 25, 31, 59, 279, 175, 66, 25, 21
160456964, 391, 1830, 15954, 3224, -111, 524, -1688, 722, -224, 78, 25, 31, 59, 279, 175, 66, 25, 21
160457898, 421, 1876, 15989, 3010, -122, 591, -1637, 1164, -285, 192, 25, 31, 59, 279, 175, 66, 25, 21
160478621, 421, 1876, 15989, 3010, -122, 591, -1637, 1164, -285, 192, 29, 34, 62, 308, 219, 63, 27, 21
160479444, 421, 1876, 15989, 3010, -122, 591, -1637, 1164, -285, 192, 29, 34, 62, 308, 219, 63, 27, 21
160480375, 480, 1956, 16017, 2797, -203, 510, -1707, 1111, -451, 362, 29, 34, 62, 308, 219, 63, 27, 21
160492943, 480, 1956, 16017, 2797, -203, 510, -1707, 1111, -451, 362, 32, 35, 68, 364, 262, 65, 29, 25
160493757, 480, 1956, 16017, 2797, -203, 510, -1707, 1111, -451, 362, 32, 35, 68, 364, 262, 65, 29, 25
160499922, 568, 2064, 16032, 2610, -218, 565, -1665, 993, -624, 493, 32, 35, 68, 364, 262, 65, 29, 25
160516095, 568, 2064, 16032, 2610, -218, 565, -1665, 993, -624, 493, 32, 37, 73, 385, 286, 63, 32, 27
160516909, 568, 2064, 16032, 2610, -218, 565, -1665, 993, -624, 493, 32, 37, 73, 385, 286, 63, 32, 27
160517863, 689, 2196, 16039, 2422, -242, 590, -1586, 1025, -821, 599, 32, 37, 73, 385, 286, 63, 32, 27
160538620, 689, 2196, 16039, 2422, -242, 590, -1586, 1025, -821, 599, 31, 33, 62, 355, 278, 62, 30, 27
160539422, 689, 2196, 16039, 2422, -242, 590, -1586, 1025, -821, 599, 31, 33, 62, 355, 278, 62, 30, 27
160540393, 826, 2352, 16040, 2217, -164, 712, -1563, 1189, -998, 696, 31, 33, 62, 355, 278, 62, 30, 27
160552908, 826, 2352, 16040, 2217, -164, 712, -1563, 1189, -998, 696, 30, 32, 55, 302, 259, 57, 29, 27
160553715, 826, 2352, 16040, 2217, -164, 712, -1563, 1189, -998, 696, 30, 32, 55, 302, 259, 57, 29, 27
160559942, 975, 2523, 16032, 2018, -94, 995, -1545, 1317, -1126, 749, 30, 32, 55, 302, 259, 57, 29, 27
160576126, 975, 2523, 16032, 2018, -94, 995, -1545, 1317, -1126, 749, 28, 29, 55, 373, 241, 57, 28, 28
160576933, 975, 2523, 16032, 2018, -94, 995, -1545, 1317, -1126, 749, 28, 29, 55, 373, 241, 57, 28, 28
160577867, 1127, 2696, 16014, 1848, 10, 1200, -1535, 1278, -1183, 737, 28, 29, 55, 373, 241, 57, 28, 28
160598637, 1127, 2696, 16014, 1848, 10, 1200, -1535, 1278, -1183, 737, 24, 30, 59, 367, 222, 57, 29, 25
160599461, 1127, 2696, 16014, 1848, 10, 1200, -1535, 1278, -1183, 737, 24, 30, 59, 367, 222, 57, 29, 25
160600385, 1281, 2864, 15991, 1694, 54, 1227, -1503, 1214, -1224, 703, 24, 30, 59, 367, 222, 57, 29, 25
160612927, 1281, 2864, 15991, 1694, 54, 1227, -1503, 1214, -1224, 703, 23, 39, 69, 453, 258, 69, 26, 23
160613735, 1281, 2864, 15991, 1694, 54, 1227, -1503, 1214, -1224, 703, 23, 39, 69, 453, 258, 69, 26, 23
160619885, 1434, 3026, 15969, 1482, 78, 1114, -1550, 1481, -1300, 639, 23, 39, 69, 453, 258, 69, 26, 23
160636154, 1434, 3026, 15969, 1482, 78, 1114, -1550, 1481, -1300, 639, 27, 40, 81, 565, 294, 89, 33, 28
160636940, 1434, 3026, 15969, 1482, 78, 1114, -1550, 1481, -1300, 639, 27, 40, 81, 565, 294, 89, 33, 28
160637890, 1623, 3188, 15945, 1173, 46, 906, -1664, 1639, -1489, 638, 27, 40, 81, 565, 294, 89, 33, 28
160658600, 1623, 3188, 15945, 1173, 46, 906, -1664, 1639, -1489, 638, 32, 47, 105, 636, 350, 103, 39, 30
160659418, 1623, 3188, 15945, 1173, 46, 906, -1664, 1639, -1489, 638, 32, 47, 105, 636, 350, 103, 39, 30
160660341, 1825, 3356, 15910, 831, 131, 953, -1734, 1813, -1618, 653, 32, 47, 105, 636, 350, 103, 39, 30
160672938, 1825, 3356, 15910, 831, 131, 953, -1734, 1813, -1618, 653, 35, 52, 112, 636, 368, 110, 44, 31
160673738, 1825, 3356, 15910, 831, 131, 953, -1734, 1813, -1618, 653, 35, 52, 112, 636, 368, 110, 44, 31
160679888, 2054, 3521, 15860, 513, 199, 942, -1545, 1654, -1762, 659, 35, 52, 112, 636, 368, 110, 44, 31
160696146, 2054, 3521, 15860, 513, 199, 942, -1545, 1654, -1762, 659, 37, 57, 113, 651, 362, 110, 43, 32
160696962, 2054, 3521, 15860, 513, 199, 942, -1545, 1654, -1762, 659, 37, 57, 113, 651, 362, 110, 43, 32
160697885, 2282, 3704, 15795, 142, 229, 1233, -1458, 1998, -1840, 724, 37, 57, 113, 651, 362, 110, 43, 32
160718616, 2282, 3704, 15795, 142, 229, 1233, -1458, 1998, -1840, 724, 38, 69, 127, 653, 361, 106, 44, 31
160719414, 2282, 3704, 15795, 142, 229, 1233, -1458, 1998, -1840, 724, 38, 69, 127, 653, 361, 106, 44, 31
160720360, 2516, 3903, 15709, -267, 190, 1429, -1445, 2239, -1941, 794, 38, 69, 127, 653, 361, 106, 44, 31
160732946, 2516, 3903, 15709, -267, 190, 1429, -1445, 2239, -1941, 794, 38, 106, 145, 671, 390, 94, 43, 30
160733768, 2516, 3903, 15709, -267, 190, 1429, -1445, 2239, -1941, 794, 38, 106, 145, 671, 390, 94, 43, 30
160739921, 2750, 4113, 15605, -638, 274, 1339, -1414, 2038, -1918, 905, 38, 106, 145, 671, 390, 94, 43, 30
160756156, 2750, 4113, 15605, -638, 274, 1339, -1414, 2038, -1918, 905, 38, 118, 155, 702, 362, 85, 39, 29
160756965, 2750, 4113, 15605, -638, 274, 1339, -1414, 2038, -1918, 905, 38, 118, 155, 702, 362, 85, 39, 29
160757920, 2978, 4327, 15486, -1001, 419, 1373, -1287, 2020, -1905, 953, 38, 118, 155, 702, 362, 85, 39, 29
160777966, 2978, 4327, 15486, -1001, 419, 1373, -1287, 2020, -1905, 953, 49, 122, 155, 692, 353, 84, 39, 31
160778771, 2978, 4327, 15486, -1001, 419, 1373, -1287, 2020, -1905, 953, 49, 122, 155, 692, 353, 84, 39, 31
160799820, 3206, 4543, 15347, -1403, 465, 1501, -1353, 2254, -1999, 933, 49, 122, 155, 692, 353, 84, 39, 31
160808673, 3453, 4755, 15193, -1746, 581, 1898, -1329, 1967, -2042, 988, 49, 122, 155, 692, 353, 84, 39, 31
160809476, 3453, 4755, 15193, -1746, 581, 1898, -1329, 1967, -2042, 988, 54, 123, 156, 711, 368, 85, 40, 31
160810281, 3453, 4755, 15193, -1746, 581, 1898, -1329, 1967, -2042, 988, 54, 123, 156, 711, 368, 85, 40, 31
160817526, 3453, 4755, 15193, -1746, 581, 1898, -1329, 1967, -2042, 988, 61, 117, 157, 788, 391, 95, 44, 35
160818323, 3453, 4755, 15193, -1746, 581, 1898, -1329, 1967, -2042, 988, 61, 117, 157, 788, 391, 95, 44, 35
160819146, 3453, 4755, 15193, -1746, 581, 1898, -1329, 1967, -2042, 988, 61, 117, 157, 788, 391, 95, 44, 35
160819949, 3453, 4755, 15193, -1746, 581, 1898, -1329, 1967, -2042, 988, 61, 117, 157, 788, 391, 95, 44, 35
160824906, 3453, 4755, 15193, -1746, 581, 1898, -1329, 1967, -2042, 988, 61, 117, 157, 788, 391, 95, 44, 35
160825732, 3453, 4755, 15193, -1746, 581, 1898, -1329, 1967, -2042, 988, 61, 117, 157, 788, 391, 95, 44, 35
160826555, 3453, 4755, 15193, -1746, 581, 1898, -1329, 1967, -2042, 988, 61, 117, 157, 788, 391, 95, 44, 35
160827359, 3453, 4755, 15193, -1746, 581, 1898, -1329, 1967, -2042, 988, 61, 117, 157, 788, 391, 95, 44, 35
160830455, 3453, 4755, 15193, -1746, 581, 1898, -1329, 1967, -2042, 988, 61, 117, 157, 788, 391, 95, 44, 35
160831401, 3707, 4944, 15041, -1995, 677, 1936, -1326, 1438, -1952, 968, 61, 117, 157, 788, 391, 95, 44, 35
160840042, 3707, 4944, 15041, -1995, 677, 1936, -1326, 1438, -1952, 968, 67, 117, 176, 801, 441, 125, 63, 42
160840819, 3707, 4944, 15041, -1995, 677, 1936, -1326, 1438, -1952, 968, 67, 117, 176, 801, 441, 125, 63, 42
160841642, 3707, 4944, 15041, -1995, 677, 1936, -1326, 1438, -1952, 968, 67, 117, 176, 801, 441, 125, 63, 42
160842433, 3707, 4944, 15041, -1995, 677, 1936, -1326, 1438, -1952, 968, 67, 117, 176, 801, 441, 125, 63, 42
160847468, 3707, 4944, 15041, -1995, 677, 1936, -1326, 1438, -1952, 968, 67, 117, 176, 801, 441, 125, 63, 42
160848260, 3707, 4944, 15041, -1995, 677, 1936, -1326, 1438, -1952, 968, 67, 117, 176, 801, 441, 125, 63, 42
160849082, 3707, 4944, 15041, -1995, 677, 1936, -1326, 1438, -1952, 968, 67, 117, 176, 801, 441, 125, 63, 42
160849884, 3707, 4944, 15041, -1995, 677, 1936, -1326, 1438, -1952, 968, 67, 117, 176, 801, 441, 125, 63, 42
160852386, 3964, 5112, 14893, -2183, 693, 1752, -1237, 1065, -1875, 939, 67, 117, 176, 801, 441, 125, 63, 42
160861103, 4183, 5274, 14738, -2430, 706, 1633, -1295, 1411, -1804, 810, 67, 117, 176, 801, 441, 125, 63, 42
160861936, 4183, 5274, 14738, -2430, 706, 1633, -1295, 1411, -1804, 810, 68, 106, 166, 792, 501, 125, 66, 42
160862740, 4183, 5274, 14738, -2430, 706, 1633, -1295, 1411, -1804, 810, 68, 106, 166, 792, 501, 125, 66, 42
160876122, 4387, 5441, 14574, -2678, 685, 1764, -1441, 1471, -1758, 825, 68, 106, 166, 792, 501, 125, 66, 42
160876913, 4387, 5441, 14574, -2678, 685, 1764, -1441, 1471, -1758, 825, 70, 105, 169, 832, 531, 125, 66, 39
160877733, 4387, 5441, 14574, -2678, 685, 1764, -1441, 1471, -1758, 825, 70, 105, 169, 832, 531, 125, 66, 39
160898649, 4603, 5601, 14403, -2897, 718, 1940, -1470, 1318, -1785, 836, 70, 105, 169, 832, 531, 125, 66, 39
160899463, 4603, 5601, 14403, -2897, 718, 1940, -1470, 1318, -1785, 836, 90, 108, 173, 849, 568, 131, 69, 41
160900266, 4603, 5601, 14403, -2897, 718, 1940, -1470, 1318, -1785, 836, 90, 108, 173, 849, 568, 131, 69, 41
160921117, 4827, 5753, 14228, -3096, 800, 1896, -1501, 1183, -1816, 843, 90, 108, 173, 849, 568, 131, 69, 41
160921914, 4827, 5753, 14228, -3096, 800, 1896, -1501, 1183, -1816, 843, 95, 116, 179, 840, 587, 132, 70, 40
160922745, 4827, 5753, 14228, -3096, 800, 1896, -1501, 1183, -1816, 843, 95, 116, 179, 840, 587, 132, 70, 40
160936173, 5025, 5904, 14057, -3273, 967, 1830, -1511, 1109, -1657, 837, 95, 116, 179, 840, 587, 132, 70, 40
160936965, 5025, 5904, 14057, -3273, 967, 1830, -1511, 1109, -1657, 837, 103, 91, 144, 787, 602, 112, 55, 36
160937794, 5025, 5904, 14057, -3273, 967, 1830, -1511, 1109, -1657, 837, 103, 91, 144, 787, 602, 112, 55, 36
160958649, 5142, 6130, 13909, -3306, 937, 1829, -1645, 1305, -1586, 836, 103, 91, 144, 787, 602, 112, 55, 36
160959443, 5142, 6130, 13909, -3306, 937, 1829, -1645, 1305, -1586, 836, 173, 98, 164, 821, 636, 123, 59, 46
160960265, 5142, 6130, 13909, -3306, 937, 1829, -1645, 1305, -1586, 836, 173, 98, 164, 821, 636, 123, 59, 46
160981182, 5226, 6382, 13751, -3356, 971, 1942, -1852, 1548, -1547, 854, 173, 98, 164, 821, 636, 123, 59, 46
160981975, 5226, 6382, 13751, -3356, 971, 1942, -1852, 1548, -1547, 854, 234, 112, 177, 829, 655, 126, 61, 58
160982787, 5226, 6382, 13751, -3356, 971, 1942, -1852, 1548, -1547, 854, 234, 112, 177, 829, 655, 126, 61, 58
160996163, 5381, 6549, 13537, -3649, 1102, 2163, -1932, 1580, -1560, 907, 234, 112, 177, 829, 655, 126, 61, 58
160996959, 5381, 6549, 13537, -3649, 1102, 2163, -1932, 1580, -1560, 907, 254, 118, 192, 812, 687, 132, 61, 66
160997788, 5381, 6549, 13537, -3649, 1102, 2163, -1932, 1580, -1560, 907, 254, 118, 192, 812, 687, 132, 61, 66
161018626, 5512, 6728, 13305, -3967, 1184, 2315, -2292, 1794, -1519, 923, 254, 118, 192, 812, 687, 132, 61, 66
161019437, 5512, 6728, 13305, -3967, 1184, 2315, -2292, 1794, -1519, 923, 305, 108, 195, 818, 684, 130, 61, 79
161020262, 5512, 6728, 13305, -3967, 1184, 2315, -2292, 1794, -1519, 923, 305, 108, 195, 818, 684, 130, 61, 79
161041173, 5584, 6935, 13056, -4322, 1389, 2435, -2934, 2178, -1332, 943, 305, 108, 195, 818, 684, 130, 61, 79
161041966, 5584, 6935, 13056, -4322, 1389, 2435, -2934, 2178, -1332, 943, 436, 190, 237, 819, 640, 125, 66, 183
161042788, 5584, 6935, 13056, -4322, 1389, 2435, -2934, 2178, -1332, 943, 436, 190, 237, 819, 640, 125, 66, 183
161056143, 5577, 7172, 12817, -4648, 1455, 2398, -3525, 2270, -849, 991, 436, 190, 237, 819, 640, 125, 66, 183
161056978, 5577, 7172, 12817, -4648, 1455, 2398, -3525, 2270, -849, 991, 644, 276, 300, 767, 572, 114, 80, 311
161057787, 5577, 7172, 12817, -4648, 1455, 2398, -3525, 2270, -849, 991, 644, 276, 300, 767, 572, 114, 80, 311
161078620, 5483, 7459, 12620, -4843, 1377, 2378, -3823, 1945, 15, 1215, 644, 276, 300, 767, 572, 114, 80, 311
161079434, 5483, 7459, 12620, -4843, 1377, 2378, -3823, 1945, 15, 1215, 797, 566, 502, 692, 624, 169, 217, 632
161080234, 5483, 7459, 12620, -4843, 1377, 2378, -3823, 1945, 15, 1215, 797, 566, 502, 692, 624, 169, 217, 632
161101142, 5237, 7862, 12533, -4702, 1500, 2700, -3365, 916, 1922, 1818, 797, 566, 502, 692, 624, 169, 217, 632
161101965, 5237, 7862, 12533, -4702, 1500, 2700, -3365, 916, 1922, 1818, 1043, 740, 715, 651, 650, 306, 335, 835
161102780, 5237, 7862, 12533, -4702, 1500, 2700, -3365, 916, 1922, 1818, 1043, 740, 715, 651, 650, 306, 335, 835
161116142, 4757, 8352, 12652, -3995, 1298, 3663, -3244, -1052, 4962, 2277, 1043, 740, 715, 651, 650, 306, 335, 835
161116974, 4757, 8352, 12652, -3995, 1298, 3663, -3244, -1052, 4962, 2277, 1244, 948, 929, 546, 659, 345, 479, 976
161117759, 4757, 8352, 12652, -3995, 1298, 3663, -3244, -1052, 4962, 2277, 1244, 948, 929, 546, 659, 345, 479, 976
161138614, 4009, 8863, 12913, -2657, 772, 3711, -3223, -3188, 8209, 2627, 1244, 948, 929, 546, 659, 345, 479, 976
161139413, 4009, 8863, 12913, -2657, 772, 3711, -3223, -3188, 8209, 2627, 1357, 1067, 1010, 529, 696, 417, 705, 1190
161140237, 4009, 8863, 12913, -2657, 772, 3711, -3223, -3188, 8209, 2627, 1357, 1067, 1010, 529, 696, 417, 705, 1190
161161134, 3000, 9380, 13064, -865, 1988, 4115, -1628, -4316, 10636, 3393, 1357, 1067, 1010, 529, 696, 417, 705, 1190
161161990, 3000, 9380, 13064, -865, 1988, 4115, -1628, -4316, 10636, 3393, 1484, 1150, 1006, 440, 713, 577, 873, 1363
161162763, 3000, 9380, 13064, -865, 1988, 4115, -1628, -4316, 10636, 3393, 1484, 1150, 1006, 440, 713, 577, 873, 1363
161176137, 1431, 9928, 12923, 898, 4259, 6043, -2154, -2262, 12811, 4285, 1484, 1150, 1006, 440, 713, 577, 873, 1363
161176947, 1431, 9928, 12923, 898, 4259, 6043, -2154, -2262, 12811, 4285, 1518, 1114, 963, 562, 721, 683, 950, 1350
161177791, 1431, 9928, 12923, 898, 4259, 6043, -2154, -2262, 12811, 4285, 1518, 1114, 963, 562, 721, 683, 950, 1350
161198662, -171, 10083, 12458, 3392, 4056, 3567, -5049, -5736, 15510, 4036, 1518, 1114, 963, 562, 721, 683, 950, 1350
161199483, -171, 10083, 12458, 3392, 4056, 3567, -5049, -5736, 15510, 4036, 1452, 1039, 878, 683, 780, 829, 965, 1314
161200283, -171, 10083, 12458, 3392, 4056, 3567, -5049, -5736, 15510, 4036, 1452, 1039, 878, 683, 780, 829, 965, 1314
161221152, -1579, 9895, 11579, 5825, 724, 1407, -6664, -6623, 14882, 3782, 1452, 1039, 878, 683, 780, 829, 965, 1314
161221962, -1579, 9895, 11579, 5825, 724, 1407, -6664, -6623, 14882, 3782, 1369, 872, 667, 777, 853, 1023, 963, 1332
161222764, -1579, 9895, 11579, 5825, 724, 1407, -6664, -6623, 14882, 3782, 1369, 872, 667, 777, 853, 1023, 963, 1332
161236125, -2593, 9608, 10542, 7632, -2479, -283, -5011, -5685, 11356, 3443, 1369, 872, 667, 777, 853, 1023, 963, 1332
161236959, -2593, 9608, 10542, 7632, -2479, -283, -5011, -5685, 11356, 3443, 1371, 826, 597, 899, 943, 1133, 862, 1184
161237761, -2593, 9608, 10542, 7632, -2479, -283, -5011, -5685, 11356, 3443, 1371, 826, 597, 899, 943, 1133, 862, 1184
161258679, -3241, 9274, 9836, 8668, -3624, -997, -2804, -3161, 7259, 1892, 1371, 826, 597, 899, 943, 1133, 862, 1184
161259460, -3241, 9274, 9836, 8668, -3624, -997, -2804, -3161, 7259, 1892, 1260, 689, 615, 1035, 1128, 1138, 774, 1035
161260287, -3241, 9274, 9836, 8668, -3624, -997, -2804, -3161, 7259, 1892, 1260, 689, 615, 1035, 1128, 1138, 774, 1035
161281123, -3807, 9074, 9632, 8878, -2280, -434, -2560, 706, 3386, 1418, 1260, 689, 615, 1035, 1128, 1138, 774, 1035
161281961, -3807, 9074, 9632, 8878, -2280, -434, -2560, 706, 3386, 1418, 1244, 678, 571, 1011, 1212, 1141, 726, 988
161282765, -3807, 9074, 9632, 8878, -2280, -434, -2560, 706, 3386, 1418, 1244, 678, 571, 1011, 1212, 1141, 726, 988
161296119, -3708, 9057, 9885, 8655, -1770, 1592, -1931, 1102, -100, 263, 1244, 678, 571, 1011, 1212, 1141, 726, 988
161296951, -3708, 9057, 9885, 8655, -1770, 1592, -1931, 1102, -100, 263, 1325, 662, 488, 977, 1289, 1045, 692, 950
161297738, -3708, 9057, 9885, 8655, -1770, 1592, -1931, 1102, -100, 263, 1325, 662, 488, 977, 1289, 1045, 692, 950
161318649, -3558, 9180, 10025, 8425, -309, 2747, -706, 664, -1666, 158, 1325, 662, 488, 977, 1289, 1045, 692, 950
161319466, -3558, 9180, 10025, 8425, -309, 2747, -706, 664, -1666, 158, 1259, 648, 463, 891, 1231, 904, 621, 793
161320292, -3558, 9180, 10025, 8425, -309, 2747, -706, 664, -1666, 158, 1259, 648, 463, 891, 1231, 904, 621, 793
161341117, -3513, 9291, 10194, 8113, 894, 2469, -571, 1385, -1647, 337, 1259, 648, 463, 891, 1231, 904, 621, 793
161341939, -3513, 9291, 10194, 8113, 894, 2469, -571, 1385, -1647, 337, 1136, 499, 388, 785, 1129, 773, 647, 751
161342738, -3513, 9291, 10194, 8113, 894, 2469, -571, 1385, -1647, 337, 1136, 499, 388, 785, 1129, 773, 647, 751
161354801, -3392, 9283, 10357, 7966, 1830, 3170, -1038, 1140, -1056, 349, 1136, 499, 388, 785, 1129, 773, 647, 751
161362946, -3392, 9283, 10357, 7966, 1830, 3170, -1038, 1140, -1056, 349, 1023, 491, 307, 642, 949, 680, 575, 657
161363760, -3392, 9283, 10357, 7966, 1830, 3170, -1038, 1140, -1056, 349, 1023, 491, 307, 642, 949, 680, 575, 657
161377296, -3244, 9276, 10378, 8009, 2002, 2750, -1302, -168, -301, 253, 1023, 491, 307, 642, 949, 680, 575, 657
161385447, -3244, 9276, 10378, 8009, 2002, 2750, -1302, -168, -301, 253, 938, 330, 263, 575, 768, 573, 500, 590
161386263, -3244, 9276, 10378, 8009, 2002, 2750, -1302, -168, -301, 253, 938, 330, 263, 575, 768, 573, 500, 590
161401156, -3123, 9241, 10355, 8126, 1804, 2099, -1436, -640, 272, 2, 938, 330, 263, 575, 768, 573, 500, 590
161401978, -3123, 9241, 10355, 8126, 1804, 2099, -1436, -640, 272, 2, 717, 271, 248, 486, 428, 525, 472, 474
161402767, -3123, 9241, 10355, 8126, 1804, 2099, -1436, -640, 272, 2, 717, 271, 248, 486, 428, 525, 472, 474
161414816, -3029, 9171, 10350, 8247, 1699, 1963, -1609, -585, 562, -161, 717, 271, 248, 486, 428, 525, 472, 474
161422922, -3029, 9171, 10350, 8247, 1699, 1963, -1609, -585, 562, -161, 713, 275, 241, 439, 372, 445, 454, 488
161423735, -3029, 9171, 10350, 8247, 1699, 1963, -1609, -585, 562, -161, 713, 275, 241, 439, 372, 445, 454, 488
161437320, -2961, 9076, 10365, 8357, 1726, 1955, -1699, -427, 712, -252, 713, 275, 241, 439, 372, 445, 454, 488
161445425, -2961, 9076, 10365, 8357, 1726, 1955, -1699, -427, 712, -252, 688, 273, 198, 370, 349, 373, 305, 441
161446222, -2961, 9076, 10365, 8357, 1726, 1955, -1699, -427, 712, -252, 688, 273, 198, 370, 349, 373, 305, 441
161461128, -2902, 8975, 10397, 8446, 1643, 1985, -1834, -319, 754, -265, 688, 273, 198, 370, 349, 373, 305, 441
161461940, -2902, 8975, 10397, 8446, 1643, 1985, -1834, -319, 754, -265, 692, 257, 190, 276, 241, 326, 242, 394
161462757, -2902, 8975, 10397, 8446, 1643, 1985, -1834, -319, 754, -265, 692, 257, 190, 276, 241, 326, 242, 394
161474788, -2819, 8883, 10422, 8540, 1511, 1969, -1775, -456, 678, -281, 692, 257, 190, 276, 241, 326, 242, 394
161482967, -2819, 8883, 10422, 8540, 1511, 1969, -1775, -456, 678, -281, 610, 226, 184, 255, 180, 321, 182, 315
161483758, -2819, 8883, 10422, 8540, 1511, 1969, -1775, -456, 678, -281, 610, 226, 184, 255, 180, 321, 182, 315
161497296, -2723, 8812, 10455, 8604, 1374, 1877, -1622, -385, 430, -265, 610, 226, 184, 255, 180, 321, 182, 315
161505439, -2723, 8812, 10455, 8604, 1374, 1877, -1622, -385, 430, -265, 526, 239, 130, 238, 155, 285, 180, 322
161506259, -2723, 8812, 10455, 8604, 1374, 1877, -1622, -385, 430, -265, 526, 239, 130, 238, 155, 285, 180, 322
161521165, -2615, 8744, 10524, 8623, 1393, 2063, -1562, -115, 164, -297, 526, 239, 130, 238, 155, 285, 180, 322
161521961, -2615, 8744, 10524, 8623, 1393, 2063, -1562, -115, 164, -297, 488, 213, 136, 225, 150, 219, 197, 270
161522789, -2615, 8744, 10524, 8623, 1393, 2063, -1562, -115, 164, -297, 488, 213, 136, 225, 150, 219, 197, 270
161534821, -2497, 8677, 10615, 8614, 1376, 2155, -1477, 61, -24, -349, 488, 213, 136, 225, 150, 219, 197, 270
161542936, -2497, 8677, 10615, 8614, 1376, 2155, -1477, 61, -24, -349, 416, 183, 132, 140, 144, 191, 197, 257
161543738, -2497, 8677, 10615, 8614, 1376, 2155, -1477, 61, -24, -349, 416, 183, 132, 140, 144, 191, 197, 257
161557318, -2374, 8609, 10719, 8588, 1417, 2194, -1444, 165, -139, -414, 416, 183, 132, 140, 144, 191, 197, 257
161565414, -2374, 8609, 10719, 8588, 1417, 2194, -1444, 165, -139, -414, 323, 204, 143, 121, 119, 181, 197, 251
161566233, -2374, 8609, 10719, 8588, 1417, 2194, -1444, 165, -139, -414, 323, 204, 143, 121, 119, 181, 197, 251
161581138, -2249, 8532, 10830, 8560, 1388, 2166, -1410, 197, -160, -499, 323, 204, 143, 121, 119, 181, 197, 251
161581932, -2249, 8532, 10830, 8560, 1388, 2166, -1410, 197, -160, -499, 275, 206, 141, 110, 95, 115, 186, 180
161582759, -2249, 8532, 10830, 8560, 1388, 2166, -1410, 197, -160, -499, 275, 206, 141, 110, 95, 115, 186, 180
161594802, -2129, 8449, 10936, 8537, 1372, 2106, -1326, 191, -151, -545, 275, 206, 141, 110, 95, 115, 186, 180
161602897, -2129, 8449, 10936, 8537, 1372, 2106, -1326, 191, -151, -545, 241, 172, 141, 97, 89, 90, 139, 144
161603714, -2129, 8449, 10936, 8537, 1372, 2106, -1326, 191, -151, -545, 241, 172, 141, 97, 89, 90, 139, 144
161626152, -2015, 8355, 11048, 8515, 1377, 2048, -1247, 235, -147, -642, 241, 172, 141, 97, 89, 90, 139, 144
161626974, -2015, 8355, 11048, 8515, 1377, 2048, -1247, 235, -147, -642, 142, 194, 108, 75, 70, 80, 84, 91
161627798, -2015, 8355, 11048, 8515, 1377, 2048, -1247, 235, -147, -642, 142, 194, 108, 75, 70, 80, 84, 91
161641150, -1899, 8248, 11174, 8480, 1364, 2065, -1219, 345, -187, -744, 142, 194, 108, 75, 70, 80, 84, 91
161641963, -1899, 8248, 11174, 8480, 1364, 2065, -1219, 345, -187, -744, 143, 218, 93, 65, 62, 63, 60, 76
161642774, -1899, 8248, 11174, 8480, 1364, 2065, -1219, 345, -187, -744, 143, 218, 93, 65, 62, 63, 60, 76
161654822, -1786, 8123, 11309, 8446, 1307, 2183, -1240, 407, -123, -799, 143, 218, 93, 65, 62, 63, 60, 76
161662922, -1786, 8123, 11309, 8446, 1307, 2183, -1240, 407, -123, -799, 117, 200, 97, 46, 50, 69, 54, 60
161663738, -1786, 8123, 11309, 8446, 1307, 2183, -1240, 407, -123, -799, 117, 200, 97, 46, 50, 69, 54, 60
161677327, -1662, 7989, 11433, 8433, 1300, 2317, -1287, 279, -69, -828, 117, 200, 97, 46, 50, 69, 54, 60
161685418, -1662, 7989, 11433, 8433, 1300, 2317, -1287, 279, -69, -828, 100, 196, 95, 43, 51, 86, 44, 44
161686244, -1662, 7989, 11433, 8433, 1300, 2317, -1287, 279, -69, -828, 100, 196, 95, 43, 51, 86, 44, 44
161701112, -1520, 7856, 11535, 8445, 1238, 2297, -1287, 62, -64, -855, 100, 196, 95, 43, 51, 86, 44, 44
161701936, -1520, 7856, 11535, 8445, 1238, 2297, -1287, 62, -64, -855, 96, 200, 97, 41, 55, 102, 32, 37
161702731, -1520, 7856, 11535, 8445, 1238, 2297, -1287, 62, -64, -855, 96, 200, 97, 41, 55, 102, 32, 37
161714789, -1386, 7733, 11626, 8457, 1238, 2147, -1216, 13, -91, -850, 96, 200, 97, 41, 55, 102, 32, 37
161722945, -1386, 7733, 11626, 8457, 1238, 2147, -1216, 13, -91, -850, 90, 184, 106, 45, 61, 105, 27, 34
161723774, -1386, 7733, 11626, 8457, 1238, 2147, -1216, 13, -91, -850, 90, 184, 106, 45, 61, 105, 27, 34
161737267, -1278, 7610, 11724, 8450, 1186, 2026, -1213, 148, -43, -827, 90, 184, 106, 45, 61, 105, 27, 34
161745436, -1278, 7610, 11724, 8450, 1186, 2026, -1213, 148, -43, -827, 58, 163, 107, 44, 58, 112, 22, 30
161746261, -1278, 7610, 11724, 8450, 1186, 2026, -1213, 148, -43, -827, 58, 163, 107, 44, 58, 112, 22, 30
161761158, -1187, 7498, 11832, 8413, 1171, 2056, -1312, 311, -67, -761, 58, 163, 107, 44, 58, 112, 22, 30
161761962, -1187, 7498, 11832, 8413, 1171, 2056, -1312, 311, -67, -761, 57, 164, 89, 42, 58, 112, 23, 29
161762786, -1187, 7498, 11832, 8413, 1171, 2056, -1312, 311, -67, -761, 57, 164, 89, 42, 58, 112, 23, 29