Timestamp, Orientation x, Orientation y, Orientation z, Orientation w, Acceleration x, Acceleration y, Acceleration z, Rotation x, Rotation y, Rotation z, EMG 0, EMG 1, EMG 2, EMG 3, EMG 4, EMG 5, EMG 6, EMG 7
94350692, 2011, 10224, 10087, 7621, 1313, 2205, -1591, 108, 8, 25, 0, 0, 0, 0, 0, 0, 0, 0
94351531, 2003, 10228, 10089, 7615, 1343, 2265, -1609, 83, -22, 23, 0, 0, 0, 0, 0, 0, 0, 0
94364983, 2008, 10228, 10085, 7619, 1344, 2250, -1612, -20, -21, 0, 0, 0, 0, 0, 0, 0, 0, 0
94387514, 2012, 10226, 10082, 7625, 1329, 2234, -1597, -20, -9, -8, 0, 0, 0, 0, 0, 0, 0, 0
94410001, 2016, 10226, 10081, 7626, 1297, 2211, -1581, 0, -19, -2, 0, 0, 0, 0, 0, 0, 0, 0
94418176, 2016, 10226, 10081, 7626, 1297, 2211, -1581, 0, -19, -2, 77, 69, 67, 166, 627, 172, 304, 423
94419001, 2016, 10226, 10081, 7626, 1297, 2211, -1581, 0, -19, -2, 77, 69, 67, 166, 627, 172, 304, 423
94425148, 2014, 10227, 10080, 7626, 1306, 2238, -1594, 29, -8, 18, 77, 69, 67, 166, 627, 172, 304, 423
94440679, 2014, 10227, 10080, 7626, 1306, 2238, -1594, 29, -8, 18, 92, 67, 59, 151, 656, 185, 320, 449
94441466, 2014, 10227, 10080, 7626, 1306, 2238, -1594, 29, -8, 18, 92, 67, 59, 151, 656, 185, 320, 449
94447624, 2015, 10230, 10077, 7626, 1309, 2236, -1595, 15, -20, 22, 92, 67, 59, 151, 656, 185, 320, 449
94463158, 2015, 10230, 10077, 7626, 1309, 2236, -1595, 15, -20, 22, 141, 82, 63, 136, 683, 195, 273, 407
94463963, 2015, 10230, 10077, 7626, 1309, 2236, -1595, 15, -20, 22, 141, 82, 63, 136, 683, 195, 273, 407
94470135, 2016, 10233, 10072, 7628, 1334, 2238, -1606, -5, -20, 21, 141, 82, 63, 136, 683, 195, 273, 407
94478170, 2016, 10233, 10072, 7628, 1334, 2238, -1606, -5, -20, 21, 142, 97, 72, 141, 642, 193, 264, 452
94478974, 2016, 10233, 10072, 7628, 1334, 2238, -1606, -5, -20, 21, 142, 97, 72, 141, 642, 193, 264, 452
94485130, 2020, 10233, 10068, 7633, 1334, 2229, -1586, -21, -20, 1, 142, 97, 72, 141, 642, 193, 264, 452
94500648, 2020, 10233, 10068, 7633, 1334, 2229, -1586, -21, -20, 1, 146, 112, 73, 132, 675, 196, 273, 442
94501462, 2020, 10233, 10068, 7633, 1334, 2229, -1586, -21, -20, 1, 146, 112, 73, 132, 675, 196, 273, 442
94507615, 2024, 10231, 10064, 7640, 1332, 2224, -1568, -20, -8, -5, 146, 112, 73, 132, 675, 196, 273, 442
94523154, 2024, 10231, 10064, 7640, 1332, 2224, -1568, -20, -8, -5, 143, 110, 70, 146, 693, 186, 294, 387
94523970, 2024, 10231, 10064, 7640, 1332, 2224, -1568, -20, -8, -5, 143, 110, 70, 146, 693, 186, 294, 387
94530128, 2029, 10230, 10060, 7645, 1328, 2218, -1579, -26, -13, -5, 143, 110, 70, 146, 693, 186, 294, 387
94538150, 2029, 10230, 10060, 7645, 1328, 2218, -1579, -26, -13, -5, 139, 112, 78, 155, 687, 179, 286, 377
94538976, 2029, 10230, 10060, 7645, 1328, 2218, -1579, -26, -13, -5, 139, 112, 78, 155, 687, 179, 286, 377
94545126, 2032, 10229, 10056, 7649, 1336, 2227, -1587, -17, -16, -3, 139, 112, 78, 155, 687, 179, 286, 377
94560644, 2032, 10229, 10056, 7649, 1336, 2227, -1587, -17, -16, -3, 180, 119, 87, 161, 644, 170, 288, 352
94561469, 2032, 10229, 10056, 7649, 1336, 2227, -1587, -17, -16, -3, 180, 119, 87, 161, 644, 170, 288, 352
94567621, 2032, 10229, 10056, 7650, 1334, 2236, -1608, -16, -13, 7, 180, 119, 87, 161, 644, 170, 288, 352
94583147, 2032, 10229, 10056, 7650, 1334, 2236, -1608, -16, -13, 7, 190, 126, 83, 155, 664, 176, 282, 247
94583944, 2032, 10229, 10056, 7650, 1334, 2236, -1608, -16, -13, 7, 190, 126, 83, 155, 664, 176, 282, 247
94590092, 2039, 10226, 10052, 7657, 1330, 2244, -1597, -48, -7, -12, 190, 126, 83, 155, 664, 176, 282, 247
94598146, 2039, 10226, 10052, 7657, 1330, 2244, -1597, -48, -7, -12, 186, 111, 78, 162, 666, 146, 263, 262
94598966, 2039, 10226, 10052, 7657, 1330, 2244, -1597, -48, -7, -12, 186, 111, 78, 162, 666, 146, 263, 262
94605121, 2045, 10224, 10050, 7660, 1314, 2214, -1583, -26, -15, -17, 186, 111, 78, 162, 666, 146, 263, 262
94620647, 2045, 10224, 10050, 7660, 1314, 2214, -1583, -26, -15, -17, 188, 113, 80, 162, 577, 138, 224, 344
94621445, 2045, 10224, 10050, 7660, 1314, 2214, -1583, -26, -15, -17, 188, 113, 80, 162, 577, 138, 224, 344
94627597, 2046, 10233, 10053, 7645, 1281, 2143, -1556, 68, -89, -3, 188, 113, 80, 162, 577, 138, 224, 344
94643135, 2046, 10233, 10053, 7645, 1281, 2143, -1556, 68, -89, -3, 182, 111, 82, 172, 577, 203, 203, 354
94643956, 2046, 10233, 10053, 7645, 1281, 2143, -1556, 68, -89, -3, 182, 111, 82, 172, 577, 203, 203, 354
94650143, 2017, 10258, 10080, 7582, 1297, 2082, -1562, 400, -183, -1, 182, 111, 82, 172, 577, 203, 203, 354
94658139, 2017, 10258, 10080, 7582, 1297, 2082, -1562, 400, -183, -1, 106, 94, 72, 176, 625, 213, 277, 403
94658942, 2017, 10258, 10080, 7582, 1297, 2082, -1562, 400, -183, -1, 106, 94, 72, 176, 625, 213, 277, 403
94672527, 1947, 10300, 10135, 7470, 1321, 2051, -1649, 785, -238, 16, 106, 94, 72, 176, 625, 213, 277, 403
94680623, 1947, 10300, 10135, 7470, 1321, 2051, -1649, 785, -238, 16, 83, 65, 75, 174, 668, 230, 340, 451
94681446, 1947, 10300, 10135, 7470, 1321, 2051, -1649, 785, -238, 16, 83, 65, 75, 174, 668, 230, 340, 451
94687597, 1829, 10352, 10216, 7315, 1370, 2102, -1702, 1205, -255, 56, 83, 65, 75, 174, 668, 230, 340, 451
94703171, 1829, 10352, 10216, 7315, 1370, 2102, -1702, 1205, -255, 56, 102, 79, 86, 188, 639, 294, 396, 500
94703993, 1829, 10352, 10216, 7315, 1370, 2102, -1702, 1205, -255, 56, 102, 79, 86, 188, 639, 294, 396, 500
94710144, 1734, 10399, 10302, 7152, 1376, 2417, -1869, 1241, -328, 39, 102, 79, 86, 188, 639, 294, 396, 500
94718119, 1734, 10399, 10302, 7152, 1376, 2417, -1869, 1241, -328, 39, 113, 78, 82, 191, 615, 309, 465, 524
94718939, 1734, 10399, 10302, 7152, 1376, 2417, -1869, 1241, -328, 39, 113, 78, 82, 191, 615, 309, 465, 524
94732520, 1717, 10427, 10347, 7048, 1398, 2518, -1843, 708, -398, -23, 113, 78, 82, 191, 615, 309, 465, 524
94740671, 1717, 10427, 10347, 7048, 1398, 2518, -1843, 708, -398, -23, 116, 83, 78, 200, 579, 282, 476, 522
94741496, 1717, 10427, 10347, 7048, 1398, 2518, -1843, 708, -398, -23, 116, 83, 78, 200, 579, 282, 476, 522
94747648, 1716, 10459, 10351, 6994, 1397, 2129, -1661, 327, -362, 28, 116, 83, 78, 200, 579, 282, 476, 522
94763174, 1716, 10459, 10351, 6994, 1397, 2129, -1661, 327, -362, 28, 113, 84, 83, 197, 570, 335, 473, 522
94763988, 1716, 10459, 10351, 6994, 1397, 2129, -1661, 327, -362, 28, 113, 84, 83, 197, 570, 335, 473, 522
94770140, 1646, 10499, 10378, 6911, 1404, 2117, -1656, 759, -236, 132, 113, 84, 83, 197, 570, 335, 473, 522
94778160, 1646, 10499, 10378, 6911, 1404, 2117, -1656, 759, -236, 132, 119, 83, 79, 192, 419, 373, 462, 575
94779031, 1646, 10499, 10378, 6911, 1404, 2117, -1656, 759, -236, 132, 119, 83, 79, 192, 419, 373, 462, 575
94792519, 1539, 10543, 10431, 6789, 1393, 2249, -1812, 1107, -212, 165, 119, 83, 79, 192, 419, 373, 462, 575
94800671, 1539, 10543, 10431, 6789, 1393, 2249, -1812, 1107, -212, 165, 112, 83, 81, 202, 422, 345, 426, 535
94801502, 1539, 10543, 10431, 6789, 1393, 2249, -1812, 1107, -212, 165, 112, 83, 81, 202, 422, 345, 426, 535
94807646, 1440, 10577, 10486, 6670, 1454, 2193, -1826, 1079, -235, 80, 112, 83, 81, 202, 422, 345, 426, 535
94823165, 1440, 10577, 10486, 6670, 1454, 2193, -1826, 1079, -235, 80, 101, 81, 94, 199, 409, 383, 354, 484
94823972, 1440, 10577, 10486, 6670, 1454, 2193, -1826, 1079, -235, 80, 101, 81, 94, 199, 409, 383, 354, 484
94830121, 1301, 10610, 10562, 6525, 1441, 2043, -1921, 1312, -159, 63, 101, 81, 94, 199, 409, 383, 354, 484
94838165, 1301, 10610, 10562, 6525, 1441, 2043, -1921, 1312, -159, 63, 131, 97, 106, 192, 390, 408, 369, 494
94838986, 1301, 10610, 10562, 6525, 1441, 2043, -1921, 1312, -159, 63, 131, 97, 106, 192, 390, 408, 369, 494
94852498, 1071, 10642, 10684, 6313, 1293, 2092, -2157, 1911, 40, 105, 131, 97, 106, 192, 390, 408, 369, 494
94860670, 1071, 10642, 10684, 6313, 1293, 2092, -2157, 1911, 40, 105, 139, 113, 132, 230, 337, 395, 327, 481
94861482, 1071, 10642, 10684, 6313, 1293, 2092, -2157, 1911, 40, 105, 139, 113, 132, 230, 337, 395, 327, 481
94867626, 805, 10659, 10821, 6088, 1222, 2527, -2565, 2146, 195, 108, 139, 113, 132, 230, 337, 395, 327, 481
94883156, 805, 10659, 10821, 6088, 1222, 2527, -2565, 2146, 195, 108, 169, 137, 143, 242, 359, 520, 270, 382
94883970, 805, 10659, 10821, 6088, 1222, 2527, -2565, 2146, 195, 108, 169, 137, 143, 242, 359, 520, 270, 382
94890122, 611, 10672, 10918, 5912, 1210, 2487, -2703, 1612, 107, 101, 169, 137, 143, 242, 359, 520, 270, 382
94898188, 611, 10672, 10918, 5912, 1210, 2487, -2703, 1612, 107, 101, 188, 145, 149, 249, 376, 618, 273, 446
94898974, 611, 10672, 10918, 5912, 1210, 2487, -2703, 1612, 107, 101, 188, 145, 149, 249, 376, 618, 273, 446
94912537, 405, 10726, 10979, 5716, 1106, 2124, -2679, 1653, 1, 404, 188, 145, 149, 249, 376, 618, 273, 446
94920706, 405, 10726, 10979, 5716, 1106, 2124, -2679, 1653, 1, 404, 201, 168, 152, 256, 419, 619, 311, 509
94921469, 405, 10726, 10979, 5716, 1106, 2124, -2679, 1653, 1, 404, 201, 168, 152, 256, 419, 619, 311, 509
94927624, 199, 10803, 11016, 5505, 1546, 2423, -2647, 1716, -157, 565, 201, 168, 152, 256, 419, 619, 311, 509
94943148, 199, 10803, 11016, 5505, 1546, 2423, -2647, 1716, -157, 565, 224, 179, 155, 251, 419, 772, 297, 494
94943972, 199, 10803, 11016, 5505, 1546, 2423, -2647, 1716, -157, 565, 224, 179, 155, 251, 419, 772, 297, 494
94950118, 83, 10853, 11029, 5382, 1595, 2355, -2513, 1324, -214, 515, 224, 179, 155, 251, 419, 772, 297, 494
94958176, 83, 10853, 11029, 5382, 1595, 2355, -2513, 1324, -214, 515, 224, 175, 136, 217, 437, 844, 329, 521
94958976, 83, 10853, 11029, 5382, 1595, 2355, -2513, 1324, -214, 515, 224, 175, 136, 217, 437, 844, 329, 521
94972557, -21, 10887, 11034, 5304, 1711, 2409, -2343, 1182, -148, 466, 224, 175, 136, 217, 437, 844, 329, 521
94980653, -21, 10887, 11034, 5304, 1711, 2409, -2343, 1182, -148, 466, 209, 166, 135, 235, 529, 767, 405, 604
94981472, -21, 10887, 11034, 5304, 1711, 2409, -2343, 1182, -148, 466, 209, 166, 135, 235, 529, 767, 405, 604
94987624, -102, 10910, 11033, 5258, 1661, 2391, -2197, 1016, -112, 422, 209, 166, 135, 235, 529, 767, 405, 604
95003156, -102, 10910, 11033, 5258, 1661, 2391, -2197, 1016, -112, 422, 198, 163, 143, 243, 560, 693, 415, 584
95003946, -102, 10910, 11033, 5258, 1661, 2391, -2197, 1016, -112, 422, 198, 163, 143, 243, 560, 693, 415, 584
95010091, -149, 10911, 11023, 5274, 1700, 2620, -2128, 760, 8, 370, 198, 163, 143, 243, 560, 693, 415, 584
95017493, -149, 10911, 11023, 5274, 1700, 2620, -2128, 760, 8, 370, 197, 143, 136, 239, 592, 677, 508, 608
95024993, -149, 10911, 11023, 5274, 1700, 2620, -2128, 760, 8, 370, 197, 143, 136, 239, 592, 677, 508, 608
95032624, -157, 10901, 11006, 5329, 1540, 2391, -2038, 363, 83, 264, 197, 143, 136, 239, 592, 677, 508, 608
95040682, -157, 10901, 11006, 5329, 1540, 2391, -2038, 363, 83, 264, 170, 118, 124, 238, 611, 499, 510, 688
95041468, -157, 10901, 11006, 5329, 1540, 2391, -2038, 363, 83, 264, 170, 118, 124, 238, 611, 499, 510, 688
95047618, -161, 10875, 11003, 5388, 1446, 2408, -2205, 316, 203, 176, 170, 118, 124, 238, 611, 499, 510, 688
95063144, -161, 10875, 11003, 5388, 1446, 2408, -2205, 316, 203, 176, 166, 112, 123, 279, 702, 371, 532, 721
95063971, -161, 10875, 11003, 5388, 1446, 2408, -2205, 316, 203, 176, 166, 112, 123, 279, 702, 371, 532, 721
95070136, -126, 10844, 10994, 5470, 1522, 2438, -2270, 52, 140, 92, 166, 112, 123, 279, 702, 371, 532, 721
95077496, -126, 10844, 10994, 5470, 1522, 2438, -2270, 52, 140, 92, 183, 124, 121, 290, 668, 351, 503, 676
95085008, -126, 10844, 10994, 5470, 1522, 2438, -2270, 52, 140, 92, 183, 124, 121, 290, 668, 351, 503, 676
95092626, -62, 10815, 10981, 5554, 1654, 2212, -2200, -176, -28, -41, 183, 124, 121, 290, 668, 351, 503, 676
95100679, -62, 10815, 10981, 5554, 1654, 2212, -2200, -176, -28, -41, 174, 110, 92, 258, 631, 369, 478, 747
95101495, -62, 10815, 10981, 5554, 1654, 2212, -2200, -176, -28, -41, 174, 110, 92, 258, 631, 369, 478, 747
95107653, -22, 10792, 10983, 5597, 1415, 2166, -2473, -8, 68, 13, 174, 110, 92, 258, 631, 369, 478, 747
95123176, -22, 10792, 10983, 5597, 1415, 2166, -2473, -8, 68, 13, 188, 130, 96, 254, 574, 358, 370, 695
95123967, -22, 10792, 10983, 5597, 1415, 2166, -2473, -8, 68, 13, 188, 130, 96, 254, 574, 358, 370, 695
95130127, 70, 10769, 10993, 5621, 1370, 2278, -2566, -106, -162, -86, 188, 130, 96, 254, 574, 358, 370, 695
95146320, 70, 10769, 10993, 5621, 1370, 2278, -2566, -106, -162, -86, 178, 140, 118, 256, 569, 336, 398, 666
95147150, 70, 10769, 10993, 5621, 1370, 2278, -2566, -106, -162, -86, 178, 140, 118, 256, 569, 336, 398, 666
95148074, 148, 10760, 10992, 5638, 1351, 2093, -2336, -78, -211, -22, 178, 140, 118, 256, 569, 336, 398, 666
95160680, 148, 10760, 10992, 5638, 1351, 2093, -2336, -78, -211, -22, 181, 141, 114, 204, 438, 335, 411, 624
95161476, 148, 10760, 10992, 5638, 1351, 2093, -2336, -78, -211, -22, 181, 141, 114, 204, 438, 335, 411, 624
95167619, 215, 10745, 10988, 5673, 1460, 2332, -2463, -58, -118, 8, 181, 141, 114, 204, 438, 335, 411, 624
95183145, 215, 10745, 10988, 5673, 1460, 2332, -2463, -58, -118, 8, 155, 140, 105, 174, 409, 353, 399, 614
95183942, 215, 10745, 10988, 5673, 1460, 2332, -2463, -58, -118, 8, 155, 140, 105, 174, 409, 353, 399, 614
95190093, 299, 10728, 10982, 5713, 1538, 2337, -2482, -168, -184, -61, 155, 140, 105, 174, 409, 353, 399, 614
95206345, 299, 10728, 10982, 5713, 1538, 2337, -2482, -168, -184, -61, 165, 153, 116, 181, 467, 328, 411, 562
95207161, 299, 10728, 10982, 5713, 1538, 2337, -2482, -168, -184, -61, 165, 153, 116, 181, 467, 328, 411, 562
95208101, 385, 10702, 10981, 5756, 1540, 2266, -2512, -227, -164, -146, 165, 153, 116, 181, 467, 328, 411, 562
95220689, 385, 10702, 10981, 5756, 1540, 2266, -2512, -227, -164, -146, 143, 142, 121, 218, 466, 323, 387, 546
95221492, 385, 10702, 10981, 5756, 1540, 2266, -2512, -227, -164, -146, 143, 142, 121, 218, 466, 323, 387, 546
95227655, 458, 10671, 10992, 5788, 1452, 2211, -2498, -161, -113, -192, 143, 142, 121, 218, 466, 323, 387, 546
95243170, 458, 10671, 10992, 5788, 1452, 2211, -2498, -161, -113, -192, 147, 145, 97, 211, 490, 321, 354, 496
95243990, 458, 10671, 10992, 5788, 1452, 2211, -2498, -161, -113, -192, 147, 145, 97, 211, 490, 321, 354, 496
95250147, 522, 10646, 11000, 5814, 1437, 2192, -2541, -137, -103, -151, 147, 145, 97, 211, 490, 321, 354, 496
95266319, 522, 10646, 11000, 5814, 1437, 2192, -2541, -137, -103, -151, 146, 156, 106, 214, 472, 334, 344, 527
95267124, 522, 10646, 11000, 5814, 1437, 2192, -2541, -137, -103, -151, 146, 156, 106, 214, 472, 334, 344, 527
95268072, 583, 10625, 11003, 5840, 1461, 2239, -2557, -139, -107, -112, 146, 156, 106, 214, 472, 334, 344, 527
95280666, 583, 10625, 11003, 5840, 1461, 2239, -2557, -139, -107, -112, 154, 149, 111, 200, 450, 327, 350, 514
95281465, 583, 10625, 11003, 5840, 1461, 2239, -2557, -139, -107, -112, 154, 149, 111, 200, 450, 327, 350, 514
95287631, 629, 10605, 11003, 5871, 1452, 2222, -2469, -99, -51, -80, 154, 149, 111, 200, 450, 327, 350, 514
95303159, 629, 10605, 11003, 5871, 1452, 2222, -2469, -99, -51, -80, 142, 156, 114, 194, 502, 329, 414, 536
95303970, 629, 10605, 11003, 5871, 1452, 2222, -2469, -99, -51, -80, 142, 156, 114, 194, 502, 329, 414, 536
95310130, 657, 10586, 11003, 5904, 1504, 2300, -2489, -29, 1, -43, 142, 156, 114, 194, 502, 329, 414, 536
95326349, 657, 10586, 11003, 5904, 1504, 2300, -2489, -29, 1, -43, 136, 153, 104, 163, 556, 325, 441, 561
95327166, 657, 10586, 11003, 5904, 1504, 2300, -2489, -29, 1, -43, 136, 153, 104, 163, 556, 325, 441, 561
95328088, 688, 10566, 10997, 5946, 1543, 2338, -2516, -91, 24, -36, 136, 153, 104, 163, 556, 325, 441, 561
95348821, 688, 10566, 10997, 5946, 1543, 2338, -2516, -91, 24, -36, 129, 146, 106, 206, 539, 343, 471, 555
95349640, 688, 10566, 10997, 5946, 1543, 2338, -2516, -91, 24, -36, 129, 146, 106, 206, 539, 343, 471, 555
95350568, 723, 10543, 10992, 5991, 1514, 2252, -2497, -158, 32, -74, 129, 146, 106, 206, 539, 343, 471, 555
95363144, 723, 10543, 10992, 5991, 1514, 2252, -2497, -158, 32, -74, 123, 158, 102, 200, 567, 322, 477, 611
95363965, 723, 10543, 10992, 5991, 1514, 2252, -2497, -158, 32, -74, 123, 158, 102, 200, 567, 322, 477, 611
95370117, 753, 10519, 10990, 6034, 1577, 2291, -2491, -119, 25, -93, 123, 158, 102, 200, 567, 322, 477, 611
95386371, 753, 10519, 10990, 6034, 1577, 2291, -2491, -119, 25, -93, 121, 166, 99, 215, 612, 313, 470, 665
95387176, 753, 10519, 10990, 6034, 1577, 2291, -2491, -119, 25, -93, 121, 166, 99, 215, 612, 313, 470, 665
95388122, 794, 10494, 10990, 6073, 1511, 2202, -2437, -175, -15, -135, 121, 166, 99, 215, 612, 313, 470, 665
95408840, 794, 10494, 10990, 6073, 1511, 2202, -2437, -175, -15, -135, 126, 174, 97, 213, 569, 310, 419, 588
95409648, 794, 10494, 10990, 6073, 1511, 2202, -2437, -175, -15, -135, 126, 174, 97, 213, 569, 310, 419, 588
95410594, 806, 10475, 10998, 6089, 1382, 2169, -2387, 27, 43, -59, 126, 174, 97, 213, 569, 310, 419, 588
95423171, 806, 10475, 10998, 6089, 1382, 2169, -2387, 27, 43, -59, 123, 179, 94, 206, 547, 361, 394, 571
95423991, 806, 10475, 10998, 6089, 1382, 2169, -2387, 27, 43, -59, 123, 179, 94, 206, 547, 361, 394, 571
95430145, 828, 10455, 10996, 6124, 1423, 2398, -2517, -56, 86, -7, 123, 179, 94, 206, 547, 361, 394, 571
95446322, 828, 10455, 10996, 6124, 1423, 2398, -2517, -56, 86, -7, 115, 182, 97, 161, 535, 331, 365, 602
95447123, 828, 10455, 10996, 6124, 1423, 2398, -2517, -56, 86, -7, 115, 182, 97, 161, 535, 331, 365, 602
95448069, 864, 10436, 10982, 6176, 1500, 2298, -2413, -219, 49, -36, 115, 182, 97, 161, 535, 331, 365, 602
95468846, 864, 10436, 10982, 6176, 1500, 2298, -2413, -219, 49, -36, 110, 170, 99, 184, 604, 296, 289, 496
95469668, 864, 10436, 10982, 6176, 1500, 2298, -2413, -219, 49, -36, 110, 170, 99, 184, 604, 296, 289, 496
95470596, 890, 10415, 10976, 6217, 1485, 2223, -2349, -144, 38, -72, 110, 170, 99, 184, 604, 296, 289, 496
95483180, 890, 10415, 10976, 6217, 1485, 2223, -2349, -144, 38, -72, 95, 192, 94, 205, 612, 275, 288, 454
95483995, 890, 10415, 10976, 6217, 1485, 2223, -2349, -144, 38, -72, 95, 192, 94, 205, 612, 275, 288, 454
95490142, 913, 10398, 10981, 6235, 1412, 2257, -2444, -50, 17, -67, 95, 192, 94, 205, 612, 275, 288, 454
95506324, 913, 10398, 10981, 6235, 1412, 2257, -2444, -50, 17, -67, 94, 181, 85, 216, 561, 323, 284, 512
95507147, 913, 10398, 10981, 6235, 1412, 2257, -2444, -50, 17, -67, 94, 181, 85, 216, 561, 323, 284, 512
95508066, 943, 10385, 10975, 6263, 1405, 2310, -2444, -121, 20, -20, 94, 181, 85, 216, 561, 323, 284, 512
95528877, 943, 10385, 10975, 6263, 1405, 2310, -2444, -121, 20, -20, 110, 199, 91, 209, 525, 273, 336, 549
95529728, 943, 10385, 10975, 6263, 1405, 2310, -2444, -121, 20, -20, 110, 199, 91, 209, 525, 273, 336, 549
95530622, 970, 10373, 10965, 6295, 1432, 2244, -2391, -155, 19, -17, 110, 199, 91, 209, 525, 273, 336, 549
95542466, 970, 10373, 10965, 6295, 1432, 2244, -2391, -155, 19, -17, 119, 207, 87, 214, 524, 318, 327, 530
95550702, 970, 10373, 10965, 6295, 1432, 2244, -2391, -155, 19, -17, 119, 207, 87, 214, 524, 318, 327, 530
95551628, 982, 10362, 10955, 6329, 1501, 2283, -2365, -96, 52, 6, 119, 207, 87, 214, 524, 318, 327, 530
95566350, 982, 10362, 10955, 6329, 1501, 2283, -2365, -96, 52, 6, 118, 221, 79, 211, 421, 330, 322, 517
95567156, 982, 10362, 10955, 6329, 1501, 2283, -2365, -96, 52, 6, 118, 221, 79, 211, 421, 330, 322, 517
95568097, 996, 10352, 10947, 6357, 1495, 2285, -2384, -84, 34, -7, 118, 221, 79, 211, 421, 330, 322, 517