Timestamp, Orientation x, Orientation y, Orientation z, Orientation w, Acceleration x, Acceleration y, Acceleration z, Rotation x, Rotation y, Rotation z, EMG 0, EMG 1, EMG 2, EMG 3, EMG 4, EMG 5, EMG 6, EMG 7
219006438, 6187, -11258, -5675, -8440, 2612, -1418, -978, -249, -325, -29, 0, 0, 0, 0, 0, 0, 0, 0
219013915, 6175, -11359, -5576, -8379, 2765, -1526, -890, -507, -158, 120, 0, 0, 0, 0, 0, 0, 0, 0
219021464, 6170, -11428, -5491, -8345, 2571, -1563, -764, -436, -39, -59, 0, 0, 0, 0, 0, 0, 0, 0
219043942, 6091, -11542, -5421, -8292, 2233, -1258, -968, -690, -285, -62, 0, 0, 0, 0, 0, 0, 0, 0
219066464, 6033, -11705, -5346, -8153, 2398, -1193, -1297, -535, -591, 361, 0, 0, 0, 0, 0, 0, 0, 0
219074567, 6033, -11705, -5346, -8153, 2398, -1193, -1297, -535, -591, 361, 116, 66, 96, 116, 104, 141, 344, 178
219075364, 6033, -11705, -5346, -8153, 2398, -1193, -1297, -535, -591, 361, 116, 66, 96, 116, 104, 141, 344, 178
219081555, 5972, -11895, -5203, -8014, 2750, -1402, -1227, -831, -654, 631, 116, 66, 96, 116, 104, 141, 344, 178
219097040, 5972, -11895, -5203, -8014, 2750, -1402, -1227, -831, -654, 631, 361, 149, 126, 129, 107, 157, 330, 296
219097881, 5972, -11895, -5203, -8014, 2750, -1402, -1227, -831, -654, 631, 361, 149, 126, 129, 107, 157, 330, 296
219103992, 5860, -12091, -5003, -7930, 2869, -1272, -1233, -1287, -471, 732, 361, 149, 126, 129, 107, 157, 330, 296
219119515, 5860, -12091, -5003, -7930, 2869, -1272, -1233, -1287, -471, 732, 556, 274, 208, 181, 106, 152, 316, 478
219120368, 5860, -12091, -5003, -7930, 2869, -1272, -1233, -1287, -471, 732, 556, 274, 208, 181, 106, 152, 316, 478
219126492, 5712, -12277, -4759, -7903, 2775, -1241, -1445, -1603, -308, 908, 556, 274, 208, 181, 106, 152, 316, 478
219134565, 5712, -12277, -4759, -7903, 2775, -1241, -1445, -1603, -308, 908, 694, 413, 294, 231, 128, 187, 382, 589
219135339, 5712, -12277, -4759, -7903, 2775, -1241, -1445, -1603, -308, 908, 694, 413, 294, 231, 128, 187, 382, 589
219141494, 5507, -12513, -4380, -7898, 2576, -1443, -1695, -2337, -154, 1340, 694, 413, 294, 231, 128, 187, 382, 589
219157042, 5507, -12513, -4380, -7898, 2576, -1443, -1695, -2337, -154, 1340, 763, 516, 438, 279, 156, 224, 448, 663
219157839, 5507, -12513, -4380, -7898, 2576, -1443, -1695, -2337, -154, 1340, 763, 516, 438, 279, 156, 224, 448, 663
219164019, 5366, -12733, -3924, -7883, 2461, -1662, -1463, -2247, 59, 1811, 763, 516, 438, 279, 156, 224, 448, 663
219179514, 5366, -12733, -3924, -7883, 2461, -1662, -1463, -2247, 59, 1811, 848, 629, 601, 331, 215, 259, 449, 803
219180380, 5366, -12733, -3924, -7883, 2461, -1662, -1463, -2247, 59, 1811, 848, 629, 601, 331, 215, 259, 449, 803
219186533, 5317, -12905, -3433, -7865, 2439, -1763, -1550, -1843, 365, 2156, 848, 629, 601, 331, 215, 259, 449, 803
219194558, 5317, -12905, -3433, -7865, 2439, -1763, -1550, -1843, 365, 2156, 839, 736, 710, 383, 267, 292, 483, 857
219195341, 5317, -12905, -3433, -7865, 2439, -1763, -1550, -1843, 365, 2156, 839, 736, 710, 383, 267, 292, 483, 857
219201532, 5334, -13031, -2901, -7860, 2331, -1698, -1420, -1585, 694, 2458, 839, 736, 710, 383, 267, 292, 483, 857
219217006, 5334, -13031, -2901, -7860, 2331, -1698, -1420, -1585, 694, 2458, 959, 839, 833, 450, 322, 329, 488, 917
219217826, 5334, -13031, -2901, -7860, 2331, -1698, -1420, -1585, 694, 2458, 959, 839, 833, 450, 322, 329, 488, 917
219224077, 5377, -13124, -2364, -7856, 1908, -2205, -1092, -1458, 791, 2443, 959, 839, 833, 450, 322, 329, 488, 917
219239569, 5377, -13124, -2364, -7856, 1908, -2205, -1092, -1458, 791, 2443, 900, 844, 891, 481, 329, 340, 504, 887
219240388, 5377, -13124, -2364, -7856, 1908, -2205, -1092, -1458, 791, 2443, 900, 844, 891, 481, 329, 340, 504, 887
219246541, 5442, -13154, -1988, -7866, 822, -2326, -1282, -814, 816, 1644, 900, 844, 891, 481, 329, 340, 504, 887
219254556, 5442, -13154, -1988, -7866, 822, -2326, -1282, -814, 816, 1644, 874, 805, 856, 462, 342, 352, 496, 841
219255490, 5442, -13154, -1988, -7866, 822, -2326, -1282, -814, 816, 1644, 874, 805, 856, 462, 342, 352, 496, 841
219261563, 5569, -13233, -1745, -7700, 205, -1650, -1291, -105, 130, 1094, 874, 805, 856, 462, 342, 352, 496, 841
219277088, 5569, -13233, -1745, -7700, 205, -1650, -1291, -105, 130, 1094, 859, 738, 779, 428, 331, 351, 494, 742
219277876, 5569, -13233, -1745, -7700, 205, -1650, -1291, -105, 130, 1094, 859, 738, 779, 428, 331, 351, 494, 742
219284043, 5721, -13275, -1614, -7542, 1912, -1490, -1772, 545, -34, 1153, 859, 738, 779, 428, 331, 351, 494, 742
219299589, 5721, -13275, -1614, -7542, 1912, -1490, -1772, 545, -34, 1153, 866, 636, 685, 392, 296, 317, 459, 648
219300388, 5721, -13275, -1614, -7542, 1912, -1490, -1772, 545, -34, 1153, 866, 636, 685, 392, 296, 317, 459, 648
219306516, 5609, -13360, -1323, -7534, 1986, -1033, -1455, -1228, 528, 1163, 866, 636, 685, 392, 296, 317, 459, 648
219314573, 5609, -13360, -1323, -7534, 1986, -1033, -1455, -1228, 528, 1163, 682, 463, 538, 332, 272, 279, 412, 455
219315415, 5609, -13360, -1323, -7534, 1986, -1033, -1455, -1228, 528, 1163, 682, 463, 538, 332, 272, 279, 412, 455
219321542, 5592, -13472, -1008, -7394, 608, -1973, -1378, -1056, 131, 1026, 682, 463, 538, 332, 272, 279, 412, 455
219337102, 5592, -13472, -1008, -7394, 608, -1973, -1378, -1056, 131, 1026, 672, 372, 402, 264, 275, 257, 336, 374
219337888, 5592, -13472, -1008, -7394, 608, -1973, -1378, -1056, 131, 1026, 672, 372, 402, 264, 275, 257, 336, 374
219344021, 5522, -13574, -902, -7273, 1304, -1885, -1751, -644, -163, 134, 672, 372, 402, 264, 275, 257, 336, 374
219359539, 5522, -13574, -902, -7273, 1304, -1885, -1751, -644, -163, 134, 670, 354, 364, 263, 249, 222, 274, 366
219360386, 5522, -13574, -902, -7273, 1304, -1885, -1751, -644, -163, 134, 670, 354, 364, 263, 249, 222, 274, 366
219366518, 5453, -13675, -794, -7147, 1415, -1545, -1731, -586, -235, 346, 670, 354, 364, 263, 249, 222, 274, 366
219374606, 5453, -13675, -794, -7147, 1415, -1545, -1731, -586, -235, 346, 687, 361, 309, 259, 230, 184, 253, 320
219375364, 5453, -13675, -794, -7147, 1415, -1545, -1731, -586, -235, 346, 687, 361, 309, 259, 230, 184, 253, 320
219381557, 5374, -13777, -718, -7019, 1472, -1777, -1681, -644, -374, 110, 687, 361, 309, 259, 230, 184, 253, 320
219397042, 5374, -13777, -718, -7019, 1472, -1777, -1681, -644, -374, 110, 647, 336, 292, 237, 221, 181, 247, 329
219397867, 5374, -13777, -718, -7019, 1472, -1777, -1681, -644, -374, 110, 647, 336, 292, 237, 221, 181, 247, 329
219404019, 5244, -13883, -720, -6906, 1333, -1851, -1620, -769, -484, -481, 647, 336, 292, 237, 221, 181, 247, 329
219419557, 5244, -13883, -720, -6906, 1333, -1851, -1620, -769, -484, -481, 565, 301, 223, 174, 185, 204, 280, 294
219420365, 5244, -13883, -720, -6906, 1333, -1851, -1620, -769, -484, -481, 565, 301, 223, 174, 185, 204, 280, 294
219426538, 5142, -13972, -794, -6795, 1473, -2042, -1660, -497, -590, -806, 565, 301, 223, 174, 185, 204, 280, 294
219434539, 5142, -13972, -794, -6795, 1473, -2042, -1660, -497, -590, -806, 661, 272, 189, 150, 166, 192, 280, 330
219435406, 5142, -13972, -794, -6795, 1473, -2042, -1660, -497, -590, -806, 661, 272, 189, 150, 166, 192, 280, 330
219441530, 5132, -14001, -955, -6721, 1700, -2099, -1524, 167, -523, -1056, 661, 272, 189, 150, 166, 192, 280, 330
219457051, 5132, -14001, -955, -6721, 1700, -2099, -1524, 167, -523, -1056, 631, 258, 178, 130, 173, 176, 261, 336
219457865, 5132, -14001, -955, -6721, 1700, -2099, -1524, 167, -523, -1056, 631, 258, 178, 130, 173, 176, 261, 336
219464039, 5209, -13967, -1208, -6693, 1741, -2074, -1488, 882, -303, -1384, 631, 258, 178, 130, 173, 176, 261, 336
219479564, 5209, -13967, -1208, -6693, 1741, -2074, -1488, 882, -303, -1384, 540, 204, 176, 129, 168, 177, 243, 350
219480340, 5209, -13967, -1208, -6693, 1741, -2074, -1488, 882, -303, -1384, 540, 204, 176, 129, 168, 177, 243, 350
219486518, 5327, -13862, -1583, -6740, 1744, -2007, -1609, 1569, -93, -1742, 540, 204, 176, 129, 168, 177, 243, 350
219494540, 5327, -13862, -1583, -6740, 1744, -2007, -1609, 1569, -93, -1742, 487, 190, 172, 131, 173, 211, 246, 357
219495405, 5327, -13862, -1583, -6740, 1744, -2007, -1609, 1569, -93, -1742, 487, 190, 172, 131, 173, 211, 246, 357
219501516, 5489, -13709, -2020, -6805, 1827, -1870, -1624, 2010, 22, -1979, 487, 190, 172, 131, 173, 211, 246, 357
219517062, 5489, -13709, -2020, -6805, 1827, -1870, -1624, 2010, 22, -1979, 489, 182, 166, 125, 157, 193, 206, 382
219517840, 5489, -13709, -2020, -6805, 1827, -1870, -1624, 2010, 22, -1979, 489, 182, 166, 125, 157, 193, 206, 382
219523984, 5692, -13519, -2480, -6867, 1917, -1712, -1560, 2336, 70, -2000, 489, 182, 166, 125, 157, 193, 206, 382
219539507, 5692, -13519, -2480, -6867, 1917, -1712, -1560, 2336, 70, -2000, 284, 147, 157, 120, 147, 185, 174, 348
219540338, 5692, -13519, -2480, -6867, 1917, -1712, -1560, 2336, 70, -2000, 284, 147, 157, 120, 147, 185, 174, 348
219546484, 5907, -13302, -2951, -6922, 2032, -1529, -1438, 2477, 87, -2007, 284, 147, 157, 120, 147, 185, 174, 348
219554531, 5907, -13302, -2951, -6922, 2032, -1529, -1438, 2477, 87, -2007, 269, 107, 128, 119, 131, 187, 181, 345
219555335, 5907, -13302, -2951, -6922, 2032, -1529, -1438, 2477, 87, -2007, 269, 107, 128, 119, 131, 187, 181, 345
219561484, 6129, -13058, -3404, -6985, 2137, -1452, -1304, 2518, 213, -1948, 269, 107, 128, 119, 131, 187, 181, 345
219577031, 6129, -13058, -3404, -6985, 2137, -1452, -1304, 2518, 213, -1948, 220, 76, 91, 105, 106, 188, 213, 324
219577867, 6129, -13058, -3404, -6985, 2137, -1452, -1304, 2518, 213, -1948, 220, 76, 91, 105, 106, 188, 213, 324
219583991, 6366, -12783, -3850, -7049, 2254, -1467, -1074, 2614, 313, -1924, 220, 76, 91, 105, 106, 188, 213, 324
219600005, 6366, -12783, -3850, -7049, 2254, -1467, -1074, 2614, 313, -1924, 231, 92, 102, 102, 104, 169, 227, 314
219600840, 6366, -12783, -3850, -7049, 2254, -1467, -1074, 2614, 313, -1924, 231, 92, 102, 102, 104, 169, 227, 314
219606496, 6683, -12452, -4317, -7077, 2245, -1586, -985, 3184, 346, -1842, 231, 92, 102, 102, 104, 169, 227, 314
219614515, 6683, -12452, -4317, -7077, 2245, -1586, -985, 3184, 346, -1842, 248, 103, 115, 99, 104, 150, 216, 281
219615368, 6683, -12452, -4317, -7077, 2245, -1586, -985, 3184, 346, -1842, 248, 103, 115, 99, 104, 150, 216, 281
219621516, 7047, -12082, -4800, -7055, 2292, -1444, -1100, 3601, 290, -1725, 248, 103, 115, 99, 104, 150, 216, 281
219637041, 7047, -12082, -4800, -7055, 2292, -1444, -1100, 3601, 290, -1725, 249, 104, 112, 99, 106, 149, 219, 278
219637840, 7047, -12082, -4800, -7055, 2292, -1444, -1100, 3601, 290, -1725, 249, 104, 112, 99, 106, 149, 219, 278
219643996, 7418, -11684, -5265, -7014, 2477, -1123, -1015, 3697, 327, -1589, 249, 104, 112, 99, 106, 149, 219, 278
219659565, 7418, -11684, -5265, -7014, 2477, -1123, -1015, 3697, 327, -1589, 243, 105, 109, 99, 117, 149, 226, 273
219660391, 7418, -11684, -5265, -7014, 2477, -1123, -1015, 3697, 327, -1589, 243, 105, 109, 99, 117, 149, 226, 273
219666519, 7794, -11256, -5693, -6972, 2527, -903, -718, 3701, 475, -1461, 243, 105, 109, 99, 117, 149, 226, 273
219673868, 7794, -11256, -5693, -6972, 2527, -903, -718, 3701, 475, -1461, 251, 104, 116, 124, 141, 167, 255, 319
219682065, 7794, -11256, -5693, -6972, 2527, -903, -718, 3701, 475, -1461, 251, 104, 116, 124, 141, 167, 255, 319
219683046, 8241, -10773, -6122, -6856, 2167, -988, -461, 4260, 446, -1239, 251, 104, 116, 124, 141, 167, 255, 319
219697067, 8241, -10773, -6122, -6856, 2167, -988, -461, 4260, 446, -1239, 244, 94, 111, 143, 160, 182, 269, 297
219697867, 8241, -10773, -6122, -6856, 2167, -988, -461, 4260, 446, -1239, 244, 94, 111, 143, 160, 182, 269, 297
219704023, 8691, -10255, -6572, -6675, 2127, -780, -475, 4561, 248, -1173, 244, 94, 111, 143, 160, 182, 269, 297
219719542, 8691, -10255, -6572, -6675, 2127, -780, -475, 4561, 248, -1173, 206, 92, 103, 153, 169, 204, 293, 289
219720394, 8691, -10255, -6572, -6675, 2127, -780, -475, 4561, 248, -1173, 206, 92, 103, 153, 169, 204, 293, 289
219726517, 9086, -9694, -7045, -6503, 2420, -445, -490, 4534, 197, -1463, 206, 92, 103, 153, 169, 204, 293, 289
219733867, 9086, -9694, -7045, -6503, 2420, -445, -490, 4534, 197, -1463, 236, 112, 119, 170, 196, 322, 413, 319
219742065, 9086, -9694, -7045, -6503, 2420, -445, -490, 4534, 197, -1463, 236, 112, 119, 170, 196, 322, 413, 319
219743020, 9425, -9128, -7476, -6356, 2421, -114, -386, 4210, 282, -1499, 236, 112, 119, 170, 196, 322, 413, 319
219757053, 9425, -9128, -7476, -6356, 2421, -114, -386, 4210, 282, -1499, 243, 116, 122, 173, 204, 368, 470, 370
219757874, 9425, -9128, -7476, -6356, 2421, -114, -386, 4210, 282, -1499, 243, 116, 122, 173, 204, 368, 470, 370
219764022, 9691, -8607, -7837, -6247, 2549, -159, -335, 3581, 347, -1460, 243, 116, 122, 173, 204, 368, 470, 370
219779556, 9691, -8607, -7837, -6247, 2549, -159, -335, 3581, 347, -1460, 291, 133, 136, 166, 193, 358, 440, 387
219780342, 9691, -8607, -7837, -6247, 2549, -159, -335, 3581, 347, -1460, 291, 133, 136, 166, 193, 358, 440, 387
219786492, 9861, -8156, -8107, -6242, 3136, -176, -363, 2595, 561, -1547, 291, 133, 136, 166, 193, 358, 440, 387
219802756, 9861, -8156, -8107, -6242, 3136, -176, -363, 2595, 561, -1547, 313, 155, 150, 154, 175, 349, 439, 390
219803539, 9861, -8156, -8107, -6242, 3136, -176, -363, 2595, 561, -1547, 313, 155, 150, 154, 175, 349, 439, 390
219804468, 10001, -7766, -8281, -6288, 3101, -424, -304, 1963, 817, -1397, 313, 155, 150, 154, 175, 349, 439, 390
219817026, 10001, -7766, -8281, -6288, 3101, -424, -304, 1963, 817, -1397, 354, 160, 153, 149, 182, 348, 461, 408
219817824, 10001, -7766, -8281, -6288, 3101, -424, -304, 1963, 817, -1397, 354, 160, 153, 149, 182, 348, 461, 408
219824005, 10147, -7432, -8389, -6315, 2417, -421, -180, 1689, 877, -1010, 354, 160, 153, 149, 182, 348, 461, 408
219839522, 10147, -7432, -8389, -6315, 2417, -421, -180, 1689, 877, -1010, 359, 164, 155, 147, 184, 265, 441, 420
219840293, 10147, -7432, -8389, -6315, 2417, -421, -180, 1689, 877, -1010, 359, 164, 155, 147, 184, 265, 441, 420
219846469, 10241, -7207, -8464, -6323, 2377, -89, -122, 1172, 680, -512, 359, 164, 155, 147, 184, 265, 441, 420
219862743, 10241, -7207, -8464, -6323, 2377, -89, -122, 1172, 680, -512, 366, 171, 160, 142, 169, 200, 399, 381
219863546, 10241, -7207, -8464, -6323, 2377, -89, -122, 1172, 680, -512, 366, 171, 160, 142, 169, 200, 399, 381
219864496, 10301, -7073, -8491, -6341, 2641, -40, 96, 621, 490, -201, 366, 171, 160, 142, 169, 200, 399, 381
219877039, 10301, -7073, -8491, -6341, 2641, -40, 96, 621, 490, -201, 344, 183, 153, 139, 167, 196, 407, 328
219877906, 10301, -7073, -8491, -6341, 2641, -40, 96, 621, 490, -201, 344, 183, 153, 139, 167, 196, 407, 328
219891521, 10350, -6978, -8485, -6375, 2469, -156, 173, 335, 496, -176, 344, 183, 153, 139, 167, 196, 407, 328
219899480, 10350, -6978, -8485, -6375, 2469, -156, 173, 335, 496, -176, 320, 161, 136, 143, 168, 185, 409, 321
219900290, 10350, -6978, -8485, -6375, 2469, -156, 173, 335, 496, -176, 320, 161, 136, 143, 168, 185, 409, 321
219906468, 10374, -6933, -8457, -6421, 2621, -99, 180, 18, 437, -37, 320, 161, 136, 143, 168, 185, 409, 321
219922748, 10374, -6933, -8457, -6421, 2621, -99, 180, 18, 437, -37, 286, 153, 127, 136, 161, 201, 385, 315
219923521, 10374, -6933, -8457, -6421, 2621, -99, 180, 18, 437, -37, 286, 153, 127, 136, 161, 201, 385, 315
219924492, 10383, -6925, -8411, -6476, 2695, -88, 208, -221, 400, 57, 286, 153, 127, 136, 161, 201, 385, 315
219937045, 10383, -6925, -8411, -6476, 2695, -88, 208, -221, 400, 57, 245, 144, 114, 120, 121, 173, 304, 308
219937902, 10383, -6925, -8411, -6476, 2695, -88, 208, -221, 400, 57, 245, 144, 114, 120, 121, 173, 304, 308
219944017, 10389, -6952, -8352, -6513, 2638, -66, 242, -333, 294, 258, 245, 144, 114, 120, 121, 173, 304, 308
219959566, 10389, -6952, -8352, -6513, 2638, -66, 242, -333, 294, 258, 240, 135, 106, 119, 125, 172, 293, 296
219960345, 10389, -6952, -8352, -6513, 2638, -66, 242, -333, 294, 258, 240, 135, 106, 119, 125, 172, 293, 296
219966516, 10381, -6989, -8296, -6558, 2601, -108, 257, -412, 240, 194, 240, 135, 106, 119, 125, 172, 293, 296
219982739, 10381, -6989, -8296, -6558, 2601, -108, 257, -412, 240, 194, 231, 107, 91, 105, 119, 172, 281, 264
219983604, 10381, -6989, -8296, -6558, 2601, -108, 257, -412, 240, 194, 231, 107, 91, 105, 119, 172, 281, 264
219984492, 10374, -7002, -8267, -6592, 2372, -133, 211, -232, 187, 76, 231, 107, 91, 105, 119, 172, 281, 264
220005345, 10374, -7002, -8267, -6592, 2372, -133, 211, -232, 187, 76, 222, 105, 89, 93, 121, 171, 250, 254
220006050, 10374, -7002, -8267, -6592, 2372, -133, 211, -232, 187, 76, 222, 105, 89, 93, 121, 171, 250, 254
220006980, 10352, -7013, -8259, -6625, 2350, -1, 176, -217, 86, 57, 222, 105, 89, 93, 121, 171, 250, 254
220019570, 10352, -7013, -8259, -6625, 2350, -1, 176, -217, 86, 57, 186, 103, 89, 90, 104, 122, 225, 266
220020450, 10352, -7013, -8259, -6625, 2350, -1, 176, -217, 86, 57, 186, 103, 89, 90, 104, 122, 225, 266
220026535, 10306, -7050, -8257, -6659, 2398, -92, 159, -349, -49, 9, 186, 103, 89, 90, 104, 122, 225, 266
220042720, 10306, -7050, -8257, -6659, 2398, -92, 159, -349, -49, 9, 222, 124, 83, 80, 109, 110, 182, 226
220043521, 10306, -7050, -8257, -6659, 2398, -92, 159, -349, -49, 9, 222, 124, 83, 80, 109, 110, 182, 226
220044481, 10250, -7111, -8252, -6688, 2332, -147, 107, -440, -123, 41, 222, 124, 83, 80, 109, 110, 182, 226
220065214, 10250, -7111, -8252, -6688, 2332, -147, 107, -440, -123, 41, 228, 149, 73, 69, 95, 83, 131, 234
220066080, 10250, -7111, -8252, -6688, 2332, -147, 107, -440, -123, 41, 228, 149, 73, 69, 95, 83, 131, 234
220066967, 10181, -7193, -8244, -6716, 2315, -114, 69, -551, -181, 104, 228, 149, 73, 69, 95, 83, 131, 234
220079502, 10181, -7193, -8244, -6716, 2315, -114, 69, -551, -181, 104, 291, 158, 119, 95, 95, 77, 161, 296
220080314, 10181, -7193, -8244, -6716, 2315, -114, 69, -551, -181, 104, 291, 158, 119, 95, 95, 77, 161, 296
220086543, 10091, -7316, -8215, -6754, 2318, -133, -20, -817, -206, 179, 291, 158, 119, 95, 95, 77, 161, 296
