Timestamp, Orientation x, Orientation y, Orientation z, Orientation w, Acceleration x, Acceleration y, Acceleration z, Rotation x, Rotation y, Rotation z, EMG 0, EMG 1, EMG 2, EMG 3, EMG 4, EMG 5, EMG 6, EMG 7
224638788, 7534, -9911, -5808, -8929, 1908, -1439, -293, 500, 945, -1254, 0, 0, 0, 0, 0, 0, 0, 0
224646281, 7599, -9724, -5890, -9025, 1909, -1441, -145, 802, 933, -1319, 0, 0, 0, 0, 0, 0, 0, 0
224661287, 7719, -9491, -6044, -9070, 1754, -1519, -327, 1455, 950, -1418, 0, 0, 0, 0, 0, 0, 0, 0
224683776, 7790, -9164, -6297, -9172, 1592, -1383, -475, 1686, 907, -1703, 0, 0, 0, 0, 0, 0, 0, 0
224707596, 7826, -8842, -6554, -9278, 1611, -875, -454, 1562, 817, -1773, 0, 0, 0, 0, 0, 0, 0, 0
224708415, 7826, -8842, -6554, -9278, 1611, -875, -454, 1562, 817, -1773, 53, 100, 235, 162, 158, 97, 154, 46
224709219, 7826, -8842, -6554, -9278, 1611, -875, -454, 1562, 817, -1773, 53, 100, 235, 162, 158, 97, 154, 46
224721254, 7819, -8575, -6771, -9377, 1688, -590, -322, 1169, 620, -1610, 53, 100, 235, 162, 158, 97, 154, 46
224729377, 7819, -8575, -6771, -9377, 1688, -590, -322, 1169, 620, -1610, 38, 58, 138, 108, 160, 100, 145, 46
224730165, 7819, -8575, -6771, -9377, 1688, -590, -322, 1169, 620, -1610, 38, 58, 138, 108, 160, 100, 145, 46
224743782, 7776, -8444, -6884, -9449, 1719, -716, -299, 466, 500, -1350, 38, 58, 138, 108, 160, 100, 145, 46
224751840, 7776, -8444, -6884, -9449, 1719, -716, -299, 466, 500, -1350, 38, 42, 77, 80, 161, 92, 170, 50
224752708, 7776, -8444, -6884, -9449, 1719, -716, -299, 466, 500, -1350, 38, 42, 77, 80, 161, 92, 170, 50
224769030, 7728, -8379, -6938, -9508, 1754, -992, -257, 135, 377, -1171, 38, 42, 77, 80, 161, 92, 170, 50
224769871, 7728, -8379, -6938, -9508, 1754, -992, -257, 135, 377, -1171, 38, 42, 77, 80, 161, 92, 170, 50
224770647, 9966, -7503, -8157, -6806, 2281, -115, -85, -1224, -297, 318, 38, 42, 77, 80, 161, 92, 170, 50
224771496, 9813, -7780, -8018, -6880, 2133, -225, -157, -1861, -371, 535, 38, 42, 77, 80, 161, 92, 170, 50
224776443, 7534, -9911, -5808, -8929, 1908, -1439, -293, 500, 945, -1254, 38, 42, 77, 80, 161, 92, 170, 50
224777270, 7599, -9724, -5890, -9025, 1909, -1441, -145, 802, 933, -1319, 38, 42, 77, 80, 161, 92, 170, 50
224778092, 7719, -9491, -6044, -9070, 1754, -1519, -327, 1455, 950, -1418, 38, 42, 77, 80, 161, 92, 170, 50
224778916, 7719, -9491, -6044, -9070, 1754, -1519, -327, 1455, 950, -1418, 53, 100, 235, 162, 158, 97, 154, 46
224783963, 7719, -9491, -6044, -9070, 1754, -1519, -327, 1455, 950, -1418, 38, 58, 138, 108, 160, 100, 145, 46
224784839, 7719, -9491, -6044, -9070, 1754, -1519, -327, 1455, 950, -1418, 38, 58, 138, 108, 160, 100, 145, 46
224785568, 7719, -9491, -6044, -9070, 1754, -1519, -327, 1455, 950, -1418, 38, 58, 138, 108, 160, 100, 145, 46
224786414, 7719, -9491, -6044, -9070, 1754, -1519, -327, 1455, 950, -1418, 38, 58, 138, 108, 160, 100, 145, 46
224791368, 7719, -9491, -6044, -9070, 1754, -1519, -327, 1455, 950, -1418, 38, 58, 138, 108, 160, 100, 145, 46
224792165, 7719, -9491, -6044, -9070, 1754, -1519, -327, 1455, 950, -1418, 38, 58, 138, 108, 160, 100, 145, 46
224793017, 7719, -9491, -6044, -9070, 1754, -1519, -327, 1455, 950, -1418, 38, 58, 138, 108, 160, 100, 145, 46
224793839, 7719, -9491, -6044, -9070, 1754, -1519, -327, 1455, 950, -1418, 38, 58, 138, 108, 160, 100, 145, 46
224798890, 7719, -9491, -6044, -9070, 1754, -1519, -327, 1455, 950, -1418, 38, 58, 138, 108, 160, 100, 145, 46
224799841, 7776, -8444, -6884, -9449, 1719, -716, -299, 466, 500, -1350, 38, 58, 138, 108, 160, 100, 145, 46
224800659, 7776, -8444, -6884, -9449, 1719, -716, -299, 466, 500, -1350, 38, 42, 77, 80, 161, 92, 170, 50
224801432, 7776, -8444, -6884, -9449, 1719, -716, -299, 466, 500, -1350, 38, 42, 77, 80, 161, 92, 170, 50
224806416, 7776, -8444, -6884, -9449, 1719, -716, -299, 466, 500, -1350, 38, 42, 77, 80, 161, 92, 170, 50
224807214, 7776, -8444, -6884, -9449, 1719, -716, -299, 466, 500, -1350, 38, 42, 77, 80, 161, 92, 170, 50
224808040, 7776, -8444, -6884, -9449, 1719, -716, -299, 466, 500, -1350, 38, 42, 77, 80, 161, 92, 170, 50
224808863, 7776, -8444, -6884, -9449, 1719, -716, -299, 466, 500, -1350, 38, 42, 77, 80, 161, 92, 170, 50
224813855, 7776, -8444, -6884, -9449, 1719, -716, -299, 466, 500, -1350, 38, 42, 77, 80, 161, 92, 170, 50
224814642, 7776, -8444, -6884, -9449, 1719, -716, -299, 466, 500, -1350, 38, 42, 77, 80, 161, 92, 170, 50
224815490, 7776, -8444, -6884, -9449, 1719, -716, -299, 466, 500, -1350, 38, 42, 77, 80, 161, 92, 170, 50
224816263, 7776, -8444, -6884, -9449, 1719, -716, -299, 466, 500, -1350, 38, 42, 77, 80, 161, 92, 170, 50
224821468, 7776, -8444, -6884, -9449, 1719, -716, -299, 466, 500, -1350, 38, 42, 77, 80, 161, 92, 170, 50
224822366, 7728, -8379, -6938, -9508, 1754, -992, -257, 135, 377, -1171, 38, 42, 77, 80, 161, 92, 170, 50
224823139, 7728, -8379, -6938, -9508, 1754, -992, -257, 135, 377, -1171, 46, 45, 69, 79, 162, 101, 186, 56
224823997, 7728, -8379, -6938, -9508, 1754, -992, -257, 135, 377, -1171, 46, 45, 69, 79, 162, 101, 186, 56
224828964, 7728, -8379, -6938, -9508, 1754, -992, -257, 135, 377, -1171, 46, 45, 69, 79, 162, 101, 186, 56
224829868, 7728, -8379, -6938, -9508, 1754, -992, -257, 135, 377, -1171, 46, 45, 69, 79, 162, 101, 186, 56
224830592, 7728, -8379, -6938, -9508, 1754, -992, -257, 135, 377, -1171, 46, 45, 69, 79, 162, 101, 186, 56
224831405, 7728, -8379, -6938, -9508, 1754, -992, -257, 135, 377, -1171, 46, 45, 69, 79, 162, 101, 186, 56
224836380, 7728, -8379, -6938, -9508, 1754, -992, -257, 135, 377, -1171, 46, 45, 69, 79, 162, 101, 186, 56
224837189, 7728, -8379, -6938, -9508, 1754, -992, -257, 135, 377, -1171, 46, 45, 69, 79, 162, 101, 186, 56
224838029, 7728, -8379, -6938, -9508, 1754, -992, -257, 135, 377, -1171, 46, 45, 69, 79, 162, 101, 186, 56
224838861, 7728, -8379, -6938, -9508, 1754, -992, -257, 135, 377, -1171, 46, 45, 69, 79, 162, 101, 186, 56
224843901, 7728, -8379, -6938, -9508, 1754, -992, -257, 135, 377, -1171, 46, 45, 69, 79, 162, 101, 186, 56
224844847, 7694, -8337, -6990, -9534, 1756, -1116, -215, 189, 225, -1052, 46, 45, 69, 79, 162, 101, 186, 56
224845646, 7694, -8337, -6990, -9534, 1756, -1116, -215, 189, 225, -1052, 48, 49, 86, 72, 129, 94, 198, 56
224846438, 7694, -8337, -6990, -9534, 1756, -1116, -215, 189, 225, -1052, 48, 49, 86, 72, 129, 94, 198, 56
224851478, 7694, -8337, -6990, -9534, 1756, -1116, -215, 189, 225, -1052, 48, 49, 86, 72, 129, 94, 198, 56
224852286, 7694, -8337, -6990, -9534, 1756, -1116, -215, 189, 225, -1052, 48, 49, 86, 72, 129, 94, 198, 56
224853117, 7694, -8337, -6990, -9534, 1756, -1116, -215, 189, 225, -1052, 48, 49, 86, 72, 129, 94, 198, 56
224853888, 7694, -8337, -6990, -9534, 1756, -1116, -215, 189, 225, -1052, 48, 49, 86, 72, 129, 94, 198, 56
224858879, 7694, -8337, -6990, -9534, 1756, -1116, -215, 189, 225, -1052, 48, 49, 86, 72, 129, 94, 198, 56
224859667, 7694, -8337, -6990, -9534, 1756, -1116, -215, 189, 225, -1052, 48, 49, 86, 72, 129, 94, 198, 56
224860485, 7694, -8337, -6990, -9534, 1756, -1116, -215, 189, 225, -1052, 48, 49, 86, 72, 129, 94, 198, 56
224861290, 7694, -8337, -6990, -9534, 1756, -1116, -215, 189, 225, -1052, 48, 49, 86, 72, 129, 94, 198, 56
224866393, 7694, -8337, -6990, -9534, 1756, -1116, -215, 189, 225, -1052, 48, 49, 86, 72, 129, 94, 198, 56
224867292, 7697, -8301, -7081, -9496, 1866, -1185, -238, 561, 24, -903, 48, 49, 86, 72, 129, 94, 198, 56
224868142, 7697, -8301, -7081, -9496, 1866, -1185, -238, 561, 24, -903, 56, 105, 213, 130, 110, 108, 213, 58
224868914, 7697, -8301, -7081, -9496, 1866, -1185, -238, 561, 24, -903, 56, 105, 213, 130, 110, 108, 213, 58
224873931, 7697, -8301, -7081, -9496, 1866, -1185, -238, 561, 24, -903, 56, 105, 213, 130, 110, 108, 213, 58
224874718, 7697, -8301, -7081, -9496, 1866, -1185, -238, 561, 24, -903, 56, 105, 213, 130, 110, 108, 213, 58
224875538, 7697, -8301, -7081, -9496, 1866, -1185, -238, 561, 24, -903, 56, 105, 213, 130, 110, 108, 213, 58
224876338, 7697, -8301, -7081, -9496, 1866, -1185, -238, 561, 24, -903, 56, 105, 213, 130, 110, 108, 213, 58
224880491, 7697, -8301, -7081, -9496, 1866, -1185, -238, 561, 24, -903, 56, 105, 213, 130, 110, 108, 213, 58
224881318, 7697, -8301, -7081, -9496, 1866, -1185, -238, 561, 24, -903, 56, 105, 213, 130, 110, 108, 213, 58
224882115, 7697, -8301, -7081, -9496, 1866, -1185, -238, 561, 24, -903, 56, 105, 213, 130, 110, 108, 213, 58
224888895, 7697, -8301, -7081, -9496, 1866, -1185, -238, 561, 24, -903, 56, 105, 213, 130, 110, 108, 213, 58
224889703, 7697, -8301, -7081, -9496, 1866, -1185, -238, 561, 24, -903, 56, 105, 213, 130, 110, 108, 213, 58
224890642, 7760, -8246, -7218, -9388, 2086, -1204, -383, 1100, 2, -719, 56, 105, 213, 130, 110, 108, 213, 58
224891513, 7760, -8246, -7218, -9388, 2086, -1204, -383, 1100, 2, -719, 58, 109, 227, 134, 139, 123, 244, 62
224896467, 7760, -8246, -7218, -9388, 2086, -1204, -383, 1100, 2, -719, 58, 109, 227, 134, 139, 123, 244, 62
224897298, 7760, -8246, -7218, -9388, 2086, -1204, -383, 1100, 2, -719, 58, 109, 227, 134, 139, 123, 244, 62
224898089, 7760, -8246, -7218, -9388, 2086, -1204, -383, 1100, 2, -719, 58, 109, 227, 134, 139, 123, 244, 62
224898940, 7760, -8246, -7218, -9388, 2086, -1204, -383, 1100, 2, -719, 58, 109, 227, 134, 139, 123, 244, 62
224903864, 7760, -8246, -7218, -9388, 2086, -1204, -383, 1100, 2, -719, 58, 109, 227, 134, 139, 123, 244, 62
224904708, 7760, -8246, -7218, -9388, 2086, -1204, -383, 1100, 2, -719, 58, 109, 227, 134, 139, 123, 244, 62
224905489, 7760, -8246, -7218, -9388, 2086, -1204, -383, 1100, 2, -719, 58, 109, 227, 134, 139, 123, 244, 62
224906329, 7760, -8246, -7218, -9388, 2086, -1204, -383, 1100, 2, -719, 58, 109, 227, 134, 139, 123, 244, 62
224911365, 7760, -8246, -7218, -9388, 2086, -1204, -383, 1100, 2, -719, 58, 109, 227, 134, 139, 123, 244, 62
224912326, 7863, -8165, -7349, -9271, 2194, -1111, -516, 1262, 246, -569, 58, 109, 227, 134, 139, 123, 244, 62
224913117, 7863, -8165, -7349, -9271, 2194, -1111, -516, 1262, 246, -569, 57, 109, 229, 137, 127, 146, 243, 59
224913938, 7863, -8165, -7349, -9271, 2194, -1111, -516, 1262, 246, -569, 57, 109, 229, 137, 127, 146, 243, 59
224918940, 7863, -8165, -7349, -9271, 2194, -1111, -516, 1262, 246, -569, 57, 109, 229, 137, 127, 146, 243, 59
224919733, 7863, -8165, -7349, -9271, 2194, -1111, -516, 1262, 246, -569, 57, 109, 229, 137, 127, 146, 243, 59
224920539, 7863, -8165, -7349, -9271, 2194, -1111, -516, 1262, 246, -569, 57, 109, 229, 137, 127, 146, 243, 59
224921364, 7863, -8165, -7349, -9271, 2194, -1111, -516, 1262, 246, -569, 57, 109, 229, 137, 127, 146, 243, 59
224926314, 7863, -8165, -7349, -9271, 2194, -1111, -516, 1262, 246, -569, 57, 109, 229, 137, 127, 146, 243, 59
224927113, 7863, -8165, -7349, -9271, 2194, -1111, -516, 1262, 246, -569, 57, 109, 229, 137, 127, 146, 243, 59
224927938, 7863, -8165, -7349, -9271, 2194, -1111, -516, 1262, 246, -569, 57, 109, 229, 137, 127, 146, 243, 59
224928813, 7863, -8165, -7349, -9271, 2194, -1111, -516, 1262, 246, -569, 57, 109, 229, 137, 127, 146, 243, 59
224933882, 7863, -8165, -7349, -9271, 2194, -1111, -516, 1262, 246, -569, 57, 109, 229, 137, 127, 146, 243, 59
224934842, 7940, -8074, -7464, -9193, 2013, -802, -407, 1055, 297, -566, 57, 109, 229, 137, 127, 146, 243, 59
224935568, 7940, -8074, -7464, -9193, 2013, -802, -407, 1055, 297, -566, 52, 111, 229, 136, 127, 140, 229, 58
224936415, 7940, -8074, -7464, -9193, 2013, -802, -407, 1055, 297, -566, 57, 109, 229, 137, 127, 146, 243, 59
224941426, 7940, -8074, -7464, -9193, 2013, -802, -407, 1055, 297, -566, 52, 111, 229, 136, 127, 140, 229, 58
224942239, 7940, -8074, -7464, -9193, 2013, -802, -407, 1055, 297, -566, 52, 111, 229, 136, 127, 140, 229, 58
224943065, 7940, -8074, -7464, -9193, 2013, -802, -407, 1055, 297, -566, 52, 111, 229, 136, 127, 140, 229, 58
224943863, 7940, -8074, -7464, -9193, 2013, -802, -407, 1055, 297, -566, 52, 111, 229, 136, 127, 140, 229, 58
224948863, 7940, -8074, -7464, -9193, 2013, -802, -407, 1055, 297, -566, 52, 111, 229, 136, 127, 140, 229, 58
224949693, 7940, -8074, -7464, -9193, 2013, -802, -407, 1055, 297, -566, 52, 111, 229, 136, 127, 140, 229, 58
224950499, 7940, -8074, -7464, -9193, 2013, -802, -407, 1055, 297, -566, 52, 111, 229, 136, 127, 140, 229, 58
224951357, 7940, -8074, -7464, -9193, 2013, -802, -407, 1055, 297, -566, 52, 111, 229, 136, 127, 140, 229, 58
224956391, 7940, -8074, -7464, -9193, 2013, -802, -407, 1055, 297, -566, 52, 111, 229, 136, 127, 140, 229, 58
224957345, 8004, -8012, -7554, -9118, 1839, -622, -133, 847, 80, -377, 52, 111, 229, 136, 127, 140, 229, 58
224958139, 8004, -8012, -7554, -9118, 1839, -622, -133, 847, 80, -377, 61, 109, 223, 141, 132, 139, 211, 53
224958960, 8004, -8012, -7554, -9118, 1839, -622, -133, 847, 80, -377, 61, 109, 223, 141, 132, 139, 211, 53
224963939, 8004, -8012, -7554, -9118, 1839, -622, -133, 847, 80, -377, 61, 109, 223, 141, 132, 139, 211, 53
224964866, 8004, -8012, -7554, -9118, 1839, -622, -133, 847, 80, -377, 61, 109, 223, 141, 132, 139, 211, 53
224965517, 8004, -8012, -7554, -9118, 1839, -622, -133, 847, 80, -377, 61, 109, 223, 141, 132, 139, 211, 53
224966413, 8004, -8012, -7554, -9118, 1839, -622, -133, 847, 80, -377, 61, 109, 223, 141, 132, 139, 211, 53
224971330, 8004, -8012, -7554, -9118, 1839, -622, -133, 847, 80, -377, 61, 109, 223, 141, 132, 139, 211, 53
224972204, 8004, -8012, -7554, -9118, 1839, -622, -133, 847, 80, -377, 61, 109, 223, 141, 132, 139, 211, 53
224973063, 8004, -8012, -7554, -9118, 1839, -622, -133, 847, 80, -377, 61, 109, 223, 141, 132, 139, 211, 53
224973841, 8004, -8012, -7554, -9118, 1839, -622, -133, 847, 80, -377, 61, 109, 223, 141, 132, 139, 211, 53
224978866, 8004, -8012, -7554, -9118, 1839, -622, -133, 847, 80, -377, 61, 109, 223, 141, 132, 139, 211, 53
224979839, 8071, -8002, -7623, -9010, 1970, -737, -172, 739, -90, -145, 61, 109, 223, 141, 132, 139, 211, 53
224980616, 8071, -8002, -7623, -9010, 1970, -737, -172, 739, -90, -145, 70, 69, 145, 111, 159, 143, 193, 55
224981435, 8071, -8002, -7623, -9010, 1970, -737, -172, 739, -90, -145, 70, 69, 145, 111, 159, 143, 193, 55
224986443, 8071, -8002, -7623, -9010, 1970, -737, -172, 739, -90, -145, 70, 69, 145, 111, 159, 143, 193, 55
224987227, 8071, -8002, -7623, -9010, 1970, -737, -172, 739, -90, -145, 70, 69, 145, 111, 159, 143, 193, 55
224988070, 8071, -8002, -7623, -9010, 1970, -737, -172, 739, -90, -145, 70, 69, 145, 111, 159, 143, 193, 55
224988870, 8071, -8002, -7623, -9010, 1970, -737, -172, 739, -90, -145, 70, 69, 145, 111, 159, 143, 193, 55
224993857, 8071, -8002, -7623, -9010, 1970, -737, -172, 739, -90, -145, 70, 69, 145, 111, 159, 143, 193, 55
224994661, 8071, -8002, -7623, -9010, 1970, -737, -172, 739, -90, -145, 70, 69, 145, 111, 159, 143, 193, 55
224995465, 8071, -8002, -7623, -9010, 1970, -737, -172, 739, -90, -145, 70, 69, 145, 111, 159, 143, 193, 55
224996276, 8071, -8002, -7623, -9010, 1970, -737, -172, 739, -90, -145, 70, 69, 145, 111, 159, 143, 193, 55
225001417, 8071, -8002, -7623, -9010, 1970, -737, -172, 739, -90, -145, 70, 69, 145, 111, 159, 143, 193, 55
225002428, 8121, -8031, -7670, -8898, 2138, -824, -285, 528, -137, -67, 70, 69, 145, 111, 159, 143, 193, 55
225003206, 8121, -8031, -7670, -8898, 2138, -824, -285, 528, -137, -67, 163, 178, 236, 116, 148, 182, 164, 112
225003971, 8121, -8031, -7670, -8898, 2138, -824, -285, 528, -137, -67, 163, 178, 236, 116, 148, 182, 164, 112
225008966, 8121, -8031, -7670, -8898, 2138, -824, -285, 528, -137, -67, 163, 178, 236, 116, 148, 182, 164, 112
225009851, 8121, -8031, -7670, -8898, 2138, -824, -285, 528, -137, -67, 163, 178, 236, 116, 148, 182, 164, 112
225010592, 8121, -8031, -7670, -8898, 2138, -824, -285, 528, -137, -67, 163, 178, 236, 116, 148, 182, 164, 112
225011428, 8121, -8031, -7670, -8898, 2138, -824, -285, 528, -137, -67, 163, 178, 236, 116, 148, 182, 164, 112
225016371, 8121, -8031, -7670, -8898, 2138, -824, -285, 528, -137, -67, 163, 178, 236, 116, 148, 182, 164, 112
225017162, 8121, -8031, -7670, -8898, 2138, -824, -285, 528, -137, -67, 163, 178, 236, 116, 148, 182, 164, 112
225017976, 8121, -8031, -7670, -8898, 2138, -824, -285, 528, -137, -67, 163, 178, 236, 116, 148, 182, 164, 112
225018850, 8121, -8031, -7670, -8898, 2138, -824, -285, 528, -137, -67, 163, 178, 236, 116, 148, 182, 164, 112
225023876, 8121, -8031, -7670, -8898, 2138, -824, -285, 528, -137, -67, 163, 178, 236, 116, 148, 182, 164, 112
225024832, 8182, -8053, -7726, -8773, 2091, -808, -102, 637, -263, -22, 163, 178, 236, 116, 148, 182, 164, 112
225025618, 8182, -8053, -7726, -8773, 2091, -808, -102, 637, -263, -22, 200, 252, 325, 147, 174, 239, 144, 143
225026432, 8182, -8053, -7726, -8773, 2091, -808, -102, 637, -263, -22, 200, 252, 325, 147, 174, 239, 144, 143
225031431, 8182, -8053, -7726, -8773, 2091, -808, -102, 637, -263, -22, 200, 252, 325, 147, 174, 239, 144, 143
225032260, 8182, -8053, -7726, -8773, 2091, -808, -102, 637, -263, -22, 200, 252, 325, 147, 174, 239, 144, 143
225033062, 8182, -8053, -7726, -8773, 2091, -808, -102, 637, -263, -22, 200, 252, 325, 147, 174, 239, 144, 143
225033889, 8182, -8053, -7726, -8773, 2091, -808, -102, 637, -263, -22, 200, 252, 325, 147, 174, 239, 144, 143
225038839, 8182, -8053, -7726, -8773, 2091, -808, -102, 637, -263, -22, 200, 252, 325, 147, 174, 239, 144, 143
225039682, 8182, -8053, -7726, -8773, 2091, -808, -102, 637, -263, -22, 200, 252, 325, 147, 174, 239, 144, 143
225040467, 8182, -8053, -7726, -8773, 2091, -808, -102, 637, -263, -22, 200, 252, 325, 147, 174, 239, 144, 143
225041291, 8182, -8053, -7726, -8773, 2091, -808, -102, 637, -263, -22, 200, 252, 325, 147, 174, 239, 144, 143
225046341, 8182, -8053, -7726, -8773, 2091, -808, -102, 637, -263, -22, 200, 252, 325, 147, 174, 239, 144, 143
225047302, 8233, -8099, -7772, -8642, 2129, -790, -214, 521, -301, 71, 200, 252, 325, 147, 174, 239, 144, 143
225048088, 8233, -8099, -7772, -8642, 2129, -790, -214, 521, -301, 71, 211, 267, 339, 152, 203, 308, 161, 152
225048942, 8233, -8099, -7772, -8642, 2129, -790, -214, 521, -301, 71, 211, 267, 339, 152, 203, 308, 161, 152
225053914, 8233, -8099, -7772, -8642, 2129, -790, -214, 521, -301, 71, 211, 267, 339, 152, 203, 308, 161, 152
225054754, 8233, -8099, -7772, -8642, 2129, -790, -214, 521, -301, 71, 211, 267, 339, 152, 203, 308, 161, 152
225055544, 8233, -8099, -7772, -8642, 2129, -790, -214, 521, -301, 71, 211, 267, 339, 152, 203, 308, 161, 152
225056341, 8233, -8099, -7772, -8642, 2129, -790, -214, 521, -301, 71, 211, 267, 339, 152, 203, 308, 161, 152
225061317, 8233, -8099, -7772, -8642, 2129, -790, -214, 521, -301, 71, 211, 267, 339, 152, 203, 308, 161, 152
225062151, 8233, -8099, -7772, -8642, 2129, -790, -214, 521, -301, 71, 211, 267, 339, 152, 203, 308, 161, 152
225062960, 8233, -8099, -7772, -8642, 2129, -790, -214, 521, -301, 71, 211, 267, 339, 152, 203, 308, 161, 152
225063866, 8233, -8099, -7772, -8642, 2129, -790, -214, 521, -301, 71, 211, 267, 339, 152, 203, 308, 161, 152
225068889, 8233, -8099, -7772, -8642, 2129, -790, -214, 521, -301, 71, 211, 267, 339, 152, 203, 308, 161, 152
225069870, 8267, -8183, -7797, -8506, 2218, -618, -326, 309, -367, 312, 211, 267, 339, 152, 203, 308, 161, 152
225070666, 8267, -8183, -7797, -8506, 2218, -618, -326, 309, -367, 312, 210, 270, 351, 156, 225, 324, 164, 157
225071467, 8267, -8183, -7797, -8506, 2218, -618, -326, 309, -367, 312, 211, 267, 339, 152, 203, 308, 161, 152
225076464, 8267, -8183, -7797, -8506, 2218, -618, -326, 309, -367, 312, 210, 270, 351, 156, 225, 324, 164, 157
225077293, 8267, -8183, -7797, -8506, 2218, -618, -326, 309, -367, 312, 210, 270, 351, 156, 225, 324, 164, 157
225078118, 8267, -8183, -7797, -8506, 2218, -618, -326, 309, -367, 312, 210, 270, 351, 156, 225, 324, 164, 157
225078926, 8267, -8183, -7797, -8506, 2218, -618, -326, 309, -367, 312, 210, 270, 351, 156, 225, 324, 164, 157
225083839, 8267, -8183, -7797, -8506, 2218, -618, -326, 309, -367, 312, 210, 270, 351, 156, 225, 324, 164, 157
225084709, 8267, -8183, -7797, -8506, 2218, -618, -326, 309, -367, 312, 210, 270, 351, 156, 225, 324, 164, 157
225085489, 8267, -8183, -7797, -8506, 2218, -618, -326, 309, -367, 312, 210, 270, 351, 156, 225, 324, 164, 157
225086311, 8267, -8183, -7797, -8506, 2218, -618, -326, 309, -367, 312, 210, 270, 351, 156, 225, 324, 164, 157
225091365, 8267, -8183, -7797, -8506, 2218, -618, -326, 309, -367, 312, 210, 270, 351, 156, 225, 324, 164, 157
225092293, 8346, -8277, -7808, -8326, 2067, -847, -9, 483, -548, 525, 210, 270, 351, 156, 225, 324, 164, 157
225093117, 8346, -8277, -7808, -8326, 2067, -847, -9, 483, -548, 525, 211, 276, 344, 149, 209, 329, 187, 158
225093930, 8346, -8277, -7808, -8326, 2067, -847, -9, 483, -548, 525, 211, 276, 344, 149, 209, 329, 187, 158
225098915, 8346, -8277, -7808, -8326, 2067, -847, -9, 483, -548, 525, 211, 276, 344, 149, 209, 329, 187, 158
225099717, 8346, -8277, -7808, -8326, 2067, -847, -9, 483, -548, 525, 211, 276, 344, 149, 209, 329, 187, 158
225100557, 8346, -8277, -7808, -8326, 2067, -847, -9, 483, -548, 525, 211, 276, 344, 149, 209, 329, 187, 158
225101405, 8346, -8277, -7808, -8326, 2067, -847, -9, 483, -548, 525, 211, 276, 344, 149, 209, 329, 187, 158
225106339, 8346, -8277, -7808, -8326, 2067, -847, -9, 483, -548, 525, 211, 276, 344, 149, 209, 329, 187, 158
225107179, 8346, -8277, -7808, -8326, 2067, -847, -9, 483, -548, 525, 211, 276, 344, 149, 209, 329, 187, 158
225107964, 8346, -8277, -7808, -8326, 2067, -847, -9, 483, -548, 525, 211, 276, 344, 149, 209, 329, 187, 158
225108863, 8346, -8277, -7808, -8326, 2067, -847, -9, 483, -548, 525, 211, 276, 344, 149, 209, 329, 187, 158
225113840, 8346, -8277, -7808, -8326, 2067, -847, -9, 483, -548, 525, 211, 276, 344, 149, 209, 329, 187, 158
225114869, 8476, -8323, -7825, -8130, 2002, -1136, 61, 826, -384, 436, 211, 276, 344, 149, 209, 329, 187, 158
225115543, 8476, -8323, -7825, -8130, 2002, -1136, 61, 826, -384, 436, 186, 257, 287, 149, 211, 331, 377, 158
225116420, 8476, -8323, -7825, -8130, 2002, -1136, 61, 826, -384, 436, 186, 257, 287, 149, 211, 331, 377, 158
225121442, 8476, -8323, -7825, -8130, 2002, -1136, 61, 826, -384, 436, 186, 257, 287, 149, 211, 331, 377, 158
225122239, 8476, -8323, -7825, -8130, 2002, -1136, 61, 826, -384, 436, 186, 257, 287, 149, 211, 331, 377, 158
225123051, 8476, -8323, -7825, -8130, 2002, -1136, 61, 826, -384, 436, 186, 257, 287, 149, 211, 331, 377, 158
225123865, 8476, -8323, -7825, -8130, 2002, -1136, 61, 826, -384, 436, 186, 257, 287, 149, 211, 331, 377, 158
225128904, 8476, -8323, -7825, -8130, 2002, -1136, 61, 826, -384, 436, 186, 257, 287, 149, 211, 331, 377, 158
225129692, 8476, -8323, -7825, -8130, 2002, -1136, 61, 826, -384, 436, 186, 257, 287, 149, 211, 331, 377, 158
225130525, 8476, -8323, -7825, -8130, 2002, -1136, 61, 826, -384, 436, 186, 257, 287, 149, 211, 331, 377, 158
225131314, 8476, -8323, -7825, -8130, 2002, -1136, 61, 826, -384, 436, 186, 257, 287, 149, 211, 331, 377, 158
225136412, 8476, -8323, -7825, -8130, 2002, -1136, 61, 826, -384, 436, 186, 257, 287, 149, 211, 331, 377, 158
225137344, 8615, -8279, -7924, -7931, 2354, -728, -171, 1347, -233, 245, 186, 257, 287, 149, 211, 331, 377, 158
225138139, 8615, -8279, -7924, -7931, 2354, -728, -171, 1347, -233, 245, 192, 262, 224, 149, 211, 351, 592, 159
225138978, 8615, -8279, -7924, -7931, 2354, -728, -171, 1347, -233, 245, 192, 262, 224, 149, 211, 351, 592, 159
225143974, 8615, -8279, -7924, -7931, 2354, -728, -171, 1347, -233, 245, 192, 262, 224, 149, 211, 351, 592, 159
225144861, 8615, -8279, -7924, -7931, 2354, -728, -171, 1347, -233, 245, 192, 262, 224, 149, 211, 351, 592, 159
225145546, 8615, -8279, -7924, -7931, 2354, -728, -171, 1347, -233, 245, 192, 262, 224, 149, 211, 351, 592, 159
225146389, 8615, -8279, -7924, -7931, 2354, -728, -171, 1347, -233, 245, 192, 262, 224, 149, 211, 351, 592, 159
225151368, 8615, -8279, -7924, -7931, 2354, -728, -171, 1347, -233, 245, 192, 262, 224, 149, 211, 351, 592, 159
225152164, 8615, -8279, -7924, -7931, 2354, -728, -171, 1347, -233, 245, 192, 262, 224, 149, 211, 351, 592, 159
225152961, 8615, -8279, -7924, -7931, 2354, -728, -171, 1347, -233, 245, 192, 262, 224, 149, 211, 351, 592, 159
225153837, 8615, -8279, -7924, -7931, 2354, -728, -171, 1347, -233, 245, 192, 262, 224, 149, 211, 351, 592, 159
225158886, 8615, -8279, -7924, -7931, 2354, -728, -171, 1347, -233, 245, 192, 262, 224, 149, 211, 351, 592, 159
225159841, 8681, -8224, -8006, -7833, 2235, -478, -123, 846, -97, -96, 192, 262, 224, 149, 211, 351, 592, 159
225160645, 8681, -8224, -8006, -7833, 2235, -478, -123, 846, -97, -96, 230, 290, 213, 153, 190, 341, 652, 219
225161414, 8681, -8224, -8006, -7833, 2235, -478, -123, 846, -97, -96, 230, 290, 213, 153, 190, 341, 652, 219
225166480, 8681, -8224, -8006, -7833, 2235, -478, -123, 846, -97, -96, 230, 290, 213, 153, 190, 341, 652, 219
225167239, 8681, -8224, -8006, -7833, 2235, -478, -123, 846, -97, -96, 230, 290, 213, 153, 190, 341, 652, 219
225168104, 8681, -8224, -8006, -7833, 2235, -478, -123, 846, -97, -96, 230, 290, 213, 153, 190, 341, 652, 219
225168866, 8681, -8224, -8006, -7833, 2235, -478, -123, 846, -97, -96, 230, 290, 213, 153, 190, 341, 652, 219
225173837, 8681, -8224, -8006, -7833, 2235, -478, -123, 846, -97, -96, 230, 290, 213, 153, 190, 341, 652, 219
225174642, 8681, -8224, -8006, -7833, 2235, -478, -123, 846, -97, -96, 230, 290, 213, 153, 190, 341, 652, 219
225175479, 8681, -8224, -8006, -7833, 2235, -478, -123, 846, -97, -96, 230, 290, 213, 153, 190, 341, 652, 219
225176264, 8681, -8224, -8006, -7833, 2235, -478, -123, 846, -97, -96, 230, 290, 213, 153, 190, 341, 652, 219
225181347, 8681, -8224, -8006, -7833, 2235, -478, -123, 846, -97, -96, 230, 290, 213, 153, 190, 341, 652, 219
225182307, 8688, -8231, -8043, -7779, 2186, -295, -104, 248, -188, 11, 230, 290, 213, 153, 190, 341, 652, 219
225183090, 8688, -8231, -8043, -7779, 2186, -295, -104, 248, -188, 11, 242, 302, 194, 145, 166, 391, 762, 252
225183887, 8688, -8231, -8043, -7779, 2186, -295, -104, 248, -188, 11, 242, 302, 194, 145, 166, 391, 762, 252
225188912, 8688, -8231, -8043, -7779, 2186, -295, -104, 248, -188, 11, 242, 302, 194, 145, 166, 391, 762, 252
225189746, 8688, -8231, -8043, -7779, 2186, -295, -104, 248, -188, 11, 242, 302, 194, 145, 166, 391, 762, 252
225190544, 8688, -8231, -8043, -7779, 2186, -295, -104, 248, -188, 11, 242, 302, 194, 145, 166, 391, 762, 252
225191379, 8688, -8231, -8043, -7779, 2186, -295, -104, 248, -188, 11, 242, 302, 194, 145, 166, 391, 762, 252
225196364, 8688, -8231, -8043, -7779, 2186, -295, -104, 248, -188, 11, 242, 302, 194, 145, 166, 391, 762, 252
225197193, 8688, -8231, -8043, -7779, 2186, -295, -104, 248, -188, 11, 242, 302, 194, 145, 166, 391, 762, 252
225198064, 8688, -8231, -8043, -7779, 2186, -295, -104, 248, -188, 11, 242, 302, 194, 145, 166, 391, 762, 252
225198845, 8688, -8231, -8043, -7779, 2186, -295, -104, 248, -188, 11, 242, 302, 194, 145, 166, 391, 762, 252
225203870, 8688, -8231, -8043, -7779, 2186, -295, -104, 248, -188, 11, 242, 302, 194, 145, 166, 391, 762, 252
225204881, 8660, -8309, -8024, -7748, 2271, -535, -244, -262, -174, 85, 242, 302, 194, 145, 166, 391, 762, 252
225205641, 8660, -8309, -8024, -7748, 2271, -535, -244, -262, -174, 85, 248, 300, 210, 143, 161, 403, 795, 258
225206468, 8660, -8309, -8024, -7748, 2271, -535, -244, -262, -174, 85, 248, 300, 210, 143, 161, 403, 795, 258
225211447, 8660, -8309, -8024, -7748, 2271, -535, -244, -262, -174, 85, 248, 300, 210, 143, 161, 403, 795, 258
225212287, 8660, -8309, -8024, -7748, 2271, -535, -244, -262, -174, 85, 248, 300, 210, 143, 161, 403, 795, 258
225213064, 8660, -8309, -8024, -7748, 2271, -535, -244, -262, -174, 85, 248, 300, 210, 143, 161, 403, 795, 258
225213929, 8660, -8309, -8024, -7748, 2271, -535, -244, -262, -174, 85, 248, 300, 210, 143, 161, 403, 795, 258
225218836, 8660, -8309, -8024, -7748, 2271, -535, -244, -262, -174, 85, 248, 300, 210, 143, 161, 403, 795, 258
225219615, 8660, -8309, -8024, -7748, 2271, -535, -244, -262, -174, 85, 248, 300, 210, 143, 161, 403, 795, 258
225220437, 8660, -8309, -8024, -7748, 2271, -535, -244, -262, -174, 85, 248, 300, 210, 143, 161, 403, 795, 258
225221257, 8660, -8309, -8024, -7748, 2271, -535, -244, -262, -174, 85, 248, 300, 210, 143, 161, 403, 795, 258
225226383, 8660, -8309, -8024, -7748, 2271, -535, -244, -262, -174, 85, 248, 300, 210, 143, 161, 403, 795, 258
225227332, 8616, -8401, -7969, -7754, 2304, -796, -211, -553, -70, -64, 248, 300, 210, 143, 161, 403, 795, 258
225228111, 8616, -8401, -7969, -7754, 2304, -796, -211, -553, -70, -64, 225, 272, 199, 128, 137, 387, 730, 241
225228937, 8616, -8401, -7969, -7754, 2304, -796, -211, -553, -70, -64, 225, 272, 199, 128, 137, 387, 730, 241
225233914, 8616, -8401, -7969, -7754, 2304, -796, -211, -553, -70, -64, 225, 272, 199, 128, 137, 387, 730, 241
225234764, 8616, -8401, -7969, -7754, 2304, -796, -211, -553, -70, -64, 225, 272, 199, 128, 137, 387, 730, 241
225235539, 8616, -8401, -7969, -7754, 2304, -796, -211, -553, -70, -64, 225, 272, 199, 128, 137, 387, 730, 241
225236356, 8616, -8401, -7969, -7754, 2304, -796, -211, -553, -70, -64, 225, 272, 199, 128, 137, 387, 730, 241
225241328, 8616, -8401, -7969, -7754, 2304, -796, -211, -553, -70, -64, 225, 272, 199, 128, 137, 387, 730, 241
225242099, 8616, -8401, -7969, -7754, 2304, -796, -211, -553, -70, -64, 225, 272, 199, 128, 137, 387, 730, 241
225242930, 8616, -8401, -7969, -7754, 2304, -796, -211, -553, -70, -64, 225, 272, 199, 128, 137, 387, 730, 241
225243812, 8616, -8401, -7969, -7754, 2304, -796, -211, -553, -70, -64, 225, 272, 199, 128, 137, 387, 730, 241
225248914, 8616, -8401, -7969, -7754, 2304, -796, -211, -553, -70, -64, 225, 272, 199, 128, 137, 387, 730, 241
225249842, 8611, -8467, -7908, -7752, 2345, -998, -273, -349, 135, -91, 225, 272, 199, 128, 137, 387, 730, 241
225250677, 8611, -8467, -7908, -7752, 2345, -998, -273, -349, 135, -91, 200, 203, 148, 96, 139, 334, 602, 229
225251441, 8611, -8467, -7908, -7752, 2345, -998, -273, -349, 135, -91, 200, 203, 148, 96, 139, 334, 602, 229
225256468, 8611, -8467, -7908, -7752, 2345, -998, -273, -349, 135, -91, 200, 203, 148, 96, 139, 334, 602, 229
225257266, 8611, -8467, -7908, -7752, 2345, -998, -273, -349, 135, -91, 200, 203, 148, 96, 139, 334, 602, 229
225258082, 8611, -8467, -7908, -7752, 2345, -998, -273, -349, 135, -91, 200, 203, 148, 96, 139, 334, 602, 229
225258973, 8611, -8467, -7908, -7752, 2345, -998, -273, -349, 135, -91, 200, 203, 148, 96, 139, 334, 602, 229
225263901, 8611, -8467, -7908, -7752, 2345, -998, -273, -349, 135, -91, 200, 203, 148, 96, 139, 334, 602, 229
225264693, 8611, -8467, -7908, -7752, 2345, -998, -273, -349, 135, -91, 200, 203, 148, 96, 139, 334, 602, 229
225265490, 8611, -8467, -7908, -7752, 2345, -998, -273, -349, 135, -91, 200, 203, 148, 96, 139, 334, 602, 229
225266319, 8611, -8467, -7908, -7752, 2345, -998, -273, -349, 135, -91, 200, 203, 148, 96, 139, 334, 602, 229
225271368, 8611, -8467, -7908, -7752, 2345, -998, -273, -349, 135, -91, 200, 203, 148, 96, 139, 334, 602, 229
225272297, 8652, -8495, -7870, -7714, 2388, -967, -78, 38, 80, -3, 200, 203, 148, 96, 139, 334, 602, 229
225273141, 8652, -8495, -7870, -7714, 2388, -967, -78, 38, 80, -3, 158, 176, 219, 128, 192, 325, 540, 168
225273940, 8652, -8495, -7870, -7714, 2388, -967, -78, 38, 80, -3, 200, 203, 148, 96, 139, 334, 602, 229
225278980, 8652, -8495, -7870, -7714, 2388, -967, -78, 38, 80, -3, 158, 176, 219, 128, 192, 325, 540, 168
225279764, 8652, -8495, -7870, -7714, 2388, -967, -78, 38, 80, -3, 158, 176, 219, 128, 192, 325, 540, 168
225280604, 8652, -8495, -7870, -7714, 2388, -967, -78, 38, 80, -3, 158, 176, 219, 128, 192, 325, 540, 168
225281389, 8652, -8495, -7870, -7714, 2388, -967, -78, 38, 80, -3, 158, 176, 219, 128, 192, 325, 540, 168
225286372, 8652, -8495, -7870, -7714, 2388, -967, -78, 38, 80, -3, 158, 176, 219, 128, 192, 325, 540, 168
225287142, 8652, -8495, -7870, -7714, 2388, -967, -78, 38, 80, -3, 158, 176, 219, 128, 192, 325, 540, 168
225287980, 8652, -8495, -7870, -7714, 2388, -967, -78, 38, 80, -3, 158, 176, 219, 128, 192, 325, 540, 168
225288836, 8652, -8495, -7870, -7714, 2388, -967, -78, 38, 80, -3, 158, 176, 219, 128, 192, 325, 540, 168
225293832, 8652, -8495, -7870, -7714, 2388, -967, -78, 38, 80, -3, 158, 176, 219, 128, 192, 325, 540, 168
225294837, 8742, -8496, -7882, -7597, 2333, -858, 137, 599, -212, 216, 158, 176, 219, 128, 192, 325, 540, 168
225295544, 8742, -8496, -7882, -7597, 2333, -858, 137, 599, -212, 216, 262, 247, 321, 169, 210, 260, 368, 192
225296427, 8742, -8496, -7882, -7597, 2333, -858, 137, 599, -212, 216, 262, 247, 321, 169, 210, 260, 368, 192
225301414, 8742, -8496, -7882, -7597, 2333, -858, 137, 599, -212, 216, 262, 247, 321, 169, 210, 260, 368, 192
225302264, 8742, -8496, -7882, -7597, 2333, -858, 137, 599, -212, 216, 262, 247, 321, 169, 210, 260, 368, 192
225303039, 8742, -8496, -7882, -7597, 2333, -858, 137, 599, -212, 216, 262, 247, 321, 169, 210, 260, 368, 192
225303891, 8742, -8496, -7882, -7597, 2333, -858, 137, 599, -212, 216, 262, 247, 321, 169, 210, 260, 368, 192
225308841, 8742, -8496, -7882, -7597, 2333, -858, 137, 599, -212, 216, 262, 247, 321, 169, 210, 260, 368, 192
225309615, 8742, -8496, -7882, -7597, 2333, -858, 137, 599, -212, 216, 262, 247, 321, 169, 210, 260, 368, 192
225310418, 8742, -8496, -7882, -7597, 2333, -858, 137, 599, -212, 216, 262, 247, 321, 169, 210, 260, 368, 192
225311214, 8742, -8496, -7882, -7597, 2333, -858, 137, 599, -212, 216, 262, 247, 321, 169, 210, 260, 368, 192
225316338, 8742, -8496, -7882, -7597, 2333, -858, 137, 599, -212, 216, 262, 247, 321, 169, 210, 260, 368, 192
225317302, 8806, -8491, -7923, -7486, 2361, -521, -50, 608, -233, 231, 262, 247, 321, 169, 210, 260, 368, 192
225318139, 8806, -8491, -7923, -7486, 2361, -521, -50, 608, -233, 231, 282, 298, 338, 179, 219, 334, 279, 213
225318979, 8806, -8491, -7923, -7486, 2361, -521, -50, 608, -233, 231, 282, 298, 338, 179, 219, 334, 279, 213
225323939, 8806, -8491, -7923, -7486, 2361, -521, -50, 608, -233, 231, 282, 298, 338, 179, 219, 334, 279, 213
225324879, 8806, -8491, -7923, -7486, 2361, -521, -50, 608, -233, 231, 282, 298, 338, 179, 219, 334, 279, 213
225325517, 8806, -8491, -7923, -7486, 2361, -521, -50, 608, -233, 231, 282, 298, 338, 179, 219, 334, 279, 213
225326429, 8806, -8491, -7923, -7486, 2361, -521, -50, 608, -233, 231, 282, 298, 338, 179, 219, 334, 279, 213
225331339, 8806, -8491, -7923, -7486, 2361, -521, -50, 608, -233, 231, 282, 298, 338, 179, 219, 334, 279, 213
225332205, 8806, -8491, -7923, -7486, 2361, -521, -50, 608, -233, 231, 282, 298, 338, 179, 219, 334, 279, 213
225332965, 8806, -8491, -7923, -7486, 2361, -521, -50, 608, -233, 231, 282, 298, 338, 179, 219, 334, 279, 213
225333830, 8806, -8491, -7923, -7486, 2361, -521, -50, 608, -233, 231, 282, 298, 338, 179, 219, 334, 279, 213
225338863, 8806, -8491, -7923, -7486, 2361, -521, -50, 608, -233, 231, 282, 298, 338, 179, 219, 334, 279, 213
225339915, 8831, -8500, -7954, -7412, 2441, -220, -398, 347, -62, 261, 282, 298, 338, 179, 219, 334, 279, 213
225340596, 8831, -8500, -7954, -7412, 2441, -220, -398, 347, -62, 261, 329, 371, 438, 213, 225, 405, 275, 271
225341454, 8831, -8500, -7954, -7412, 2441, -220, -398, 347, -62, 261, 329, 371, 438, 213, 225, 405, 275, 271
225346414, 8831, -8500, -7954, -7412, 2441, -220, -398, 347, -62, 261, 329, 371, 438, 213, 225, 405, 275, 271
225347252, 8831, -8500, -7954, -7412, 2441, -220, -398, 347, -62, 261, 329, 371, 438, 213, 225, 405, 275, 271
225348063, 8831, -8500, -7954, -7412, 2441, -220, -398, 347, -62, 261, 329, 371, 438, 213, 225, 405, 275, 271
225348861, 8831, -8500, -7954, -7412, 2441, -220, -398, 347, -62, 261, 329, 371, 438, 213, 225, 405, 275, 271
225353839, 8831, -8500, -7954, -7412, 2441, -220, -398, 347, -62, 261, 329, 371, 438, 213, 225, 405, 275, 271
225354684, 8831, -8500, -7954, -7412, 2441, -220, -398, 347, -62, 261, 329, 371, 438, 213, 225, 405, 275, 271
225355460, 8831, -8500, -7954, -7412, 2441, -220, -398, 347, -62, 261, 329, 371, 438, 213, 225, 405, 275, 271
225356264, 8831, -8500, -7954, -7412, 2441, -220, -398, 347, -62, 261, 329, 371, 438, 213, 225, 405, 275, 271
225361379, 8831, -8500, -7954, -7412, 2441, -220, -398, 347, -62, 261, 329, 371, 438, 213, 225, 405, 275, 271
225362288, 8853, -8531, -7949, -7356, 2268, -799, -112, 109, -121, 43, 329, 371, 438, 213, 225, 405, 275, 271
225363111, 8853, -8531, -7949, -7356, 2268, -799, -112, 109, -121, 43, 327, 397, 501, 234, 202, 403, 195, 285
225363889, 8853, -8531, -7949, -7356, 2268, -799, -112, 109, -121, 43, 327, 397, 501, 234, 202, 403, 195, 285
225368931, 8853, -8531, -7949, -7356, 2268, -799, -112, 109, -121, 43, 327, 397, 501, 234, 202, 403, 195, 285
225369717, 8853, -8531, -7949, -7356, 2268, -799, -112, 109, -121, 43, 327, 397, 501, 234, 202, 403, 195, 285
225370547, 8853, -8531, -7949, -7356, 2268, -799, -112, 109, -121, 43, 327, 397, 501, 234, 202, 403, 195, 285
225371339, 8853, -8531, -7949, -7356, 2268, -799, -112, 109, -121, 43, 327, 397, 501, 234, 202, 403, 195, 285
225376390, 8853, -8531, -7949, -7356, 2268, -799, -112, 109, -121, 43, 327, 397, 501, 234, 202, 403, 195, 285
225377164, 8853, -8531, -7949, -7356, 2268, -799, -112, 109, -121, 43, 327, 397, 501, 234, 202, 403, 195, 285
225377980, 8853, -8531, -7949, -7356, 2268, -799, -112, 109, -121, 43, 327, 397, 501, 234, 202, 403, 195, 285
225378814, 8853, -8531, -7949, -7356, 2268, -799, -112, 109, -121, 43, 327, 397, 501, 234, 202, 403, 195, 285
225383860, 8853, -8531, -7949, -7356, 2268, -799, -112, 109, -121, 43, 327, 397, 501, 234, 202, 403, 195, 285
225384831, 8862, -8599, -7899, -7320, 2236, -982, -198, -198, -14, 93, 327, 397, 501, 234, 202, 403, 195, 285
225385683, 8862, -8599, -7899, -7320, 2236, -982, -198, -198, -14, 93, 322, 386, 476, 213, 143, 379, 169, 287
225386422, 8862, -8599, -7899, -7320, 2236, -982, -198, -198, -14, 93, 322, 386, 476, 213, 143, 379, 169, 287
225391468, 8862, -8599, -7899, -7320, 2236, -982, -198, -198, -14, 93, 322, 386, 476, 213, 143, 379, 169, 287
225392271, 8862, -8599, -7899, -7320, 2236, -982, -198, -198, -14, 93, 322, 386, 476, 213, 143, 379, 169, 287
225393100, 8862, -8599, -7899, -7320, 2236, -982, -198, -198, -14, 93, 322, 386, 476, 213, 143, 379, 169, 287
225393892, 8862, -8599, -7899, -7320, 2236, -982, -198, -198, -14, 93, 322, 386, 476, 213, 143, 379, 169, 287
225398849, 8862, -8599, -7899, -7320, 2236, -982, -198, -198, -14, 93, 322, 386, 476, 213, 143, 379, 169, 287
225399644, 8862, -8599, -7899, -7320, 2236, -982, -198, -198, -14, 93, 322, 386, 476, 213, 143, 379, 169, 287
225400467, 8862, -8599, -7899, -7320, 2236, -982, -198, -198, -14, 93, 322, 386, 476, 213, 143, 379, 169, 287
225401262, 8862, -8599, -7899, -7320, 2236, -982, -198, -198, -14, 93, 322, 386, 476, 213, 143, 379, 169, 287
225406367, 8862, -8599, -7899, -7320, 2236, -982, -198, -198, -14, 93, 322, 386, 476, 213, 143, 379, 169, 287
225407291, 8894, -8629, -7872, -7275, 1899, -580, 152, 36, -138, 215, 322, 386, 476, 213, 143, 379, 169, 287
225408117, 8894, -8629, -7872, -7275, 1899, -580, 152, 36, -138, 215, 293, 379, 431, 197, 115, 378, 243, 244
225408914, 8894, -8629, -7872, -7275, 1899, -580, 152, 36, -138, 215, 293, 379, 431, 197, 115, 378, 243, 244
225413924, 8894, -8629, -7872, -7275, 1899, -580, 152, 36, -138, 215, 293, 379, 431, 197, 115, 378, 243, 244
225414722, 8894, -8629, -7872, -7275, 1899, -580, 152, 36, -138, 215, 293, 379, 431, 197, 115, 378, 243, 244
225415514, 8894, -8629, -7872, -7275, 1899, -580, 152, 36, -138, 215, 293, 379, 431, 197, 115, 378, 243, 244
225416349, 8894, -8629, -7872, -7275, 1899, -580, 152, 36, -138, 215, 293, 379, 431, 197, 115, 378, 243, 244
225421317, 8894, -8629, -7872, -7275, 1899, -580, 152, 36, -138, 215, 293, 379, 431, 197, 115, 378, 243, 244
225422141, 8894, -8629, -7872, -7275, 1899, -580, 152, 36, -138, 215, 293, 379, 431, 197, 115, 378, 243, 244
225422942, 8894, -8629, -7872, -7275, 1899, -580, 152, 36, -138, 215, 293, 379, 431, 197, 115, 378, 243, 244
225423830, 8894, -8629, -7872, -7275, 1899, -580, 152, 36, -138, 215, 293, 379, 431, 197, 115, 378, 243, 244
225428814, 8894, -8629, -7872, -7275, 1899, -580, 152, 36, -138, 215, 293, 379, 431, 197, 115, 378, 243, 244
225429815, 8907, -8660, -7870, -7223, 2322, -549, -136, 86, -136, 174, 293, 379, 431, 197, 115, 378, 243, 244
225430493, 8907, -8660, -7870, -7223, 2322, -549, -136, 86, -136, 174, 330, 446, 443, 234, 130, 307, 396, 222
225431370, 8907, -8660, -7870, -7223, 2322, -549, -136, 86, -136, 174, 330, 446, 443, 234, 130, 307, 396, 222
225436468, 8907, -8660, -7870, -7223, 2322, -549, -136, 86, -136, 174, 330, 446, 443, 234, 130, 307, 396, 222
225437240, 8907, -8660, -7870, -7223, 2322, -549, -136, 86, -136, 174, 330, 446, 443, 234, 130, 307, 396, 222
225438063, 8907, -8660, -7870, -7223, 2322, -549, -136, 86, -136, 174, 330, 446, 443, 234, 130, 307, 396, 222
225438863, 8907, -8660, -7870, -7223, 2322, -549, -136, 86, -136, 174, 330, 446, 443, 234, 130, 307, 396, 222
225443832, 8907, -8660, -7870, -7223, 2322, -549, -136, 86, -136, 174, 330, 446, 443, 234, 130, 307, 396, 222
225444663, 8907, -8660, -7870, -7223, 2322, -549, -136, 86, -136, 174, 330, 446, 443, 234, 130, 307, 396, 222
225445488, 8907, -8660, -7870, -7223, 2322, -549, -136, 86, -136, 174, 330, 446, 443, 234, 130, 307, 396, 222
225446315, 8907, -8660, -7870, -7223, 2322, -549, -136, 86, -136, 174, 330, 446, 443, 234, 130, 307, 396, 222
225451363, 8907, -8660, -7870, -7223, 2322, -549, -136, 86, -136, 174, 330, 446, 443, 234, 130, 307, 396, 222
225452331, 8876, -8718, -7848, -7216, 2355, -618, -24, -309, -206, 27, 330, 446, 443, 234, 130, 307, 396, 222
225453114, 8876, -8718, -7848, -7216, 2355, -618, -24, -309, -206, 27, 323, 421, 361, 220, 144, 221, 419, 157
225453943, 8876, -8718, -7848, -7216, 2355, -618, -24, -309, -206, 27, 323, 421, 361, 220, 144, 221, 419, 157
225458939, 8876, -8718, -7848, -7216, 2355, -618, -24, -309, -206, 27, 323, 421, 361, 220, 144, 221, 419, 157
225459782, 8876, -8718, -7848, -7216, 2355, -618, -24, -309, -206, 27, 323, 421, 361, 220, 144, 221, 419, 157
225460586, 8876, -8718, -7848, -7216, 2355, -618, -24, -309, -206, 27, 323, 421, 361, 220, 144, 221, 419, 157
225461393, 8876, -8718, -7848, -7216, 2355, -618, -24, -309, -206, 27, 323, 421, 361, 220, 144, 221, 419, 157
225466314, 8876, -8718, -7848, -7216, 2355, -618, -24, -309, -206, 27, 323, 421, 361, 220, 144, 221, 419, 157
225467178, 8876, -8718, -7848, -7216, 2355, -618, -24, -309, -206, 27, 323, 421, 361, 220, 144, 221, 419, 157
225467964, 8876, -8718, -7848, -7216, 2355, -618, -24, -309, -206, 27, 323, 421, 361, 220, 144, 221, 419, 157
225468866, 8876, -8718, -7848, -7216, 2355, -618, -24, -309, -206, 27, 323, 421, 361, 220, 144, 221, 419, 157
225473838, 8876, -8718, -7848, -7216, 2355, -618, -24, -309, -206, 27, 323, 421, 361, 220, 144, 221, 419, 157
225474838, 8813, -8792, -7811, -7244, 2326, -553, -192, -573, -87, -35, 323, 421, 361, 220, 144, 221, 419, 157
225475517, 8813, -8792, -7811, -7244, 2326, -553, -192, -573, -87, -35, 332, 405, 268, 192, 158, 235, 413, 125
225476453, 8813, -8792, -7811, -7244, 2326, -553, -192, -573, -87, -35, 332, 405, 268, 192, 158, 235, 413, 125
225481414, 8813, -8792, -7811, -7244, 2326, -553, -192, -573, -87, -35, 332, 405, 268, 192, 158, 235, 413, 125
225482243, 8813, -8792, -7811, -7244, 2326, -553, -192, -573, -87, -35, 332, 405, 268, 192, 158, 235, 413, 125
225483062, 8813, -8792, -7811, -7244, 2326, -553, -192, -573, -87, -35, 332, 405, 268, 192, 158, 235, 413, 125
225483893, 8813, -8792, -7811, -7244, 2326, -553, -192, -573, -87, -35, 332, 405, 268, 192, 158, 235, 413, 125
225488833, 8813, -8792, -7811, -7244, 2326, -553, -192, -573, -87, -35, 332, 405, 268, 192, 158, 235, 413, 125
225489627, 8813, -8792, -7811, -7244, 2326, -553, -192, -573, -87, -35, 332, 405, 268, 192, 158, 235, 413, 125
225490439, 8813, -8792, -7811, -7244, 2326, -553, -192, -573, -87, -35, 332, 405, 268, 192, 158, 235, 413, 125
225491281, 8813, -8792, -7811, -7244, 2326, -553, -192, -573, -87, -35, 332, 405, 268, 192, 158, 235, 413, 125
225496364, 8813, -8792, -7811, -7244, 2326, -553, -192, -573, -87, -35, 332, 405, 268, 192, 158, 235, 413, 125
225497356, 8745, -8895, -7739, -7278, 2169, -799, -276, -773, -18, -22, 332, 405, 268, 192, 158, 235, 413, 125
225498114, 8745, -8895, -7739, -7278, 2169, -799, -276, -773, -18, -22, 340, 408, 291, 204, 162, 266, 428, 115
225498938, 8745, -8895, -7739, -7278, 2169, -799, -276, -773, -18, -22, 340, 408, 291, 204, 162, 266, 428, 115
225503935, 8745, -8895, -7739, -7278, 2169, -799, -276, -773, -18, -22, 340, 408, 291, 204, 162, 266, 428, 115
225504877, 8745, -8895, -7739, -7278, 2169, -799, -276, -773, -18, -22, 340, 408, 291, 204, 162, 266, 428, 115
225505518, 8745, -8895, -7739, -7278, 2169, -799, -276, -773, -18, -22, 340, 408, 291, 204, 162, 266, 428, 115
225506381, 8745, -8895, -7739, -7278, 2169, -799, -276, -773, -18, -22, 340, 408, 291, 204, 162, 266, 428, 115
225511338, 8745, -8895, -7739, -7278, 2169, -799, -276, -773, -18, -22, 340, 408, 291, 204, 162, 266, 428, 115
225512179, 8745, -8895, -7739, -7278, 2169, -799, -276, -773, -18, -22, 340, 408, 291, 204, 162, 266, 428, 115
225512964, 8745, -8895, -7739, -7278, 2169, -799, -276, -773, -18, -22, 340, 408, 291, 204, 162, 266, 428, 115
225513880, 8745, -8895, -7739, -7278, 2169, -799, -276, -773, -18, -22, 340, 408, 291, 204, 162, 266, 428, 115
225518862, 8745, -8895, -7739, -7278, 2169, -799, -276, -773, -18, -22, 340, 408, 291, 204, 162, 266, 428, 115
225519864, 8676, -9006, -7650, -7316, 2073, -874, -209, -865, -9, -9, 340, 408, 291, 204, 162, 266, 428, 115
225520594, 8676, -9006, -7650, -7316, 2073, -874, -209, -865, -9, -9, 297, 375, 274, 197, 190, 283, 477, 107
225521454, 8676, -9006, -7650, -7316, 2073, -874, -209, -865, -9, -9, 297, 375, 274, 197, 190, 283, 477, 107
225526414, 8676, -9006, -7650, -7316, 2073, -874, -209, -865, -9, -9, 297, 375, 274, 197, 190, 283, 477, 107
225527280, 8676, -9006, -7650, -7316, 2073, -874, -209, -865, -9, -9, 297, 375, 274, 197, 190, 283, 477, 107
225528044, 8676, -9006, -7650, -7316, 2073, -874, -209, -865, -9, -9, 297, 375, 274, 197, 190, 283, 477, 107
225528904, 8676, -9006, -7650, -7316, 2073, -874, -209, -865, -9, -9, 297, 375, 274, 197, 190, 283, 477, 107
225533839, 8676, -9006, -7650, -7316, 2073, -874, -209, -865, -9, -9, 297, 375, 274, 197, 190, 283, 477, 107
225534657, 8676, -9006, -7650, -7316, 2073, -874, -209, -865, -9, -9, 297, 375, 274, 197, 190, 283, 477, 107
225535446, 8676, -9006, -7650, -7316, 2073, -874, -209, -865, -9, -9, 297, 375, 274, 197, 190, 283, 477, 107
225536303, 8676, -9006, -7650, -7316, 2073, -874, -209, -865, -9, -9, 297, 375, 274, 197, 190, 283, 477, 107
225541342, 8676, -9006, -7650, -7316, 2073, -874, -209, -865, -9, -9, 297, 375, 274, 197, 190, 283, 477, 107
225542276, 8649, -9110, -7572, -7301, 2037, -951, -244, -548, -69, 170, 297, 375, 274, 197, 190, 283, 477, 107
225543091, 8649, -9110, -7572, -7301, 2037, -951, -244, -548, -69, 170, 225, 239, 259, 157, 186, 264, 375, 125
225543897, 8649, -9110, -7572, -7301, 2037, -951, -244, -548, -69, 170, 225, 239, 259, 157, 186, 264, 375, 125
225548904, 8649, -9110, -7572, -7301, 2037, -951, -244, -548, -69, 170, 225, 239, 259, 157, 186, 264, 375, 125
225549693, 8649, -9110, -7572, -7301, 2037, -951, -244, -548, -69, 170, 225, 239, 259, 157, 186, 264, 375, 125
225550490, 8649, -9110, -7572, -7301, 2037, -951, -244, -548, -69, 170, 225, 239, 259, 157, 186, 264, 375, 125
225551306, 8649, -9110, -7572, -7301, 2037, -951, -244, -548, -69, 170, 225, 239, 259, 157, 186, 264, 375, 125
225556333, 8649, -9110, -7572, -7301, 2037, -951, -244, -548, -69, 170, 225, 239, 259, 157, 186, 264, 375, 125
225557155, 8649, -9110, -7572, -7301, 2037, -951, -244, -548, -69, 170, 225, 239, 259, 157, 186, 264, 375, 125
225557915, 8649, -9110, -7572, -7301, 2037, -951, -244, -548, -69, 170, 225, 239, 259, 157, 186, 264, 375, 125
225558768, 8649, -9110, -7572, -7301, 2037, -951, -244, -548, -69, 170, 225, 239, 259, 157, 186, 264, 375, 125
225563863, 8649, -9110, -7572, -7301, 2037, -951, -244, -548, -69, 170, 225, 239, 259, 157, 186, 264, 375, 125
225564840, 8645, -9205, -7505, -7257, 1941, -862, -128, -355, -173, 309, 225, 239, 259, 157, 186, 264, 375, 125
225565617, 8645, -9205, -7505, -7257, 1941, -862, -128, -355, -173, 309, 175, 174, 239, 141, 197, 246, 353, 114
225566461, 8645, -9205, -7505, -7257, 1941, -862, -128, -355, -173, 309, 175, 174, 239, 141, 197, 246, 353, 114
225571438, 8645, -9205, -7505, -7257, 1941, -862, -128, -355, -173, 309, 175, 174, 239, 141, 197, 246, 353, 114
225572290, 8645, -9205, -7505, -7257, 1941, -862, -128, -355, -173, 309, 175, 174, 239, 141, 197, 246, 353, 114
225573063, 8645, -9205, -7505, -7257, 1941, -862, -128, -355, -173, 309, 175, 174, 239, 141, 197, 246, 353, 114
225573887, 8645, -9205, -7505, -7257, 1941, -862, -128, -355, -173, 309, 175, 174, 239, 141, 197, 246, 353, 114
225578839, 8645, -9205, -7505, -7257, 1941, -862, -128, -355, -173, 309, 175, 174, 239, 141, 197, 246, 353, 114
225579683, 8645, -9205, -7505, -7257, 1941, -862, -128, -355, -173, 309, 175, 174, 239, 141, 197, 246, 353, 114
225580486, 8645, -9205, -7505, -7257, 1941, -862, -128, -355, -173, 309, 175, 174, 239, 141, 197, 246, 353, 114
225581304, 8645, -9205, -7505, -7257, 1941, -862, -128, -355, -173, 309, 175, 174, 239, 141, 197, 246, 353, 114
225586339, 8645, -9205, -7505, -7257, 1941, -862, -128, -355, -173, 309, 175, 174, 239, 141, 197, 246, 353, 114
225587331, 8642, -9304, -7453, -7188, 1960, -794, -150, -263, -300, 399, 175, 174, 239, 141, 197, 246, 353, 114
225588111, 8642, -9304, -7453, -7188, 1960, -794, -150, -263, -300, 399, 151, 151, 239, 155, 211, 227, 356, 110
225588941, 8642, -9304, -7453, -7188, 1960, -794, -150, -263, -300, 399, 151, 151, 239, 155, 211, 227, 356, 110
225593914, 8642, -9304, -7453, -7188, 1960, -794, -150, -263, -300, 399, 151, 151, 239, 155, 211, 227, 356, 110
225594741, 8642, -9304, -7453, -7188, 1960, -794, -150, -263, -300, 399, 151, 151, 239, 155, 211, 227, 356, 110
225595537, 8642, -9304, -7453, -7188, 1960, -794, -150, -263, -300, 399, 151, 151, 239, 155, 211, 227, 356, 110
225596392, 8642, -9304, -7453, -7188, 1960, -794, -150, -263, -300, 399, 151, 151, 239, 155, 211, 227, 356, 110
225601322, 8642, -9304, -7453, -7188, 1960, -794, -150, -263, -300, 399, 151, 151, 239, 155, 211, 227, 356, 110
225602122, 8642, -9304, -7453, -7188, 1960, -794, -150, -263, -300, 399, 151, 151, 239, 155, 211, 227, 356, 110
225602939, 8642, -9304, -7453, -7188, 1960, -794, -150, -263, -300, 399, 151, 151, 239, 155, 211, 227, 356, 110
225603782, 8642, -9304, -7453, -7188, 1960, -794, -150, -263, -300, 399, 151, 151, 239, 155, 211, 227, 356, 110
225608839, 8642, -9304, -7453, -7188, 1960, -794, -150, -263, -300, 399, 151, 151, 239, 155, 211, 227, 356, 110
225609858, 8620, -9439, -7384, -7108, 1901, -746, -145, -448, -432, 573, 151, 151, 239, 155, 211, 227, 356, 110
225610504, 8620, -9439, -7384, -7108, 1901, -746, -145, -448, -432, 573, 131, 130, 303, 203, 226, 178, 333, 109
225611364, 8620, -9439, -7384, -7108, 1901, -746, -145, -448, -432, 573, 131, 130, 303, 203, 226, 178, 333, 109
225616363, 8620, -9439, -7384, -7108, 1901, -746, -145, -448, -432, 573, 131, 130, 303, 203, 226, 178, 333, 109
225617200, 8620, -9439, -7384, -7108, 1901, -746, -145, -448, -432, 573, 131, 130, 303, 203, 226, 178, 333, 109
225618014, 8620, -9439, -7384, -7108, 1901, -746, -145, -448, -432, 573, 131, 130, 303, 203, 226, 178, 333, 109
225618835, 8620, -9439, -7384, -7108, 1901, -746, -145, -448, -432, 573, 131, 130, 303, 203, 226, 178, 333, 109
225623837, 8620, -9439, -7384, -7108, 1901, -746, -145, -448, -432, 573, 131, 130, 303, 203, 226, 178, 333, 109
225624694, 8620, -9439, -7384, -7108, 1901, -746, -145, -448, -432, 573, 131, 130, 303, 203, 226, 178, 333, 109
225625471, 8620, -9439, -7384, -7108, 1901, -746, -145, -448, -432, 573, 131, 130, 303, 203, 226, 178, 333, 109
225626288, 8620, -9439, -7384, -7108, 1901, -746, -145, -448, -432, 573, 131, 130, 303, 203, 226, 178, 333, 109
225631361, 8620, -9439, -7384, -7108, 1901, -746, -145, -448, -432, 573, 131, 130, 303, 203, 226, 178, 333, 109
225632331, 8573, -9600, -7308, -7028, 1743, -594, -39, -627, -602, 676, 131, 130, 303, 203, 226, 178, 333, 109
225633116, 8573, -9600, -7308, -7028, 1743, -594, -39, -627, -602, 676, 117, 103, 300, 208, 230, 116, 187, 101
225633916, 8573, -9600, -7308, -7028, 1743, -594, -39, -627, -602, 676, 117, 103, 300, 208, 230, 116, 187, 101
225638916, 8573, -9600, -7308, -7028, 1743, -594, -39, -627, -602, 676, 117, 103, 300, 208, 230, 116, 187, 101
225639740, 8573, -9600, -7308, -7028, 1743, -594, -39, -627, -602, 676, 117, 103, 300, 208, 230, 116, 187, 101
225640563, 8573, -9600, -7308, -7028, 1743, -594, -39, -627, -602, 676, 117, 103, 300, 208, 230, 116, 187, 101
225641404, 8573, -9600, -7308, -7028, 1743, -594, -39, -627, -602, 676, 117, 103, 300, 208, 230, 116, 187, 101
225646326, 8573, -9600, -7308, -7028, 1743, -594, -39, -627, -602, 676, 117, 103, 300, 208, 230, 116, 187, 101
225647179, 8573, -9600, -7308, -7028, 1743, -594, -39, -627, -602, 676, 117, 103, 300, 208, 230, 116, 187, 101
225647939, 8573, -9600, -7308, -7028, 1743, -594, -39, -627, -602, 676, 117, 103, 300, 208, 230, 116, 187, 101
225648866, 8573, -9600, -7308, -7028, 1743, -594, -39, -627, -602, 676, 117, 103, 300, 208, 230, 116, 187, 101
225653993, 8573, -9600, -7308, -7028, 1743, -594, -39, -627, -602, 676, 117, 103, 300, 208, 230, 116, 187, 101
225654869, 8485, -9811, -7195, -6958, 1718, -604, -233, -1006, -605, 803, 117, 103, 300, 208, 230, 116, 187, 101
225655542, 8485, -9811, -7195, -6958, 1718, -604, -233, -1006, -605, 803, 111, 85, 271, 203, 219, 106, 145, 68
225656406, 8485, -9811, -7195, -6958, 1718, -604, -233, -1006, -605, 803, 111, 85, 271, 203, 219, 106, 145, 68
225661414, 8485, -9811, -7195, -6958, 1718, -604, -233, -1006, -605, 803, 111, 85, 271, 203, 219, 106, 145, 68
225662241, 8485, -9811, -7195, -6958, 1718, -604, -233, -1006, -605, 803, 111, 85, 271, 203, 219, 106, 145, 68
225663039, 8485, -9811, -7195, -6958, 1718, -604, -233, -1006, -605, 803, 111, 85, 271, 203, 219, 106, 145, 68
225663837, 8485, -9811, -7195, -6958, 1718, -604, -233, -1006, -605, 803, 111, 85, 271, 203, 219, 106, 145, 68
225668883, 8485, -9811, -7195, -6958, 1718, -604, -233, -1006, -605, 803, 111, 85, 271, 203, 219, 106, 145, 68
225669618, 8485, -9811, -7195, -6958, 1718, -604, -233, -1006, -605, 803, 111, 85, 271, 203, 219, 106, 145, 68
225670479, 8485, -9811, -7195, -6958, 1718, -604, -233, -1006, -605, 803, 111, 85, 271, 203, 219, 106, 145, 68
225671240, 8485, -9811, -7195, -6958, 1718, -604, -233, -1006, -605, 803, 111, 85, 271, 203, 219, 106, 145, 68
225676390, 8485, -9811, -7195, -6958, 1718, -604, -233, -1006, -605, 803, 111, 85, 271, 203, 219, 106, 145, 68
225677316, 8332, -10083, -7032, -6922, 1776, -745, -301, -1602, -659, 923, 111, 85, 271, 203, 219, 106, 145, 68
225678155, 8332, -10083, -7032, -6922, 1776, -745, -301, -1602, -659, 923, 93, 99, 379, 250, 228, 106, 99, 53
225678940, 8332, -10083, -7032, -6922, 1776, -745, -301, -1602, -659, 923, 93, 99, 379, 250, 228, 106, 99, 53
225683937, 8332, -10083, -7032, -6922, 1776, -745, -301, -1602, -659, 923, 93, 99, 379, 250, 228, 106, 99, 53
225684839, 8332, -10083, -7032, -6922, 1776, -745, -301, -1602, -659, 923, 93, 99, 379, 250, 228, 106, 99, 53
225685558, 8332, -10083, -7032, -6922, 1776, -745, -301, -1602, -659, 923, 93, 99, 379, 250, 228, 106, 99, 53
225686389, 8332, -10083, -7032, -6922, 1776, -745, -301, -1602, -659, 923, 93, 99, 379, 250, 228, 106, 99, 53
225691368, 8332, -10083, -7032, -6922, 1776, -745, -301, -1602, -659, 923, 93, 99, 379, 250, 228, 106, 99, 53
225692139, 8332, -10083, -7032, -6922, 1776, -745, -301, -1602, -659, 923, 93, 99, 379, 250, 228, 106, 99, 53
225692990, 8332, -10083, -7032, -6922, 1776, -745, -301, -1602, -659, 923, 93, 99, 379, 250, 228, 106, 99, 53
225693839, 8332, -10083, -7032, -6922, 1776, -745, -301, -1602, -659, 923, 93, 99, 379, 250, 228, 106, 99, 53
225698838, 8332, -10083, -7032, -6922, 1776, -745, -301, -1602, -659, 923, 93, 99, 379, 250, 228, 106, 99, 53
225699867, 8171, -10375, -6858, -6857, 1855, -1016, -279, -1653, -811, 1046, 93, 99, 379, 250, 228, 106, 99, 53
225700593, 8171, -10375, -6858, -6857, 1855, -1016, -279, -1653, -811, 1046, 99, 103, 401, 262, 222, 104, 72, 50
225701443, 8171, -10375, -6858, -6857, 1855, -1016, -279, -1653, -811, 1046, 99, 103, 401, 262, 222, 104, 72, 50
225706414, 8171, -10375, -6858, -6857, 1855, -1016, -279, -1653, -811, 1046, 99, 103, 401, 262, 222, 104, 72, 50
225707257, 8171, -10375, -6858, -6857, 1855, -1016, -279, -1653, -811, 1046, 99, 103, 401, 262, 222, 104, 72, 50
225708040, 8171, -10375, -6858, -6857, 1855, -1016, -279, -1653, -811, 1046, 99, 103, 401, 262, 222, 104, 72, 50
225708893, 8171, -10375, -6858, -6857, 1855, -1016, -279, -1653, -811, 1046, 99, 103, 401, 262, 222, 104, 72, 50
225713842, 8171, -10375, -6858, -6857, 1855, -1016, -279, -1653, -811, 1046, 99, 103, 401, 262, 222, 104, 72, 50
225714656, 8171, -10375, -6858, -6857, 1855, -1016, -279, -1653, -811, 1046, 99, 103, 401, 262, 222, 104, 72, 50
225715439, 8171, -10375, -6858, -6857, 1855, -1016, -279, -1653, -811, 1046, 99, 103, 401, 262, 222, 104, 72, 50
225716248, 8171, -10375, -6858, -6857, 1855, -1016, -279, -1653, -811, 1046, 99, 103, 401, 262, 222, 104, 72, 50
225721323, 8171, -10375, -6858, -6857, 1855, -1016, -279, -1653, -811, 1046, 99, 103, 401, 262, 222, 104, 72, 50
225722267, 8067, -10662, -6664, -6730, 1900, -1248, -288, -1397, -869, 1148, 99, 103, 401, 262, 222, 104, 72, 50
225723086, 8067, -10662, -6664, -6730, 1900, -1248, -288, -1397, -869, 1148, 87, 93, 350, 235, 211, 104, 70, 45
225723857, 8067, -10662, -6664, -6730, 1900, -1248, -288, -1397, -869, 1148, 87, 93, 350, 235, 211, 104, 70, 45
225728888, 8067, -10662, -6664, -6730, 1900, -1248, -288, -1397, -869, 1148, 87, 93, 350, 235, 211, 104, 70, 45
225729742, 8067, -10662, -6664, -6730, 1900, -1248, -288, -1397, -869, 1148, 87, 93, 350, 235, 211, 104, 70, 45
225730522, 8067, -10662, -6664, -6730, 1900, -1248, -288, -1397, -869, 1148, 87, 93, 350, 235, 211, 104, 70, 45
225731349, 8067, -10662, -6664, -6730, 1900, -1248, -288, -1397, -869, 1148, 87, 93, 350, 235, 211, 104, 70, 45
225736291, 8067, -10662, -6664, -6730, 1900, -1248, -288, -1397, -869, 1148, 87, 93, 350, 235, 211, 104, 70, 45
225737115, 8067, -10662, -6664, -6730, 1900, -1248, -288, -1397, -869, 1148, 87, 93, 350, 235, 211, 104, 70, 45
225737954, 8067, -10662, -6664, -6730, 1900, -1248, -288, -1397, -869, 1148, 87, 93, 350, 235, 211, 104, 70, 45
225738744, 8067, -10662, -6664, -6730, 1900, -1248, -288, -1397, -869, 1148, 87, 93, 350, 235, 211, 104, 70, 45
225743880, 8067, -10662, -6664, -6730, 1900, -1248, -288, -1397, -869, 1148, 87, 93, 350, 235, 211, 104, 70, 45
225744834, 7987, -10936, -6472, -6570, 2043, -1249, -368, -1192, -915, 1320, 87, 93, 350, 235, 211, 104, 70, 45
225745618, 7987, -10936, -6472, -6570, 2043, -1249, -368, -1192, -915, 1320, 73, 97, 414, 245, 191, 100, 59, 43
225746439, 7987, -10936, -6472, -6570, 2043, -1249, -368, -1192, -915, 1320, 73, 97, 414, 245, 191, 100, 59, 43
225751470, 7987, -10936, -6472, -6570, 2043, -1249, -368, -1192, -915, 1320, 73, 97, 414, 245, 191, 100, 59, 43
225752239, 7987, -10936, -6472, -6570, 2043, -1249, -368, -1192, -915, 1320, 73, 97, 414, 245, 191, 100, 59, 43
225753073, 7987, -10936, -6472, -6570, 2043, -1249, -368, -1192, -915, 1320, 73, 97, 414, 245, 191, 100, 59, 43
225753927, 7987, -10936, -6472, -6570, 2043, -1249, -368, -1192, -915, 1320, 73, 97, 414, 245, 191, 100, 59, 43
225758840, 7987, -10936, -6472, -6570, 2043, -1249, -368, -1192, -915, 1320, 73, 97, 414, 245, 191, 100, 59, 43
225759670, 7987, -10936, -6472, -6570, 2043, -1249, -368, -1192, -915, 1320, 73, 97, 414, 245, 191, 100, 59, 43
225760464, 7987, -10936, -6472, -6570, 2043, -1249, -368, -1192, -915, 1320, 73, 97, 414, 245, 191, 100, 59, 43
225761306, 7987, -10936, -6472, -6570, 2043, -1249, -368, -1192, -915, 1320, 73, 97, 414, 245, 191, 100, 59, 43
225766370, 7987, -10936, -6472, -6570, 2043, -1249, -368, -1192, -915, 1320, 73, 97, 414, 245, 191, 100, 59, 43
225767294, 7947, -11193, -6291, -6359, 2226, -1179, -387, -860, -1048, 1592, 73, 97, 414, 245, 191, 100, 59, 43
225768088, 7947, -11193, -6291, -6359, 2226, -1179, -387, -860, -1048, 1592, 78, 119, 508, 275, 192, 99, 50, 39
225768912, 7947, -11193, -6291, -6359, 2226, -1179, -387, -860, -1048, 1592, 78, 119, 508, 275, 192, 99, 50, 39
225773922, 7947, -11193, -6291, -6359, 2226, -1179, -387, -860, -1048, 1592, 78, 119, 508, 275, 192, 99, 50, 39
225774754, 7947, -11193, -6291, -6359, 2226, -1179, -387, -860, -1048, 1592, 78, 119, 508, 275, 192, 99, 50, 39
225775545, 7947, -11193, -6291, -6359, 2226, -1179, -387, -860, -1048, 1592, 78, 119, 508, 275, 192, 99, 50, 39
225776356, 7947, -11193, -6291, -6359, 2226, -1179, -387, -860, -1048, 1592, 78, 119, 508, 275, 192, 99, 50, 39
225781312, 7947, -11193, -6291, -6359, 2226, -1179, -387, -860, -1048, 1592, 78, 119, 508, 275, 192, 99, 50, 39
225782143, 7947, -11193, -6291, -6359, 2226, -1179, -387, -860, -1048, 1592, 78, 119, 508, 275, 192, 99, 50, 39
225782941, 7947, -11193, -6291, -6359, 2226, -1179, -387, -860, -1048, 1592, 78, 119, 508, 275, 192, 99, 50, 39
225783752, 7947, -11193, -6291, -6359, 2226, -1179, -387, -860, -1048, 1592, 78, 119, 508, 275, 192, 99, 50, 39
225788949, 7947, -11193, -6291, -6359, 2226, -1179, -387, -860, -1048, 1592, 78, 119, 508, 275, 192, 99, 50, 39
225789735, 7948, -11432, -6113, -6101, 2290, -1214, -294, -503, -1070, 1873, 78, 119, 508, 275, 192, 99, 50, 39
225790540, 7948, -11432, -6113, -6101, 2290, -1214, -294, -503, -1070, 1873, 81, 103, 442, 236, 166, 104, 62, 39
225791364, 7948, -11432, -6113, -6101, 2290, -1214, -294, -503, -1070, 1873, 81, 103, 442, 236, 166, 104, 62, 39
225796363, 7948, -11432, -6113, -6101, 2290, -1214, -294, -503, -1070, 1873, 81, 103, 442, 236, 166, 104, 62, 39
225797188, 7948, -11432, -6113, -6101, 2290, -1214, -294, -503, -1070, 1873, 81, 103, 442, 236, 166, 104, 62, 39
225797989, 7948, -11432, -6113, -6101, 2290, -1214, -294, -503, -1070, 1873, 81, 103, 442, 236, 166, 104, 62, 39
225798835, 7948, -11432, -6113, -6101, 2290, -1214, -294, -503, -1070, 1873, 81, 103, 442, 236, 166, 104, 62, 39
