Timestamp, Orientation x, Orientation y, Orientation z, Orientation w, Acceleration x, Acceleration y, Acceleration z, Rotation x, Rotation y, Rotation z, EMG 0, EMG 1, EMG 2, EMG 3, EMG 4, EMG 5, EMG 6, EMG 7
185040146, 5739, -10738, -5480, -9497, 2552, -1279, -672, 55, -23, 46, 0, 0, 0, 0, 0, 0, 0, 0
185047655, 5798, -10798, -5435, -9419, 2541, -1232, -675, 70, -34, 61, 0, 0, 0, 0, 0, 0, 0, 0
185070095, 5853, -10856, -5392, -9341, 2571, -1210, -710, 69, -32, 77, 0, 0, 0, 0, 0, 0, 0, 0
185085122, 5902, -10914, -5343, -9271, 2599, -1229, -699, 12, -16, 70, 0, 0, 0, 0, 0, 0, 0, 0
185108865, 5945, -10971, -5291, -9206, 2633, -1240, -711, -26, -7, 66, 0, 0, 0, 0, 0, 0, 0, 0
185109676, 5945, -10971, -5291, -9206, 2633, -1240, -711, -26, -7, 66, 48, 41, 45, 29, 53, 81, 53, 49
185110509, 5945, -10971, -5291, -9206, 2633, -1240, -711, -26, -7, 66, 48, 41, 45, 29, 53, 81, 53, 49
185131417, 5977, -11028, -5244, -9144, 2673, -1206, -716, -54, -30, 41, 48, 41, 45, 29, 53, 81, 53, 49
185132214, 5977, -11028, -5244, -9144, 2673, -1206, -716, -54, -30, 41, 50, 47, 63, 51, 58, 131, 77, 53
185133055, 5977, -11028, -5244, -9144, 2673, -1206, -716, -54, -30, 41, 50, 47, 63, 51, 58, 131, 77, 53
185145109, 5997, -11094, -5194, -9080, 2727, -1185, -725, -118, -93, 74, 50, 47, 63, 51, 58, 131, 77, 53
185153165, 5997, -11094, -5194, -9080, 2727, -1185, -725, -118, -93, 74, 55, 59, 76, 86, 101, 159, 115, 233
185154015, 5997, -11094, -5194, -9080, 2727, -1185, -725, -118, -93, 74, 55, 59, 76, 86, 101, 159, 115, 233
185168867, 5989, -11178, -5132, -9017, 2769, -1062, -752, -297, -174, 143, 55, 59, 76, 86, 101, 159, 115, 233
185169716, 5989, -11178, -5132, -9017, 2769, -1062, -752, -297, -174, 143, 81, 81, 96, 117, 188, 193, 144, 258
185170495, 5989, -11178, -5132, -9017, 2769, -1062, -752, -297, -174, 143, 81, 81, 96, 117, 188, 193, 144, 258
185191867, 5962, -11274, -5045, -8964, 2885, -880, -813, -467, -150, 308, 81, 81, 96, 117, 188, 193, 144, 258
185192735, 5962, -11274, -5045, -8964, 2885, -880, -813, -467, -150, 308, 85, 87, 114, 150, 214, 205, 173, 273
185193520, 5962, -11274, -5045, -8964, 2885, -880, -813, -467, -150, 308, 85, 87, 114, 150, 214, 205, 173, 273
185205079, 5882, -11386, -4903, -8955, 2937, -777, -1002, -923, 82, 372, 85, 87, 114, 150, 214, 205, 173, 273
185213191, 5882, -11386, -4903, -8955, 2937, -777, -1002, -923, 82, 372, 139, 107, 125, 161, 225, 224, 179, 310
185213972, 5882, -11386, -4903, -8955, 2937, -777, -1002, -923, 82, 372, 139, 107, 125, 161, 225, 224, 179, 310
185228887, 5714, -11495, -4671, -9047, 2881, -975, -1234, -1729, 311, 321, 139, 107, 125, 161, 225, 224, 179, 310
185229727, 5714, -11495, -4671, -9047, 2881, -975, -1234, -1729, 311, 321, 156, 123, 144, 174, 229, 227, 183, 353
185230520, 5714, -11495, -4671, -9047, 2881, -975, -1234, -1729, 311, 321, 156, 123, 144, 174, 229, 227, 183, 353
185251420, 5404, -11648, -4306, -9222, 2740, -1530, -1186, -2926, 531, 240, 156, 123, 144, 174, 229, 227, 183, 353
185252252, 5404, -11648, -4306, -9222, 2740, -1530, -1186, -2926, 531, 240, 179, 189, 175, 175, 223, 218, 225, 396
185253039, 5404, -11648, -4306, -9222, 2740, -1530, -1186, -2926, 531, 240, 179, 189, 175, 175, 223, 218, 225, 396
185265048, 5124, -11803, -3876, -9374, 2364, -2187, -757, -3006, 541, 541, 179, 189, 175, 175, 223, 218, 225, 396
185273186, 5124, -11803, -3876, -9374, 2364, -2187, -757, -3006, 541, 541, 274, 239, 199, 165, 167, 195, 238, 610
185274056, 5124, -11803, -3876, -9374, 2364, -2187, -757, -3006, 541, 541, 274, 239, 199, 165, 167, 195, 238, 610
185288925, 5205, -11950, -3483, -9297, 2013, -2885, -396, -1286, 35, 881, 274, 239, 199, 165, 167, 195, 238, 610
185289742, 5205, -11950, -3483, -9297, 2013, -2885, -396, -1286, 35, 881, 336, 265, 209, 153, 137, 204, 238, 673
185290532, 5205, -11950, -3483, -9297, 2013, -2885, -396, -1286, 35, 881, 336, 265, 209, 153, 137, 204, 238, 673
185311409, 5461, -12029, -3321, -9106, 1865, -2838, -622, 459, -271, 688, 336, 265, 209, 153, 137, 204, 238, 673
185312189, 5461, -12029, -3321, -9106, 1865, -2838, -622, 459, -271, 688, 341, 310, 287, 170, 128, 181, 254, 684
185313031, 5461, -12029, -3321, -9106, 1865, -2838, -622, 459, -271, 688, 341, 310, 287, 170, 128, 181, 254, 684
185325043, 5690, -11977, -3497, -8967, 2089, -2047, -714, 1724, -429, 3, 341, 310, 287, 170, 128, 181, 254, 684
185333206, 5690, -11977, -3497, -8967, 2089, -2047, -714, 1724, -429, 3, 350, 325, 291, 162, 119, 150, 279, 747
185334014, 5690, -11977, -3497, -8967, 2089, -2047, -714, 1724, -429, 3, 350, 325, 291, 162, 119, 150, 279, 747
185348927, 5873, -11876, -3788, -8863, 2389, -1412, -818, 1961, -408, -641, 350, 325, 291, 162, 119, 150, 279, 747
185349722, 5873, -11876, -3788, -8863, 2389, -1412, -818, 1961, -408, -641, 341, 293, 275, 160, 102, 157, 240, 708
185350547, 5873, -11876, -3788, -8863, 2389, -1412, -818, 1961, -408, -641, 341, 293, 275, 160, 102, 157, 240, 708
185371389, 6081, -11735, -4115, -8766, 2629, -1262, -932, 2247, -285, -753, 341, 293, 275, 160, 102, 157, 240, 708
185372229, 6081, -11735, -4115, -8766, 2629, -1262, -932, 2247, -285, -753, 289, 253, 261, 156, 109, 175, 217, 580
185373015, 6081, -11735, -4115, -8766, 2629, -1262, -932, 2247, -285, -753, 289, 253, 261, 156, 109, 175, 217, 580
185385117, 6364, -11530, -4457, -8669, 2692, -1219, -758, 2724, -44, -671, 289, 253, 261, 156, 109, 175, 217, 580
185393151, 6364, -11530, -4457, -8669, 2692, -1219, -758, 2724, -44, -671, 237, 269, 284, 162, 123, 167, 199, 516
185393965, 6364, -11530, -4457, -8669, 2692, -1219, -758, 2724, -44, -671, 237, 269, 284, 162, 123, 167, 199, 516
185408898, 6855, -11210, -4882, -8483, 2502, -1598, -269, 4161, 46, -422, 237, 269, 284, 162, 123, 167, 199, 516
185409685, 6855, -11210, -4882, -8483, 2502, -1598, -269, 4161, 46, -422, 275, 230, 203, 135, 117, 172, 184, 505
185410513, 6855, -11210, -4882, -8483, 2502, -1598, -269, 4161, 46, -422, 275, 230, 203, 135, 117, 172, 184, 505
185431408, 7559, -10733, -5476, -8131, 2279, -2101, -515, 6130, -132, -391, 275, 230, 203, 135, 117, 172, 184, 505
185432189, 7559, -10733, -5476, -8131, 2279, -2101, -515, 6130, -132, -391, 266, 212, 185, 136, 120, 181, 140, 542
185433044, 7559, -10733, -5476, -8131, 2279, -2101, -515, 6130, -132, -391, 266, 212, 185, 136, 120, 181, 140, 542
185445067, 8238, -10115, -6139, -7784, 1832, 13, -1472, 6646, 176, -728, 266, 212, 185, 136, 120, 181, 140, 542
185453175, 8238, -10115, -6139, -7784, 1832, 13, -1472, 6646, 176, -728, 279, 225, 203, 141, 142, 178, 138, 598
185454001, 8238, -10115, -6139, -7784, 1832, 13, -1472, 6646, 176, -728, 279, 225, 203, 141, 142, 178, 138, 598
185468866, 8692, -9645, -6584, -7518, 1468, 2094, -595, 4662, 86, -241, 279, 225, 203, 141, 142, 178, 138, 598
185469713, 8692, -9645, -6584, -7518, 1468, 2094, -595, 4662, 86, -241, 307, 237, 197, 141, 130, 158, 141, 588
185470494, 8692, -9645, -6584, -7518, 1468, 2094, -595, 4662, 86, -241, 307, 237, 197, 141, 130, 158, 141, 588
185491417, 8666, -9465, -6854, -7535, 2717, 930, 284, 1070, -530, -573, 307, 237, 197, 141, 130, 158, 141, 588
185492214, 8666, -9465, -6854, -7535, 2717, 930, 284, 1070, -530, -573, 292, 203, 161, 129, 116, 136, 146, 627
185493042, 8666, -9465, -6854, -7535, 2717, 930, 284, 1070, -530, -573, 292, 203, 161, 129, 116, 136, 146, 627
185505100, 8411, -9464, -6953, -7733, 3340, -693, 20, -1046, -309, -1588, 292, 203, 161, 129, 116, 136, 146, 627
185513171, 8411, -9464, -6953, -7733, 3340, -693, 20, -1046, -309, -1588, 228, 196, 170, 128, 113, 124, 137, 616
185514004, 8411, -9464, -6953, -7733, 3340, -693, 20, -1046, -309, -1588, 228, 196, 170, 128, 113, 124, 137, 616
185528951, 8369, -9411, -7041, -7764, 2292, -1360, -234, 178, -24, -1121, 228, 196, 170, 128, 113, 124, 137, 616
185529709, 8369, -9411, -7041, -7764, 2292, -1360, -234, 178, -24, -1121, 241, 184, 165, 118, 106, 103, 127, 491
185530521, 8369, -9411, -7041, -7764, 2292, -1360, -234, 178, -24, -1121, 241, 184, 165, 118, 106, 103, 127, 491
185551401, 8482, -9298, -7194, -7635, 2135, -1015, -187, 1409, -207, -436, 241, 184, 165, 118, 106, 103, 127, 491
185552207, 8482, -9298, -7194, -7635, 2135, -1015, -187, 1409, -207, -436, 229, 167, 150, 93, 78, 79, 115, 406
185553077, 8482, -9298, -7194, -7635, 2135, -1015, -187, 1409, -207, -436, 229, 167, 150, 93, 78, 79, 115, 406
185565033, 8624, -9111, -7423, -7481, 2848, -512, -200, 1965, -301, -374, 229, 167, 150, 93, 78, 79, 115, 406
185573173, 8624, -9111, -7423, -7481, 2848, -512, -200, 1965, -301, -374, 163, 202, 182, 93, 76, 93, 98, 356
185573997, 8624, -9111, -7423, -7481, 2848, -512, -200, 1965, -301, -374, 163, 202, 182, 93, 76, 93, 98, 356
185588310, 8715, -8942, -7612, -7389, 3040, -113, -245, 1518, -97, -301, 163, 202, 182, 93, 76, 93, 98, 356
185589068, 8715, -8942, -7612, -7389, 3040, -113, -245, 1518, -97, -301, 199, 214, 182, 95, 79, 100, 88, 305
185595052, 8715, -8942, -7612, -7389, 3040, -113, -245, 1518, -97, -301, 199, 214, 182, 95, 79, 100, 88, 305
185611446, 8765, -8831, -7711, -7361, 2780, -24, -138, 816, 66, -153, 199, 214, 182, 95, 79, 100, 88, 305
185612233, 8765, -8831, -7711, -7361, 2780, -24, -138, 816, 66, -153, 215, 200, 170, 91, 76, 98, 74, 296
185613056, 8765, -8831, -7711, -7361, 2780, -24, -138, 816, 66, -153, 215, 200, 170, 91, 76, 98, 74, 296
185633928, 8771, -8790, -7736, -7377, 2623, -280, -68, 168, 96, -155, 215, 200, 170, 91, 76, 98, 74, 296
185634713, 8771, -8790, -7736, -7377, 2623, -280, -68, 168, 96, -155, 197, 205, 173, 87, 85, 108, 89, 277
185635514, 8771, -8790, -7736, -7377, 2623, -280, -68, 168, 96, -155, 197, 205, 173, 87, 85, 108, 89, 277
185647560, 8777, -8781, -7728, -7389, 2628, -503, -65, -10, 107, -78, 197, 205, 173, 87, 85, 108, 89, 277
185655707, 8777, -8781, -7728, -7389, 2628, -503, -65, -10, 107, -78, 209, 215, 174, 87, 81, 108, 98, 322
185656579, 8777, -8781, -7728, -7389, 2628, -503, -65, -10, 107, -78, 209, 215, 174, 87, 81, 108, 98, 322
185671428, 8810, -8766, -7726, -7369, 2597, -585, -44, 191, 70, 5, 209, 215, 174, 87, 81, 108, 98, 322
185672283, 8810, -8766, -7726, -7369, 2597, -585, -44, 191, 70, 5, 207, 167, 143, 77, 72, 90, 103, 314
185673050, 8810, -8766, -7726, -7369, 2597, -585, -44, 191, 70, 5, 207, 167, 143, 77, 72, 90, 103, 314
185688851, 8853, -8737, -7744, -7333, 2559, -471, -36, 354, 23, 48, 207, 167, 143, 77, 72, 90, 103, 314
185696992, 8853, -8737, -7744, -7333, 2559, -471, -36, 354, 23, 48, 182, 130, 128, 55, 57, 81, 101, 266
185697008, 8853, -8737, -7744, -7333, 2559, -471, -36, 354, 23, 48, 182, 130, 128, 55, 57, 81, 101, 266
185707587, 8886, -8699, -7777, -7303, 2669, -295, -9, 374, -22, 40, 182, 130, 128, 55, 57, 81, 101, 266
185715675, 8886, -8699, -7777, -7303, 2669, -295, -9, 374, -22, 40, 161, 127, 129, 59, 62, 84, 110, 265
185716492, 8886, -8699, -7777, -7303, 2669, -295, -9, 374, -22, 40, 161, 127, 129, 59, 62, 84, 110, 265
185731442, 8905, -8665, -7808, -7288, 2653, -238, 25, 270, -37, 2, 161, 127, 129, 59, 62, 84, 110, 265
185732190, 8905, -8665, -7808, -7288, 2653, -238, 25, 270, -37, 2, 156, 125, 128, 57, 43, 73, 95, 279
185733029, 8905, -8665, -7808, -7288, 2653, -238, 25, 270, -37, 2, 156, 125, 128, 57, 43, 73, 95, 279
185745056, 8904, -8643, -7829, -7293, 2687, -236, 6, 99, -20, -50, 156, 125, 128, 57, 43, 73, 95, 279
185753196, 8904, -8643, -7829, -7293, 2687, -236, 6, 99, -20, -50, 157, 118, 112, 54, 44, 66, 102, 258
185754047, 8904, -8643, -7829, -7293, 2687, -236, 6, 99, -20, -50, 157, 118, 112, 54, 44, 66, 102, 258
185767528, 8902, -8623, -7848, -7298, 2687, -314, 27, 86, -36, -85, 157, 118, 112, 54, 44, 66, 102, 258
185775701, 8902, -8623, -7848, -7298, 2687, -314, 27, 86, -36, -85, 163, 118, 98, 52, 45, 63, 146, 280
185776496, 8902, -8623, -7848, -7298, 2687, -314, 27, 86, -36, -85, 163, 118, 98, 52, 45, 63, 146, 280
185791392, 8898, -8596, -7879, -7302, 2670, -309, -19, 136, -34, -143, 163, 118, 98, 52, 45, 63, 146, 280
185792243, 8898, -8596, -7879, -7302, 2670, -309, -19, 136, -34, -143, 163, 126, 82, 45, 40, 63, 147, 281
185793015, 8898, -8596, -7879, -7302, 2670, -309, -19, 136, -34, -143, 163, 126, 82, 45, 40, 63, 147, 281
185805074, 8889, -8569, -7909, -7310, 2724, -226, -32, 107, -28, -126, 163, 126, 82, 45, 40, 63, 147, 281
185813183, 8889, -8569, -7909, -7310, 2724, -226, -32, 107, -28, -126, 168, 125, 75, 45, 34, 66, 146, 275
185813991, 8889, -8569, -7909, -7310, 2724, -226, -32, 107, -28, -126, 168, 125, 75, 45, 34, 66, 146, 275
185827565, 8879, -8554, -7926, -7323, 2741, -252, -32, 23, -5, -89, 168, 125, 75, 45, 34, 66, 146, 275
185835678, 8879, -8554, -7926, -7323, 2741, -252, -32, 23, -5, -89, 172, 125, 75, 58, 52, 77, 151, 252
185836470, 8879, -8554, -7926, -7323, 2741, -252, -32, 23, -5, -89, 172, 125, 75, 58, 52, 77, 151, 252
185851363, 8868, -8553, -7927, -7335, 2694, -279, -33, -59, 2, -27, 172, 125, 75, 58, 52, 77, 151, 252
185852211, 8868, -8553, -7927, -7335, 2694, -279, -33, -59, 2, -27, 148, 122, 73, 61, 56, 79, 144, 240
185852989, 8868, -8553, -7927, -7335, 2694, -279, -33, -59, 2, -27, 148, 122, 73, 61, 56, 79, 144, 240
185865057, 8858, -8564, -7921, -7342, 2609, -254, -43, -96, -13, 49, 148, 122, 73, 61, 56, 79, 144, 240
185873158, 8858, -8564, -7921, -7342, 2609, -254, -43, -96, -13, 49, 137, 117, 72, 61, 57, 74, 93, 210
185873941, 8858, -8564, -7921, -7342, 2609, -254, -43, -96, -13, 49, 137, 117, 72, 61, 57, 74, 93, 210
185887525, 8846, -8583, -7906, -7350, 2570, -228, -39, -149, -12, 104, 137, 117, 72, 61, 57, 74, 93, 210
185896120, 8846, -8583, -7906, -7350, 2570, -228, -39, -149, -12, 104, 122, 98, 66, 65, 59, 70, 89, 204
185902464, 8846, -8583, -7906, -7350, 2570, -228, -39, -149, -12, 104, 122, 98, 66, 65, 59, 70, 89, 204
185912884, 8827, -8613, -7881, -7365, 2583, -201, -48, -254, -3, 145, 122, 98, 66, 65, 59, 70, 89, 204
185913596, 8827, -8613, -7881, -7365, 2583, -201, -48, -254, -3, 145, 107, 93, 58, 64, 61, 71, 81, 200
185914413, 8827, -8613, -7881, -7365, 2583, -201, -48, -254, -3, 145, 107, 93, 58, 64, 61, 71, 81, 200
185915214, 8827, -8613, -7881, -7365, 2583, -201, -48, -254, -3, 145, 107, 93, 58, 64, 61, 71, 81, 200
185920194, 8827, -8613, -7881, -7365, 2583, -201, -48, -254, -3, 145, 107, 93, 58, 64, 61, 71, 81, 200
185920990, 8827, -8613, -7881, -7365, 2583, -201, -48, -254, -3, 145, 107, 93, 58, 64, 61, 71, 81, 200
185921866, 8827, -8613, -7881, -7365, 2583, -201, -48, -254, -3, 145, 107, 93, 58, 64, 61, 71, 81, 200
185922617, 8827, -8613, -7881, -7365, 2583, -201, -48, -254, -3, 145, 107, 93, 58, 64, 61, 71, 81, 200
185925665, 8827, -8613, -7881, -7365, 2583, -201, -48, -254, -3, 145, 107, 93, 58, 64, 61, 71, 81, 200
185926615, 8804, -8650, -7848, -7384, 2538, -218, -34, -312, -5, 151, 107, 93, 58, 64, 61, 71, 81, 200
185935239, 8804, -8650, -7848, -7384, 2538, -218, -34, -312, -5, 151, 90, 79, 45, 56, 107, 60, 68, 199
185936106, 8804, -8650, -7848, -7384, 2538, -218, -34, -312, -5, 151, 90, 79, 45, 56, 107, 60, 68, 199
185936969, 8804, -8650, -7848, -7384, 2538, -218, -34, -312, -5, 151, 90, 79, 45, 56, 107, 60, 68, 199
185937699, 8804, -8650, -7848, -7384, 2538, -218, -34, -312, -5, 151, 90, 79, 45, 56, 107, 60, 68, 199
185941989, 8804, -8650, -7848, -7384, 2538, -218, -34, -312, -5, 151, 90, 79, 45, 56, 107, 60, 68, 199
185942837, 8804, -8650, -7848, -7384, 2538, -218, -34, -312, -5, 151, 90, 79, 45, 56, 107, 60, 68, 199
185943656, 8804, -8650, -7848, -7384, 2538, -218, -34, -312, -5, 151, 90, 79, 45, 56, 107, 60, 68, 199
185944461, 8804, -8650, -7848, -7384, 2538, -218, -34, -312, -5, 151, 90, 79, 45, 56, 107, 60, 68, 199
185947653, 8776, -8695, -7812, -7402, 2476, -235, -49, -353, -24, 166, 90, 79, 45, 56, 107, 60, 68, 199
185955639, 8776, -8695, -7812, -7402, 2476, -235, -49, -353, -24, 166, 80, 59, 57, 96, 183, 75, 54, 123
185956480, 8776, -8695, -7812, -7402, 2476, -235, -49, -353, -24, 166, 80, 59, 57, 96, 183, 75, 54, 123
185971342, 8732, -8755, -7777, -7421, 2388, -177, -152, -442, -51, 178, 80, 59, 57, 96, 183, 75, 54, 123
185972203, 8732, -8755, -7777, -7421, 2388, -177, -152, -442, -51, 178, 102, 102, 98, 121, 208, 89, 71, 98
185972986, 8732, -8755, -7777, -7421, 2388, -177, -152, -442, -51, 178, 102, 102, 98, 121, 208, 89, 71, 98
185985079, 8641, -8857, -7707, -7479, 2266, -70, -148, -899, -71, 219, 102, 102, 98, 121, 208, 89, 71, 98
185993188, 8641, -8857, -7707, -7479, 2266, -70, -148, -899, -71, 219, 295, 156, 192, 154, 211, 97, 85, 85
185994000, 8641, -8857, -7707, -7479, 2266, -70, -148, -899, -71, 219, 295, 156, 192, 154, 211, 97, 85, 85
