Timestamp, Orientation x, Orientation y, Orientation z, Orientation w, Acceleration x, Acceleration y, Acceleration z, Rotation x, Rotation y, Rotation z, EMG 0, EMG 1, EMG 2, EMG 3, EMG 4, EMG 5, EMG 6, EMG 7
180478267, -2232, -14091, -202, -8055, 2684, 2057, -2784, -43, -52, 28, 0, 0, 0, 0, 0, 0, 0, 0
180485700, -2292, -14144, -251, -7943, 2656, 2008, -2787, 45, -77, 75, 0, 0, 0, 0, 0, 0, 0, 0
180508260, -2325, -14199, -293, -7832, 2636, 1955, -2806, 145, -103, 146, 0, 0, 0, 0, 0, 0, 0, 0
180523244, -2322, -14261, -329, -7718, 2587, 1917, -2771, 314, -173, 239, 0, 0, 0, 0, 0, 0, 0, 0
180547106, -2258, -14337, -373, -7594, 2611, 1866, -2815, 641, -273, 332, 0, 0, 0, 0, 0, 0, 0, 0
180547941, -2258, -14337, -373, -7594, 2611, 1866, -2815, 641, -273, 332, 58, 67, 63, 95, 427, 131, 74, 43
180548708, -2258, -14337, -373, -7594, 2611, 1866, -2815, 641, -273, 332, 58, 67, 63, 95, 427, 131, 74, 43
180569547, -2133, -14426, -416, -7458, 2663, 1837, -2882, 967, -385, 469, 58, 67, 63, 95, 427, 131, 74, 43
180570370, -2133, -14426, -416, -7458, 2663, 1837, -2882, 967, -385, 469, 51, 68, 64, 85, 375, 115, 74, 45
180571193, -2133, -14426, -416, -7458, 2663, 1837, -2882, 967, -385, 469, 51, 68, 64, 85, 375, 115, 74, 45
180583229, -1952, -14530, -450, -7303, 2649, 1747, -2929, 1244, -546, 625, 51, 68, 64, 85, 375, 115, 74, 45
180591321, -1952, -14530, -450, -7303, 2649, 1747, -2929, 1244, -546, 625, 51, 67, 63, 82, 349, 103, 71, 44
180592111, -1952, -14530, -450, -7303, 2649, 1747, -2929, 1244, -546, 625, 51, 67, 63, 82, 349, 103, 71, 44
180607023, -1635, -14637, -452, -7166, 2648, 1648, -2915, 1725, -807, 805, 51, 67, 63, 82, 349, 103, 71, 44
180607919, -1635, -14637, -452, -7166, 2648, 1648, -2915, 1725, -807, 805, 49, 51, 43, 75, 347, 93, 70, 45
180608601, -1635, -14637, -452, -7166, 2648, 1648, -2915, 1725, -807, 805, 49, 51, 43, 75, 347, 93, 70, 45
180629553, -1202, -14772, -484, -6969, 2727, 1581, -3058, 2414, -1149, 918, 49, 51, 43, 75, 347, 93, 70, 45
180630349, -1202, -14772, -484, -6969, 2727, 1581, -3058, 2414, -1149, 918, 87, 49, 44, 82, 280, 86, 58, 55
180631186, -1202, -14772, -484, -6969, 2727, 1581, -3058, 2414, -1149, 918, 87, 49, 44, 82, 280, 86, 58, 55
180643262, -662, -14924, -547, -6708, 2865, 1345, -3229, 3056, -1501, 987, 87, 49, 44, 82, 280, 86, 58, 55
180651332, -662, -14924, -547, -6708, 2865, 1345, -3229, 3056, -1501, 987, 96, 54, 47, 95, 294, 86, 62, 63
180652166, -662, -14924, -547, -6708, 2865, 1345, -3229, 3056, -1501, 987, 96, 54, 47, 95, 294, 86, 62, 63
180667030, 2, -15062, -653, -6416, 2917, 1096, -3347, 3807, -1608, 1040, 96, 54, 47, 95, 294, 86, 62, 63
180667930, 2, -15062, -653, -6416, 2917, 1096, -3347, 3807, -1608, 1040, 103, 55, 52, 99, 308, 91, 69, 88
180668593, 2, -15062, -653, -6416, 2917, 1096, -3347, 3807, -1608, 1040, 103, 55, 52, 99, 308, 91, 69, 88
180689600, 754, -15157, -788, -6128, 2814, 1162, -3739, 4364, -1451, 1113, 103, 55, 52, 99, 308, 91, 69, 88
180690390, 754, -15157, -788, -6128, 2814, 1162, -3739, 4364, -1451, 1113, 118, 62, 65, 124, 266, 99, 75, 107
180691212, 754, -15157, -788, -6128, 2814, 1162, -3739, 4364, -1451, 1113, 118, 62, 65, 124, 266, 99, 75, 107
180703262, 1542, -15186, -858, -5893, 2638, 1496, -3910, 4285, -1083, 1355, 118, 62, 65, 124, 266, 99, 75, 107
180711351, 1542, -15186, -858, -5893, 2638, 1496, -3910, 4285, -1083, 1355, 127, 69, 74, 142, 264, 107, 77, 113
180712131, 1542, -15186, -858, -5893, 2638, 1496, -3910, 4285, -1083, 1355, 127, 69, 74, 142, 264, 107, 77, 113
180727066, 2214, -15188, -799, -5679, 2596, 1861, -4009, 3434, -886, 1774, 127, 69, 74, 142, 264, 107, 77, 113
180727923, 2214, -15188, -799, -5679, 2596, 1861, -4009, 3434, -886, 1774, 124, 77, 94, 166, 311, 118, 83, 133
180728620, 2214, -15188, -799, -5679, 2596, 1861, -4009, 3434, -886, 1774, 124, 77, 94, 166, 311, 118, 83, 133
180749537, 2725, -15194, -650, -5454, 2980, 1764, -3972, 2418, -930, 1936, 124, 77, 94, 166, 311, 118, 83, 133
180750294, 2725, -15194, -650, -5454, 2980, 1764, -3972, 2418, -930, 1936, 127, 77, 103, 181, 285, 123, 84, 141
180751116, 2725, -15194, -650, -5454, 2980, 1764, -3972, 2418, -930, 1936, 127, 77, 103, 181, 285, 123, 84, 141
180763189, 3121, -15203, -521, -5227, 3064, 1400, -3719, 1857, -985, 1619, 127, 77, 103, 181, 285, 123, 84, 141
180771389, 3121, -15203, -521, -5227, 3064, 1400, -3719, 1857, -985, 1619, 135, 85, 117, 202, 269, 130, 83, 144
180772153, 3121, -15203, -521, -5227, 3064, 1400, -3719, 1857, -985, 1619, 135, 85, 117, 202, 269, 130, 83, 144
180787085, 3491, -15194, -405, -5025, 2839, 1250, -3803, 1757, -844, 1478, 135, 85, 117, 202, 269, 130, 83, 144
180787908, 3491, -15194, -405, -5025, 2839, 1250, -3803, 1757, -844, 1478, 137, 112, 129, 195, 310, 134, 89, 144
180788715, 3491, -15194, -405, -5025, 2839, 1250, -3803, 1757, -844, 1478, 137, 112, 129, 195, 310, 134, 89, 144
180809538, 3838, -15165, -288, -4865, 2726, 1012, -3844, 1661, -593, 1386, 137, 112, 129, 195, 310, 134, 89, 144
180810323, 3838, -15165, -288, -4865, 2726, 1012, -3844, 1661, -593, 1386, 146, 123, 136, 201, 394, 137, 101, 160
180811141, 3838, -15165, -288, -4865, 2726, 1012, -3844, 1661, -593, 1386, 146, 123, 136, 201, 394, 137, 101, 160
180823242, 4130, -15131, -177, -4733, 2600, 919, -3916, 1384, -456, 1233, 146, 123, 136, 201, 394, 137, 101, 160
180831380, 4130, -15131, -177, -4733, 2600, 919, -3916, 1384, -456, 1233, 137, 120, 138, 204, 428, 146, 99, 151
180832214, 4130, -15131, -177, -4733, 2600, 919, -3916, 1384, -456, 1233, 137, 120, 138, 204, 428, 146, 99, 151
180847084, 4351, -15106, -80, -4617, 2644, 879, -3896, 1025, -408, 1020, 137, 120, 138, 204, 428, 146, 99, 151
180847926, 4351, -15106, -80, -4617, 2644, 879, -3896, 1025, -408, 1020, 138, 119, 133, 193, 437, 140, 98, 147
180848691, 4351, -15106, -80, -4617, 2644, 879, -3896, 1025, -408, 1020, 138, 119, 133, 193, 437, 140, 98, 147
180869559, 4508, -15088, -10, -4524, 2773, 816, -3928, 730, -343, 745, 138, 119, 133, 193, 437, 140, 98, 147
180870391, 4508, -15088, -10, -4524, 2773, 816, -3928, 730, -343, 745, 149, 125, 137, 268, 530, 142, 102, 157
180871173, 4508, -15088, -10, -4524, 2773, 816, -3928, 730, -343, 745, 149, 125, 137, 268, 530, 142, 102, 157
180883228, 4611, -15073, 45, -4472, 2794, 846, -3924, 468, -164, 521, 149, 125, 137, 268, 530, 142, 102, 157
180891322, 4611, -15073, 45, -4472, 2794, 846, -3924, 468, -164, 521, 152, 105, 131, 277, 582, 146, 107, 163
180892138, 4611, -15073, 45, -4472, 2794, 846, -3924, 468, -164, 521, 152, 105, 131, 277, 582, 146, 107, 163
180907054, 4649, -15069, 75, -4446, 2742, 687, -3948, 158, -78, 257, 152, 105, 131, 277, 582, 146, 107, 163
180907840, 4649, -15069, 75, -4446, 2742, 687, -3948, 158, -78, 257, 150, 96, 125, 318, 531, 143, 98, 155
180908687, 4649, -15069, 75, -4446, 2742, 687, -3948, 158, -78, 257, 150, 96, 125, 318, 531, 143, 98, 155
180929555, 4646, -15071, 76, -4442, 2732, 582, -3939, -24, -26, 2, 150, 96, 125, 318, 531, 143, 98, 155
180930345, 4646, -15071, 76, -4442, 2732, 582, -3939, -24, -26, 2, 152, 97, 110, 321, 522, 134, 100, 152
180931180, 4646, -15071, 76, -4442, 2732, 582, -3939, -24, -26, 2, 152, 97, 110, 321, 522, 134, 100, 152
180943241, 4615, -15078, 52, -4449, 2689, 503, -3969, -134, -10, -181, 152, 97, 110, 321, 522, 134, 100, 152
180951364, 4615, -15078, 52, -4449, 2689, 503, -3969, -134, -10, -181, 194, 105, 124, 380, 550, 160, 109, 170
180952110, 4615, -15078, 52, -4449, 2689, 503, -3969, -134, -10, -181, 194, 105, 124, 380, 550, 160, 109, 170
180967061, 4586, -15084, 29, -4461, 2644, 436, -3956, -127, 14, -180, 194, 105, 124, 380, 550, 160, 109, 170
180967947, 4586, -15084, 29, -4461, 2644, 436, -3956, -127, 14, -180, 202, 97, 115, 347, 515, 156, 101, 150
180968643, 4586, -15084, 29, -4461, 2644, 436, -3956, -127, 14, -180, 202, 97, 115, 347, 515, 156, 101, 150
180989550, 4572, -15085, 10, -4470, 2623, 446, -3939, -43, 17, -134, 202, 97, 115, 347, 515, 156, 101, 150
180990509, 4572, -15085, 10, -4470, 2623, 446, -3939, -43, 17, -134, 201, 99, 112, 359, 474, 156, 90, 136
180991182, 4572, -15085, 10, -4470, 2623, 446, -3939, -43, 17, -134, 201, 99, 112, 359, 474, 156, 90, 136
181003207, 4557, -15089, -12, -4471, 2720, 578, -3929, -48, -35, -140, 201, 99, 112, 359, 474, 156, 90, 136
181011311, 4557, -15089, -12, -4471, 2720, 578, -3929, -48, -35, -140, 222, 97, 106, 325, 521, 160, 83, 122
181012121, 4557, -15089, -12, -4471, 2720, 578, -3929, -48, -35, -140, 222, 97, 106, 325, 521, 160, 83, 122
181027073, 4537, -15096, -31, -4471, 2731, 533, -3923, -87, -44, -128, 222, 97, 106, 325, 521, 160, 83, 122
181027913, 4537, -15096, -31, -4471, 2731, 533, -3923, -87, -44, -128, 260, 111, 104, 316, 511, 164, 78, 128
181028584, 4537, -15096, -31, -4471, 2731, 533, -3923, -87, -44, -128, 260, 111, 104, 316, 511, 164, 78, 128
181049494, 4529, -15095, -37, -4483, 2556, 500, -3930, -34, 56, -62, 260, 111, 104, 316, 511, 164, 78, 128
181050308, 4529, -15095, -37, -4483, 2556, 500, -3930, -34, 56, -62, 236, 107, 87, 245, 522, 155, 71, 104
181051145, 4529, -15095, -37, -4483, 2556, 500, -3930, -34, 56, -62, 236, 107, 87, 245, 522, 155, 71, 104
181063162, 4525, -15089, -27, -4507, 2577, 573, -3920, -26, 147, 6, 236, 107, 87, 245, 522, 155, 71, 104
181071373, 4525, -15089, -27, -4507, 2577, 573, -3920, -26, 147, 6, 232, 105, 73, 220, 479, 147, 74, 118
181072132, 4525, -15089, -27, -4507, 2577, 573, -3920, -26, 147, 6, 232, 105, 73, 220, 479, 147, 74, 118
181087114, 4510, -15089, -30, -4520, 2782, 667, -3898, -73, 61, -61, 232, 105, 73, 220, 479, 147, 74, 118
181087904, 4510, -15089, -30, -4520, 2782, 667, -3898, -73, 61, -61, 385, 152, 64, 179, 433, 133, 78, 140
181088650, 4510, -15089, -30, -4520, 2782, 667, -3898, -73, 61, -61, 385, 152, 64, 179, 433, 133, 78, 140
181109529, 4483, -15097, -49, -4520, 2866, 656, -3925, -123, -45, -140, 385, 152, 64, 179, 433, 133, 78, 140
181110296, 4483, -15097, -49, -4520, 2866, 656, -3925, -123, -45, -140, 514, 256, 73, 170, 388, 137, 86, 163
181111119, 4483, -15097, -49, -4520, 2866, 656, -3925, -123, -45, -140, 514, 256, 73, 170, 388, 137, 86, 163
181123219, 4458, -15103, -68, -4524, 2653, 530, -3912, -111, -14, -143, 514, 256, 73, 170, 388, 137, 86, 163
181131396, 4458, -15103, -68, -4524, 2653, 530, -3912, -111, -14, -143, 524, 264, 78, 171, 396, 133, 95, 167
181132157, 4458, -15103, -68, -4524, 2653, 530, -3912, -111, -14, -143, 524, 264, 78, 171, 396, 133, 95, 167
181146375, 4436, -15105, -79, -4540, 2472, 633, -3881, -98, 59, -110, 524, 264, 78, 171, 396, 133, 95, 167
181147129, 4436, -15105, -79, -4540, 2472, 633, -3881, -98, 59, -110, 526, 264, 77, 167, 336, 118, 104, 180
181153204, 4436, -15105, -79, -4540, 2472, 633, -3881, -98, 59, -110, 526, 264, 77, 167, 336, 118, 104, 180
181169569, 4395, -15110, -83, -4562, 2591, 674, -3886, -213, 98, -122, 526, 264, 77, 167, 336, 118, 104, 180
181170351, 4395, -15110, -83, -4562, 2591, 674, -3886, -213, 98, -122, 541, 274, 83, 150, 321, 118, 102, 184
181171143, 4395, -15110, -83, -4562, 2591, 674, -3886, -213, 98, -122, 541, 274, 83, 150, 321, 118, 102, 184
181183235, 4352, -15111, -83, -4600, 2592, 597, -3907, -224, 193, -123, 541, 274, 83, 150, 321, 118, 102, 184
181191333, 4352, -15111, -83, -4600, 2592, 597, -3907, -224, 193, -123, 449, 253, 83, 172, 336, 119, 100, 170
181192126, 4352, -15111, -83, -4600, 2592, 597, -3907, -224, 193, -123, 449, 253, 83, 172, 336, 119, 100, 170
181206389, 4315, -15107, -75, -4647, 2648, 635, -3925, -201, 260, -89, 449, 253, 83, 172, 336, 119, 100, 170
181207158, 4315, -15107, -75, -4647, 2648, 635, -3925, -201, 260, -89, 293, 148, 77, 182, 325, 109, 91, 158
181213148, 4315, -15107, -75, -4647, 2648, 635, -3925, -201, 260, -89, 293, 148, 77, 182, 325, 109, 91, 158
181229540, 4271, -15106, -82, -4693, 2849, 741, -3935, -218, 231, -172, 293, 148, 77, 182, 325, 109, 91, 158
181230319, 4271, -15106, -82, -4693, 2849, 741, -3935, -218, 231, -172, 411, 174, 88, 256, 331, 152, 133, 369
181231124, 4271, -15106, -82, -4693, 2849, 741, -3935, -218, 231, -172, 411, 174, 88, 256, 331, 152, 133, 369
181243202, 4201, -15109, -99, -4745, 2837, 901, -3915, -339, 236, -277, 411, 174, 88, 256, 331, 152, 133, 369
181251292, 4201, -15109, -99, -4745, 2837, 901, -3915, -339, 236, -277, 453, 192, 98, 327, 328, 216, 153, 402
181252074, 4201, -15109, -99, -4745, 2837, 901, -3915, -339, 236, -277, 453, 192, 98, 327, 328, 216, 153, 402
181265683, 4051, -15135, -119, -4792, 2809, 959, -3940, -780, 167, -413, 453, 192, 98, 327, 328, 216, 153, 402
181273855, 4051, -15135, -119, -4792, 2809, 959, -3940, -780, 167, -413, 502, 212, 126, 436, 361, 306, 250, 531
181274634, 4051, -15135, -119, -4792, 2809, 959, -3940, -780, 167, -413, 502, 212, 126, 436, 361, 306, 250, 531
181289558, 3799, -15181, -143, -4852, 2792, 1101, -3870, -1327, 186, -617, 502, 212, 126, 436, 361, 306, 250, 531
181290354, 3799, -15181, -143, -4852, 2792, 1101, -3870, -1327, 186, -617, 586, 253, 139, 583, 476, 344, 310, 623
181291146, 3799, -15181, -143, -4852, 2792, 1101, -3870, -1327, 186, -617, 586, 253, 139, 583, 476, 344, 310, 623
181303169, 3404, -15250, -170, -4927, 2703, 1256, -3923, -2097, 224, -892, 586, 253, 139, 583, 476, 344, 310, 623
181311309, 3404, -15250, -170, -4927, 2703, 1256, -3923, -2097, 224, -892, 610, 276, 186, 655, 569, 355, 329, 653
181312119, 3404, -15250, -170, -4927, 2703, 1256, -3923, -2097, 224, -892, 610, 276, 186, 655, 569, 355, 329, 653
181334524, 2861, -15326, -185, -5034, 2672, 1107, -3879, -2904, 374, -1113, 610, 276, 186, 655, 569, 355, 329, 653
181335310, 2861, -15326, -185, -5034, 2672, 1107, -3879, -2904, 374, -1113, 763, 314, 209, 800, 701, 368, 334, 581
181336117, 2861, -15326, -185, -5034, 2672, 1107, -3879, -2904, 374, -1113, 763, 314, 209, 800, 701, 368, 334, 581
181349501, 2293, -15375, -176, -5175, 2727, 991, -3825, -3045, 628, -1063, 763, 314, 209, 800, 701, 368, 334, 581
181350302, 2293, -15375, -176, -5175, 2727, 991, -3825, -3045, 628, -1063, 811, 352, 215, 839, 883, 379, 417, 742
181351094, 2293, -15375, -176, -5175, 2727, 991, -3825, -3045, 628, -1063, 811, 352, 215, 839, 883, 379, 417, 742
181363172, 1721, -15393, -152, -5342, 2842, 1215, -3612, -3074, 832, -1015, 811, 352, 215, 839, 883, 379, 417, 742
181371377, 1721, -15393, -152, -5342, 2842, 1215, -3612, -3074, 832, -1015, 919, 336, 202, 827, 1014, 358, 481, 714
181372124, 1721, -15393, -152, -5342, 2842, 1215, -3612, -3074, 832, -1015, 919, 336, 202, 827, 1014, 358, 481, 714
181385672, 1129, -15381, -148, -5529, 2988, 1688, -3517, -3123, 975, -1173, 919, 336, 202, 827, 1014, 358, 481, 714
181393847, 1129, -15381, -148, -5529, 2988, 1688, -3517, -3123, 975, -1173, 885, 333, 222, 799, 1040, 378, 545, 760
181394642, 1129, -15381, -148, -5529, 2988, 1688, -3517, -3123, 975, -1173, 885, 333, 222, 799, 1040, 378, 545, 760
