Timestamp, Orientation x, Orientation y, Orientation z, Orientation w, Acceleration x, Acceleration y, Acceleration z, Rotation x, Rotation y, Rotation z, EMG 0, EMG 1, EMG 2, EMG 3, EMG 4, EMG 5, EMG 6, EMG 7
252497828, 5715, -2031, -14663, 4083, 1786, -1821, -1981, 136, -28, 11, 0, 0, 0, 0, 0, 0, 0, 0
252505966, 5697, -2032, -14660, 4118, 1782, -1860, -2037, 120, -99, 54, 0, 0, 0, 0, 0, 0, 0, 0
252506825, 5674, -2035, -14659, 4149, 1827, -1825, -2040, 106, -142, 88, 0, 0, 0, 0, 0, 0, 0, 0
252527798, 5667, -2012, -14654, 4188, 1953, -1780, -1874, 182, -191, 15, 0, 0, 0, 0, 0, 0, 0, 0
252550279, 5668, -1988, -14649, 4217, 2169, -1873, -1778, 79, -249, 13, 0, 0, 0, 0, 0, 0, 0, 0
252566569, 5668, -1988, -14649, 4217, 2169, -1873, -1778, 79, -249, 13, 202, 296, 613, 181, 83, 67, 164, 587
252567335, 5668, -1988, -14649, 4217, 2169, -1873, -1778, 79, -249, 13, 202, 296, 613, 181, 83, 67, 164, 587
252568290, 5703, -1988, -14639, 4204, 2423, -1875, -1878, -106, -58, 78, 202, 296, 613, 181, 83, 67, 164, 587
252589068, 5703, -1988, -14639, 4204, 2423, -1875, -1878, -106, -58, 78, 208, 300, 633, 188, 67, 66, 179, 600
252589899, 5703, -1988, -14639, 4204, 2423, -1875, -1878, -106, -58, 78, 208, 300, 633, 188, 67, 66, 179, 600
252590843, 5741, -2022, -14628, 4174, 2407, -1820, -1986, -215, 65, 222, 208, 300, 633, 188, 67, 66, 179, 600
252611544, 5741, -2022, -14628, 4174, 2407, -1820, -1986, -215, 65, 222, 192, 383, 744, 197, 74, 72, 183, 580
252612370, 5741, -2022, -14628, 4174, 2407, -1820, -1986, -215, 65, 222, 192, 383, 744, 197, 74, 72, 183, 580
252613296, 5777, -2096, -14604, 4170, 2268, -1746, -1954, -115, 159, 470, 192, 383, 744, 197, 74, 72, 183, 580
252625868, 5777, -2096, -14604, 4170, 2268, -1746, -1954, -115, 159, 470, 197, 453, 861, 223, 87, 78, 179, 551
252626704, 5777, -2096, -14604, 4170, 2268, -1746, -1954, -115, 159, 470, 197, 453, 861, 223, 87, 78, 179, 551
252632846, 5785, -2227, -14575, 4194, 2086, -1749, -1917, -103, 143, 804, 197, 453, 861, 223, 87, 78, 179, 551
252649084, 5785, -2227, -14575, 4194, 2086, -1749, -1917, -103, 143, 804, 178, 407, 906, 225, 94, 81, 168, 411
252649893, 5785, -2227, -14575, 4194, 2086, -1749, -1917, -103, 143, 804, 178, 407, 906, 225, 94, 81, 168, 411
252650861, 5760, -2440, -14558, 4170, 1968, -1468, -1852, -471, 118, 1224, 178, 407, 906, 225, 94, 81, 168, 411
252671544, 5760, -2440, -14558, 4170, 1968, -1468, -1852, -471, 118, 1224, 166, 422, 917, 199, 102, 85, 175, 433
252672405, 5760, -2440, -14558, 4170, 1968, -1468, -1852, -471, 118, 1224, 166, 422, 917, 199, 102, 85, 175, 433
252673296, 5732, -2705, -14520, 4176, 1828, -1418, -1763, -396, 196, 1553, 166, 422, 917, 199, 102, 85, 175, 433
252685848, 5732, -2705, -14520, 4176, 1828, -1418, -1763, -396, 196, 1553, 163, 447, 958, 226, 113, 94, 177, 442
252686698, 5732, -2705, -14520, 4176, 1828, -1418, -1763, -396, 196, 1553, 163, 447, 958, 226, 113, 94, 177, 442
252692888, 5692, -2964, -14483, 4182, 1495, -1504, -1799, -409, 241, 1433, 163, 447, 958, 226, 113, 94, 177, 442
252709101, 5692, -2964, -14483, 4182, 1495, -1504, -1799, -409, 241, 1433, 172, 434, 991, 285, 119, 92, 183, 465
252709934, 5692, -2964, -14483, 4182, 1495, -1504, -1799, -409, 241, 1433, 172, 434, 991, 285, 119, 92, 183, 465
252710845, 5641, -3196, -14454, 4181, 1280, -1370, -1773, -375, 188, 1275, 172, 434, 991, 285, 119, 92, 183, 465
252731593, 5641, -3196, -14454, 4181, 1280, -1370, -1773, -375, 188, 1275, 159, 379, 965, 316, 113, 85, 182, 418
252732368, 5641, -3196, -14454, 4181, 1280, -1370, -1773, -375, 188, 1275, 159, 379, 965, 316, 113, 85, 182, 418
252733344, 5585, -3385, -14426, 4206, 1197, -1498, -1938, -155, 128, 1073, 159, 379, 965, 316, 113, 85, 182, 418
252745899, 5585, -3385, -14426, 4206, 1197, -1498, -1938, -155, 128, 1073, 159, 362, 854, 334, 110, 83, 188, 444
252746730, 5585, -3385, -14426, 4206, 1197, -1498, -1938, -155, 128, 1073, 159, 362, 854, 334, 110, 83, 188, 444
252752845, 5514, -3551, -14414, 4204, 1215, -1543, -2053, -259, 29, 924, 159, 362, 854, 334, 110, 83, 188, 444
252769043, 5514, -3551, -14414, 4204, 1215, -1543, -2053, -259, 29, 924, 153, 335, 780, 448, 105, 79, 180, 418
252769882, 5514, -3551, -14414, 4204, 1215, -1543, -2053, -259, 29, 924, 153, 335, 780, 448, 105, 79, 180, 418
252770796, 5448, -3694, -14403, 4203, 1279, -1538, -2052, -209, -22, 835, 153, 335, 780, 448, 105, 79, 180, 418
252791618, 5448, -3694, -14403, 4203, 1279, -1538, -2052, -209, -22, 835, 152, 303, 750, 505, 93, 71, 175, 419
252792391, 5448, -3694, -14403, 4203, 1279, -1538, -2052, -209, -22, 835, 152, 303, 750, 505, 93, 71, 175, 419
252793347, 5402, -3807, -14387, 4218, 1282, -1556, -2082, -35, 13, 701, 152, 303, 750, 505, 93, 71, 175, 419
252805855, 5402, -3807, -14387, 4218, 1282, -1556, -2082, -35, 13, 701, 126, 225, 614, 526, 84, 67, 169, 404
252806648, 5402, -3807, -14387, 4218, 1282, -1556, -2082, -35, 13, 701, 126, 225, 614, 526, 84, 67, 169, 404
252812818, 5354, -3889, -14379, 4232, 1197, -1558, -2079, 8, -33, 526, 126, 225, 614, 526, 84, 67, 169, 404
252829040, 5354, -3889, -14379, 4232, 1197, -1558, -2079, 8, -33, 526, 109, 183, 479, 506, 78, 69, 220, 430
252829895, 5354, -3889, -14379, 4232, 1197, -1558, -2079, 8, -33, 526, 109, 183, 479, 506, 78, 69, 220, 430
252830795, 5305, -3944, -14382, 4232, 1204, -1626, -2015, -85, -106, 344, 109, 183, 479, 506, 78, 69, 220, 430
252851607, 5256, -3990, -14393, 4212, 1296, -1699, -2020, -204, -155, 267, 109, 183, 479, 506, 78, 69, 220, 430
252852418, 5256, -3990, -14393, 4212, 1296, -1699, -2020, -204, -155, 267, 104, 189, 494, 504, 84, 68, 210, 405
252853246, 5256, -3990, -14393, 4212, 1296, -1699, -2020, -204, -155, 267, 104, 189, 494, 504, 84, 68, 210, 405
252874073, 5229, -4026, -14395, 4202, 1463, -1810, -2011, -143, -125, 251, 104, 189, 494, 504, 84, 68, 210, 405
252874865, 5229, -4026, -14395, 4202, 1463, -1810, -2011, -143, -125, 251, 105, 161, 463, 407, 105, 65, 204, 387
252875693, 5229, -4026, -14395, 4202, 1463, -1810, -2011, -143, -125, 251, 105, 161, 463, 407, 105, 65, 204, 387
252889048, 5238, -4043, -14381, 4225, 1476, -1876, -2089, 127, 20, 183, 105, 161, 463, 407, 105, 65, 204, 387
252889859, 5238, -4043, -14381, 4225, 1476, -1876, -2089, 127, 20, 183, 99, 152, 402, 319, 189, 96, 204, 351
252890736, 5238, -4043, -14381, 4225, 1476, -1876, -2089, 127, 20, 183, 99, 152, 402, 319, 189, 96, 204, 351
252911595, 5273, -4019, -14356, 4289, 1306, -1923, -2114, 467, 134, -38, 99, 152, 402, 319, 189, 96, 204, 351
252912422, 5273, -4019, -14356, 4289, 1306, -1923, -2114, 467, 134, -38, 90, 143, 368, 229, 381, 212, 205, 304
252913218, 5273, -4019, -14356, 4289, 1306, -1923, -2114, 467, 134, -38, 90, 143, 368, 229, 381, 212, 205, 304
252934085, 5342, -3901, -14332, 4392, 1131, -1911, -2071, 887, 165, -540, 90, 143, 368, 229, 381, 212, 205, 304
252934890, 5342, -3901, -14332, 4392, 1131, -1911, -2071, 887, 165, -540, 90, 152, 449, 206, 458, 304, 182, 280
252935706, 5342, -3901, -14332, 4392, 1131, -1911, -2071, 887, 165, -540, 90, 152, 449, 206, 458, 304, 182, 280
252949045, 5428, -3636, -14329, 4521, 909, -2012, -1916, 1202, 29, -1373, 90, 152, 449, 206, 458, 304, 182, 280
252949895, 5428, -3636, -14329, 4521, 909, -2012, -1916, 1202, 29, -1373, 109, 137, 401, 197, 487, 379, 214, 362
252950671, 5428, -3636, -14329, 4521, 909, -2012, -1916, 1202, 29, -1373, 109, 137, 401, 197, 487, 379, 214, 362
252971582, 5546, -3241, -14354, 4599, 1064, -2036, -1990, 1220, -131, -2048, 109, 137, 401, 197, 487, 379, 214, 362
252972393, 5546, -3241, -14354, 4599, 1064, -2036, -1990, 1220, -131, -2048, 118, 155, 559, 235, 489, 405, 218, 365
252973206, 5546, -3241, -14354, 4599, 1064, -2036, -1990, 1220, -131, -2048, 118, 155, 559, 235, 489, 405, 218, 365
252994083, 5669, -2751, -14394, 4644, 1292, -2084, -1959, 1218, -263, -2595, 118, 155, 559, 235, 489, 405, 218, 365
252994896, 5669, -2751, -14394, 4644, 1292, -2084, -1959, 1218, -263, -2595, 122, 165, 584, 234, 495, 409, 217, 367
252995671, 5669, -2751, -14394, 4644, 1292, -2084, -1959, 1218, -263, -2595, 122, 165, 584, 234, 495, 409, 217, 367
253009054, 5781, -2197, -14437, 4667, 1563, -2118, -1728, 1197, -431, -2927, 122, 165, 584, 234, 495, 409, 217, 367
253009852, 5781, -2197, -14437, 4667, 1563, -2118, -1728, 1197, -431, -2927, 126, 169, 604, 226, 527, 464, 225, 379
253010677, 5781, -2197, -14437, 4667, 1563, -2118, -1728, 1197, -431, -2927, 126, 169, 604, 226, 527, 464, 225, 379
253031571, 5889, -1608, -14472, 4661, 1896, -2053, -1564, 1117, -495, -3131, 126, 169, 604, 226, 527, 464, 225, 379
253032406, 5889, -1608, -14472, 4661, 1896, -2053, -1564, 1117, -495, -3131, 152, 170, 558, 225, 493, 479, 204, 341
253033192, 5889, -1608, -14472, 4661, 1896, -2053, -1564, 1117, -495, -3131, 152, 170, 558, 225, 493, 479, 204, 341
253054053, 6006, -939, -14487, 4648, 1974, -2123, -1463, 1265, -538, -3562, 152, 170, 558, 225, 493, 479, 204, 341
253054832, 6006, -939, -14487, 4648, 1974, -2123, -1463, 1265, -538, -3562, 160, 162, 546, 199, 515, 456, 202, 281
253055661, 6006, -939, -14487, 4648, 1974, -2123, -1463, 1265, -538, -3562, 160, 162, 546, 199, 515, 456, 202, 281
253069095, 6094, -200, -14498, 4590, 2109, -2093, -1290, 1164, -790, -3964, 160, 162, 546, 199, 515, 456, 202, 281
253069920, 6094, -200, -14498, 4590, 2109, -2093, -1290, 1164, -790, -3964, 166, 138, 395, 198, 535, 464, 203, 281
253070793, 6094, -200, -14498, 4590, 2109, -2093, -1290, 1164, -790, -3964, 166, 138, 395, 198, 535, 464, 203, 281
253091588, 6137, 607, -14501, 4488, 2481, -1848, -1200, 1101, -1125, -4301, 166, 138, 395, 198, 535, 464, 203, 281
253092369, 6137, 607, -14501, 4488, 2481, -1848, -1200, 1101, -1125, -4301, 174, 122, 373, 307, 520, 478, 225, 313
253093195, 6137, 607, -14501, 4488, 2481, -1848, -1200, 1101, -1125, -4301, 174, 122, 373, 307, 520, 478, 225, 313
253114105, 6142, 1460, -14476, 4364, 2970, -1776, -1239, 1138, -1373, -4518, 174, 122, 373, 307, 520, 478, 225, 313
253114886, 6142, 1460, -14476, 4364, 2970, -1776, -1239, 1138, -1373, -4518, 185, 99, 306, 591, 383, 387, 217, 335
253115792, 6142, 1460, -14476, 4364, 2970, -1776, -1239, 1138, -1373, -4518, 185, 99, 306, 591, 383, 387, 217, 335
253129080, 6124, 2268, -14431, 4189, 3538, -1627, -1390, 839, -1430, -4357, 185, 99, 306, 591, 383, 387, 217, 335
253129919, 6124, 2268, -14431, 4189, 3538, -1627, -1390, 839, -1430, -4357, 194, 68, 236, 706, 411, 343, 242, 336
253130718, 6124, 2268, -14431, 4189, 3538, -1627, -1390, 839, -1430, -4357, 194, 68, 236, 706, 411, 343, 242, 336
253151552, 6083, 3053, -14361, 3983, 3554, -1377, -1507, 695, -1477, -4300, 194, 68, 236, 706, 411, 343, 242, 336
253152377, 6083, 3053, -14361, 3983, 3554, -1377, -1507, 695, -1477, -4300, 191, 64, 231, 758, 351, 319, 228, 315
253153192, 6083, 3053, -14361, 3983, 3554, -1377, -1507, 695, -1477, -4300, 191, 64, 231, 758, 351, 319, 228, 315
253174087, 5983, 3835, -14281, 3737, 3371, -1168, -1418, 567, -1789, -4321, 191, 64, 231, 758, 351, 319, 228, 315
253174892, 5983, 3835, -14281, 3737, 3371, -1168, -1418, 567, -1789, -4321, 183, 61, 205, 754, 315, 290, 307, 333
253175722, 5983, 3835, -14281, 3737, 3371, -1168, -1418, 567, -1789, -4321, 183, 61, 205, 754, 315, 290, 307, 333
253189068, 5824, 4567, -14203, 3455, 3629, -1047, -1486, 361, -2095, -4074, 183, 61, 205, 754, 315, 290, 307, 333
253189899, 5824, 4567, -14203, 3455, 3629, -1047, -1486, 361, -2095, -4074, 173, 61, 198, 716, 336, 285, 350, 321
253190723, 5824, 4567, -14203, 3455, 3629, -1047, -1486, 361, -2095, -4074, 173, 61, 198, 716, 336, 285, 350, 321
253211561, 5647, 5214, -14119, 3164, 3632, -956, -1702, 183, -2084, -3682, 173, 61, 198, 716, 336, 285, 350, 321
253212348, 5647, 5214, -14119, 3164, 3632, -956, -1702, 183, -2084, -3682, 164, 62, 196, 508, 316, 373, 377, 366
253213190, 5647, 5214, -14119, 3164, 3632, -956, -1702, 183, -2084, -3682, 164, 62, 196, 508, 316, 373, 377, 366
253234105, 5445, 5825, -14023, 2867, 3448, -813, -1645, 138, -2160, -3523, 164, 62, 196, 508, 316, 373, 377, 366
253234892, 5445, 5825, -14023, 2867, 3448, -813, -1645, 138, -2160, -3523, 182, 90, 230, 329, 226, 367, 388, 447
253235708, 5445, 5825, -14023, 2867, 3448, -813, -1645, 138, -2160, -3523, 182, 90, 230, 329, 226, 367, 388, 447
253249093, 5202, 6383, -13932, 2558, 3302, -730, -1668, 55, -2344, -3257, 182, 90, 230, 329, 226, 367, 388, 447
253249866, 5202, 6383, -13932, 2558, 3302, -730, -1668, 55, -2344, -3257, 175, 95, 274, 174, 220, 372, 405, 536
253250725, 5202, 6383, -13932, 2558, 3302, -730, -1668, 55, -2344, -3257, 175, 95, 274, 174, 220, 372, 405, 536
253271535, 4921, 6882, -13848, 2258, 3681, -556, -1731, 76, -2523, -2905, 175, 95, 274, 174, 220, 372, 405, 536
253272385, 4921, 6882, -13848, 2258, 3681, -556, -1731, 76, -2523, -2905, 235, 99, 271, 133, 223, 373, 368, 656
253273190, 4921, 6882, -13848, 2258, 3681, -556, -1731, 76, -2523, -2905, 235, 99, 271, 133, 223, 373, 368, 656
253294097, 4624, 7312, -13765, 2026, 3701, -521, -1822, 312, -2401, -2457, 235, 99, 271, 133, 223, 373, 368, 656
253294868, 4624, 7312, -13765, 2026, 3701, -521, -1822, 312, -2401, -2457, 304, 100, 260, 131, 156, 364, 323, 786
253295717, 4624, 7312, -13765, 2026, 3701, -521, -1822, 312, -2401, -2457, 304, 100, 260, 131, 156, 364, 323, 786
253309045, 4344, 7687, -13680, 1828, 3724, -350, -1869, 358, -2220, -2154, 304, 100, 260, 131, 156, 364, 323, 786
253309866, 4344, 7687, -13680, 1828, 3724, -350, -1869, 358, -2220, -2154, 328, 105, 265, 117, 142, 299, 322, 1088
253310671, 4344, 7687, -13680, 1828, 3724, -350, -1869, 358, -2220, -2154, 328, 105, 265, 117, 142, 299, 322, 1088
253331598, 4087, 7981, -13616, 1624, 3336, -287, -1978, 141, -2077, -1743, 328, 105, 265, 117, 142, 299, 322, 1088
253332393, 4087, 7981, -13616, 1624, 3336, -287, -1978, 141, -2077, -1743, 379, 85, 235, 134, 142, 283, 294, 1079
253333260, 4087, 7981, -13616, 1624, 3336, -287, -1978, 141, -2077, -1743, 379, 85, 235, 134, 142, 283, 294, 1079
253354082, 3823, 8199, -13583, 1440, 3589, -111, -1987, 149, -2099, -1266, 379, 85, 235, 134, 142, 283, 294, 1079
253354914, 3823, 8199, -13583, 1440, 3589, -111, -1987, 149, -2099, -1266, 559, 90, 189, 148, 150, 270, 269, 1056
253355673, 3823, 8199, -13583, 1440, 3589, -111, -1987, 149, -2099, -1266, 559, 90, 189, 148, 150, 270, 269, 1056
253369074, 3570, 8355, -13573, 1282, 3576, -163, -2089, 133, -1989, -889, 559, 90, 189, 148, 150, 270, 269, 1056
253369868, 3570, 8355, -13573, 1282, 3576, -163, -2089, 133, -1989, -889, 823, 103, 187, 151, 147, 262, 275, 993
253370662, 3570, 8355, -13573, 1282, 3576, -163, -2089, 133, -1989, -889, 823, 103, 187, 151, 147, 262, 275, 993
253391589, 3352, 8452, -13580, 1159, 3871, -158, -2194, 120, -1765, -546, 823, 103, 187, 151, 147, 262, 275, 993
253392416, 3352, 8452, -13580, 1159, 3871, -158, -2194, 120, -1765, -546, 951, 112, 183, 173, 166, 279, 295, 925
253393219, 3352, 8452, -13580, 1159, 3871, -158, -2194, 120, -1765, -546, 951, 112, 183, 173, 166, 279, 295, 925
253414045, 3285, 8476, -13580, 1175, 3459, -169, -2237, 98, -1529, -278, 951, 112, 183, 173, 166, 279, 295, 925
253414840, 3285, 8476, -13580, 1175, 3459, -169, -2237, 98, -1529, -278, 1084, 126, 201, 184, 166, 244, 286, 567
253415670, 3285, 8476, -13580, 1175, 3459, -169, -2237, 98, -1529, -278, 1084, 126, 201, 184, 166, 244, 286, 567
253429052, 3213, 8495, -13578, 1259, 3691, -161, -2377, 440, -1441, -178, 1084, 126, 201, 184, 166, 244, 286, 567
253429867, 3213, 8495, -13578, 1259, 3691, -161, -2377, 440, -1441, -178, 1264, 124, 209, 181, 157, 222, 317, 579
253430672, 3213, 8495, -13578, 1259, 3691, -161, -2377, 440, -1441, -178, 1264, 124, 209, 181, 157, 222, 317, 579
253451583, 3005, 8550, -13597, 1190, 3844, -126, -2534, 331, -1211, -186, 1264, 124, 209, 181, 157, 222, 317, 579
253452369, 3005, 8550, -13597, 1190, 3844, -126, -2534, 331, -1211, -186, 1244, 146, 199, 170, 143, 226, 321, 581
253453183, 3005, 8550, -13597, 1190, 3844, -126, -2534, 331, -1211, -186, 1244, 146, 199, 170, 143, 226, 321, 581
253474061, 3068, 8556, -13574, 1253, 3675, -99, -2602, -28, -825, -219, 1244, 146, 199, 170, 143, 226, 321, 581
253474864, 3068, 8556, -13574, 1253, 3675, -99, -2602, -28, -825, -219, 1098, 145, 216, 170, 137, 218, 292, 583
253475692, 3068, 8556, -13574, 1253, 3675, -99, -2602, -28, -825, -219, 1098, 145, 216, 170, 137, 218, 292, 583
253487733, 3181, 8541, -13550, 1330, 3748, -182, -2543, -173, -561, -157, 1098, 145, 216, 170, 137, 218, 292, 583
253495897, 3181, 8541, -13550, 1330, 3748, -182, -2543, -173, -561, -157, 985, 144, 220, 148, 99, 174, 258, 570
253496697, 3181, 8541, -13550, 1330, 3748, -182, -2543, -173, -561, -157, 985, 144, 220, 148, 99, 174, 258, 570
253510195, 3294, 8500, -13534, 1472, 3740, -268, -2598, 70, -308, 57, 985, 144, 220, 148, 99, 174, 258, 570
253518372, 3294, 8500, -13534, 1472, 3740, -268, -2598, 70, -308, 57, 839, 131, 191, 140, 93, 177, 228, 514
253519167, 3294, 8500, -13534, 1472, 3740, -268, -2598, 70, -308, 57, 839, 131, 191, 140, 93, 177, 228, 514
253534106, 3420, 8452, -13515, 1627, 3732, -179, -2591, 144, -146, 121, 839, 131, 191, 140, 93, 177, 228, 514
253534883, 3420, 8452, -13515, 1627, 3732, -179, -2591, 144, -146, 121, 504, 134, 185, 120, 99, 162, 175, 445
253535702, 3420, 8452, -13515, 1627, 3732, -179, -2591, 144, -146, 121, 504, 134, 185, 120, 99, 162, 175, 445
253547822, 3562, 8419, -13482, 1759, 3683, -199, -2587, 8, -55, -21, 504, 134, 185, 120, 99, 162, 175, 445
253555875, 3562, 8419, -13482, 1759, 3683, -199, -2587, 8, -55, -21, 403, 106, 187, 119, 94, 137, 161, 388
253556667, 3562, 8419, -13482, 1759, 3683, -199, -2587, 8, -55, -21, 403, 106, 187, 119, 94, 137, 161, 388
253570243, 3716, 8391, -13441, 1886, 3750, -243, -2555, -47, 5, -85, 403, 106, 187, 119, 94, 137, 161, 388
253578323, 3716, 8391, -13441, 1886, 3750, -243, -2555, -47, 5, -85, 372, 109, 176, 128, 97, 128, 157, 377
253579169, 3716, 8391, -13441, 1886, 3750, -243, -2555, -47, 5, -85, 372, 109, 176, 128, 97, 128, 157, 377
253594075, 3874, 8358, -13397, 2021, 3822, -258, -2581, -32, 82, -62, 372, 109, 176, 128, 97, 128, 157, 377
253594844, 3874, 8358, -13397, 2021, 3822, -258, -2581, -32, 82, -62, 397, 115, 175, 125, 93, 119, 150, 331
253595712, 3874, 8358, -13397, 2021, 3822, -258, -2581, -32, 82, -62, 397, 115, 175, 125, 93, 119, 150, 331
253607697, 4035, 8309, -13359, 2158, 3802, -250, -2566, -42, 173, 37, 397, 115, 175, 125, 93, 119, 150, 331
253615871, 4035, 8309, -13359, 2158, 3802, -250, -2566, -42, 173, 37, 382, 120, 179, 116, 87, 107, 164, 310
253616673, 4035, 8309, -13359, 2158, 3802, -250, -2566, -42, 173, 37, 382, 120, 179, 116, 87, 107, 164, 310
253630220, 4184, 8250, -13327, 2291, 3783, -260, -2533, -37, 170, 102, 382, 120, 179, 116, 87, 107, 164, 310
253638398, 4184, 8250, -13327, 2291, 3783, -260, -2533, -37, 170, 102, 364, 135, 192, 112, 75, 102, 177, 311
253639169, 4184, 8250, -13327, 2291, 3783, -260, -2533, -37, 170, 102, 364, 135, 192, 112, 75, 102, 177, 311
253645324, 4308, 8196, -13296, 2434, 3841, -274, -2495, 89, 87, 129, 364, 135, 192, 112, 75, 102, 177, 311
253653367, 4308, 8196, -13296, 2434, 3841, -274, -2495, 89, 87, 129, 365, 130, 192, 110, 77, 83, 161, 324
253654219, 4308, 8196, -13296, 2434, 3841, -274, -2495, 89, 87, 129, 365, 130, 192, 110, 77, 83, 161, 324
253667711, 4416, 8151, -13262, 2573, 3900, -239, -2555, 165, 48, 112, 365, 130, 192, 110, 77, 83, 161, 324
253675867, 4416, 8151, -13262, 2573, 3900, -239, -2555, 165, 48, 112, 373, 123, 174, 79, 66, 93, 168, 316
253676710, 4416, 8151, -13262, 2573, 3900, -239, -2555, 165, 48, 112, 373, 123, 174, 79, 66, 93, 168, 316
253690178, 4531, 8110, -13224, 2692, 3902, -247, -2593, 65, 86, 56, 373, 123, 174, 79, 66, 93, 168, 316
253698350, 4531, 8110, -13224, 2692, 3902, -247, -2593, 65, 86, 56, 328, 109, 155, 71, 63, 87, 166, 272
253699167, 4531, 8110, -13224, 2692, 3902, -247, -2593, 65, 86, 56, 328, 109, 155, 71, 63, 87, 166, 272
253705348, 4656, 8067, -13185, 2800, 3874, -263, -2576, -11, 159, 29, 328, 109, 155, 71, 63, 87, 166, 272
253713368, 4656, 8067, -13185, 2800, 3874, -263, -2576, -11, 159, 29, 317, 100, 147, 67, 59, 86, 138, 253
253714192, 4656, 8067, -13185, 2800, 3874, -263, -2576, -11, 159, 29, 317, 100, 147, 67, 59, 86, 138, 253
253727694, 4773, 8027, -13145, 2905, 3840, -268, -2525, 4, 169, 25, 317, 100, 147, 67, 59, 86, 138, 253
253735883, 4773, 8027, -13145, 2905, 3840, -268, -2525, 4, 169, 25, 311, 75, 115, 66, 60, 107, 101, 256
253736671, 4773, 8027, -13145, 2905, 3840, -268, -2525, 4, 169, 25, 311, 75, 115, 66, 60, 107, 101, 256
253750321, 4877, 7990, -13104, 3016, 3818, -249, -2463, 94, 157, 51, 311, 75, 115, 66, 60, 107, 101, 256
253758358, 4877, 7990, -13104, 3016, 3818, -249, -2463, 94, 157, 51, 320, 78, 107, 63, 56, 110, 107, 268
253759142, 4877, 7990, -13104, 3016, 3818, -249, -2463, 94, 157, 51, 320, 78, 107, 63, 56, 110, 107, 268
253765306, 4982, 7957, -13058, 3127, 3789, -228, -2460, 120, 219, 28, 320, 78, 107, 63, 56, 110, 107, 268
253773348, 4982, 7957, -13058, 3127, 3789, -228, -2460, 120, 219, 28, 293, 72, 121, 73, 52, 112, 112, 236
253774205, 4982, 7957, -13058, 3127, 3789, -228, -2460, 120, 219, 28, 293, 72, 121, 73, 52, 112, 112, 236
253787819, 5104, 7917, -13005, 3251, 3800, -200, -2427, 147, 395, 71, 293, 72, 121, 73, 52, 112, 112, 236
253795857, 5104, 7917, -13005, 3251, 3800, -200, -2427, 147, 395, 71, 270, 69, 136, 66, 54, 111, 117, 243
253796668, 5104, 7917, -13005, 3251, 3800, -200, -2427, 147, 395, 71, 270, 69, 136, 66, 54, 111, 117, 243
253810220, 5241, 7865, -12946, 3393, 3829, -203, -2377, 181, 564, 122, 270, 69, 136, 66, 54, 111, 117, 243
253818358, 5241, 7865, -12946, 3393, 3829, -203, -2377, 181, 564, 122, 293, 73, 140, 68, 56, 112, 118, 255
253819165, 5241, 7865, -12946, 3393, 3829, -203, -2377, 181, 564, 122, 293, 73, 140, 68, 56, 112, 118, 255
253834053, 5384, 7797, -12889, 3540, 3743, -224, -2341, 159, 700, 211, 293, 73, 140, 68, 56, 112, 118, 255
253834831, 5384, 7797, -12889, 3540, 3743, -224, -2341, 159, 700, 211, 296, 71, 142, 67, 55, 84, 113, 233
253835660, 5384, 7797, -12889, 3540, 3743, -224, -2341, 159, 700, 211, 296, 71, 142, 67, 55, 84, 113, 233
