Timestamp, Orientation x, Orientation y, Orientation z, Orientation w, Acceleration x, Acceleration y, Acceleration z, Rotation x, Rotation y, Rotation z, EMG 0, EMG 1, EMG 2, EMG 3, EMG 4, EMG 5, EMG 6, EMG 7
144891949, 7776, 691, -13512, 4992, 2431, -1528, -1218, -18, 116, -264, 0, 0, 0, 0, 0, 0, 0, 0
144892781, 7800, 714, -13510, 4957, 2458, -1530, -1219, -101, 120, -302, 0, 0, 0, 0, 0, 0, 0, 0
144906318, 7826, 731, -13510, 4913, 2486, -1553, -1206, -174, 123, -323, 0, 0, 0, 0, 0, 0, 0, 0
144928807, 7855, 748, -13510, 4862, 2522, -1590, -1193, -227, 123, -362, 0, 0, 0, 0, 0, 0, 0, 0
144943824, 7879, 764, -13517, 4801, 2565, -1631, -1211, -295, 82, -395, 0, 0, 0, 0, 0, 0, 0, 0
144959418, 7879, 764, -13517, 4801, 2565, -1631, -1211, -295, 82, -395, 108, 31, 32, 47, 148, 138, 115, 97
144960206, 7879, 764, -13517, 4801, 2565, -1631, -1211, -295, 82, -395, 108, 31, 32, 47, 148, 138, 115, 97
144966373, 7899, 785, -13528, 4735, 2604, -1648, -1230, -314, 42, -436, 108, 31, 32, 47, 148, 138, 115, 97
144981881, 7899, 785, -13528, 4735, 2604, -1648, -1230, -314, 42, -436, 108, 29, 32, 48, 144, 140, 129, 98
144982707, 7899, 785, -13528, 4735, 2604, -1648, -1230, -314, 42, -436, 108, 29, 32, 48, 144, 140, 129, 98
144988861, 7911, 813, -13546, 4657, 2630, -1649, -1267, -358, -21, -495, 108, 29, 32, 48, 144, 140, 129, 98
145005135, 7911, 813, -13546, 4657, 2630, -1649, -1267, -358, -21, -495, 101, 33, 33, 48, 147, 146, 131, 78
145005935, 7911, 813, -13546, 4657, 2630, -1649, -1267, -358, -21, -495, 101, 33, 33, 48, 147, 146, 131, 78
145006847, 7917, 847, -13571, 4566, 2708, -1714, -1302, -435, -90, -578, 101, 33, 33, 48, 147, 146, 131, 78
145019408, 7917, 847, -13571, 4566, 2708, -1714, -1302, -435, -90, -578, 59, 33, 33, 49, 137, 144, 123, 72
145020168, 7917, 847, -13571, 4566, 2708, -1714, -1302, -435, -90, -578, 59, 33, 33, 49, 137, 144, 123, 72
145026361, 7925, 880, -13602, 4455, 2750, -1772, -1337, -560, -101, -667, 59, 33, 33, 49, 137, 144, 123, 72
145041843, 7925, 880, -13602, 4455, 2750, -1772, -1337, -560, -101, -667, 53, 30, 33, 47, 111, 132, 130, 72
145042682, 7925, 880, -13602, 4455, 2750, -1772, -1337, -560, -101, -667, 53, 30, 33, 47, 111, 132, 130, 72
145048865, 7930, 923, -13638, 4325, 2807, -1787, -1409, -631, -139, -782, 53, 30, 33, 47, 111, 132, 130, 72
145065095, 7930, 923, -13638, 4325, 2807, -1787, -1409, -631, -139, -782, 107, 29, 29, 36, 87, 106, 126, 68
145065879, 7930, 923, -13638, 4325, 2807, -1787, -1409, -631, -139, -782, 107, 29, 29, 36, 87, 106, 126, 68
145066847, 7932, 974, -13680, 4173, 2878, -1776, -1479, -727, -179, -880, 107, 29, 29, 36, 87, 106, 126, 68
145079406, 7932, 974, -13680, 4173, 2878, -1776, -1479, -727, -179, -880, 123, 29, 31, 36, 87, 102, 126, 156
145080193, 7932, 974, -13680, 4173, 2878, -1776, -1479, -727, -179, -880, 123, 29, 31, 36, 87, 102, 126, 156
145086372, 7941, 1023, -13723, 4002, 2912, -1814, -1518, -850, -155, -983, 123, 29, 31, 36, 87, 102, 126, 156
145101850, 7941, 1023, -13723, 4002, 2912, -1814, -1518, -850, -155, -983, 126, 23, 27, 35, 76, 88, 178, 199
145102697, 7941, 1023, -13723, 4002, 2912, -1814, -1518, -850, -155, -983, 126, 23, 27, 35, 76, 88, 178, 199
145108849, 7955, 1071, -13767, 3805, 2946, -1801, -1566, -994, -142, -1075, 126, 23, 27, 35, 76, 88, 178, 199
145125106, 7955, 1071, -13767, 3805, 2946, -1801, -1566, -994, -142, -1075, 126, 36, 28, 33, 71, 83, 192, 227
145125931, 7955, 1071, -13767, 3805, 2946, -1801, -1566, -994, -142, -1075, 126, 36, 28, 33, 71, 83, 192, 227
145126857, 7975, 1119, -13809, 3589, 3005, -1793, -1609, -1109, -123, -1173, 126, 36, 28, 33, 71, 83, 192, 227
145139368, 7975, 1119, -13809, 3589, 3005, -1793, -1609, -1109, -123, -1173, 124, 36, 35, 31, 63, 80, 233, 253
145140209, 7975, 1119, -13809, 3589, 3005, -1793, -1609, -1109, -123, -1173, 124, 36, 35, 31, 63, 80, 233, 253
145146321, 8004, 1169, -13849, 3350, 3024, -1753, -1627, -1231, -95, -1279, 124, 36, 35, 31, 63, 80, 233, 253
145161875, 8004, 1169, -13849, 3350, 3024, -1753, -1627, -1231, -95, -1279, 81, 47, 35, 35, 61, 88, 237, 258
145162676, 8004, 1169, -13849, 3350, 3024, -1753, -1627, -1231, -95, -1279, 81, 47, 35, 35, 61, 88, 237, 258
145168848, 8036, 1202, -13884, 3108, 3045, -1762, -1652, -1317, -50, -1268, 81, 47, 35, 35, 61, 88, 237, 258
145185065, 8036, 1202, -13884, 3108, 3045, -1762, -1652, -1317, -50, -1268, 58, 57, 35, 40, 64, 116, 274, 227
145185852, 8036, 1202, -13884, 3108, 3045, -1762, -1652, -1317, -50, -1268, 58, 57, 35, 40, 64, 116, 274, 227
145186797, 8068, 1199, -13914, 2881, 3069, -1867, -1639, -1398, -13, -1141, 58, 57, 35, 40, 64, 116, 274, 227
145199393, 8068, 1199, -13914, 2881, 3069, -1867, -1639, -1398, -13, -1141, 51, 58, 36, 40, 65, 122, 310, 204
145200212, 8068, 1199, -13914, 2881, 3069, -1867, -1639, -1398, -13, -1141, 51, 58, 36, 40, 65, 122, 310, 204
145206372, 8120, 1187, -13929, 2662, 2977, -1746, -1570, -1375, 125, -1102, 51, 58, 36, 40, 65, 122, 310, 204
145221869, 8120, 1187, -13929, 2662, 2977, -1746, -1570, -1375, 125, -1102, 53, 54, 40, 43, 67, 122, 367, 183
145222722, 8120, 1187, -13929, 2662, 2977, -1746, -1570, -1375, 125, -1102, 53, 54, 40, 43, 67, 122, 367, 183
145236376, 8165, 1175, -13940, 2461, 2892, -1626, -1622, -1269, 157, -1028, 53, 54, 40, 43, 67, 122, 367, 183
145245086, 8165, 1175, -13940, 2461, 2892, -1626, -1622, -1269, 157, -1028, 54, 75, 41, 46, 67, 130, 428, 296
145245895, 8165, 1175, -13940, 2461, 2892, -1626, -1622, -1269, 157, -1028, 54, 75, 41, 46, 67, 130, 428, 296
145246795, 8197, 1146, -13954, 2287, 3012, -1630, -1741, -1193, 133, -889, 54, 75, 41, 46, 67, 130, 428, 296
145259396, 8197, 1146, -13954, 2287, 3012, -1630, -1741, -1193, 133, -889, 120, 69, 41, 46, 68, 131, 472, 396
145260193, 8197, 1146, -13954, 2287, 3012, -1630, -1741, -1193, 133, -889, 120, 69, 41, 46, 68, 131, 472, 396
145266386, 8232, 1100, -13965, 2108, 3147, -1585, -1809, -1264, 171, -813, 120, 69, 41, 46, 68, 131, 472, 396
145281868, 8232, 1100, -13965, 2108, 3147, -1585, -1809, -1264, 171, -813, 183, 63, 41, 38, 62, 121, 498, 416
145282710, 8232, 1100, -13965, 2108, 3147, -1585, -1809, -1264, 171, -813, 183, 63, 41, 38, 62, 121, 498, 416
145288845, 8308, 1037, -13946, 1959, 3245, -1575, -1698, -1175, 404, -704, 183, 63, 41, 38, 62, 121, 498, 416
145305096, 8308, 1037, -13946, 1959, 3245, -1575, -1698, -1175, 404, -704, 230, 84, 44, 39, 63, 126, 499, 431
145305893, 8308, 1037, -13946, 1959, 3245, -1575, -1698, -1175, 404, -704, 230, 84, 44, 39, 63, 126, 499, 431
145306874, 8422, 934, -13902, 1832, 3106, -1539, -1588, -1182, 698, -492, 230, 84, 44, 39, 63, 126, 499, 431
145319359, 8422, 934, -13902, 1832, 3106, -1539, -1588, -1182, 698, -492, 238, 83, 42, 40, 66, 138, 533, 445
145320176, 8422, 934, -13902, 1832, 3106, -1539, -1588, -1182, 698, -492, 238, 83, 42, 40, 66, 138, 533, 445
145326334, 8546, 800, -13848, 1733, 2910, -1399, -1569, -1096, 864, -235, 238, 83, 42, 40, 66, 138, 533, 445
145341869, 8546, 800, -13848, 1733, 2910, -1399, -1569, -1096, 864, -235, 240, 65, 35, 38, 59, 128, 545, 383
145342646, 8546, 800, -13848, 1733, 2910, -1399, -1569, -1096, 864, -235, 240, 65, 35, 38, 59, 128, 545, 383
145348813, 8655, 639, -13794, 1683, 2835, -1367, -1680, -905, 926, 57, 240, 65, 35, 38, 59, 128, 545, 383
145365040, 8655, 639, -13794, 1683, 2835, -1367, -1680, -905, 926, 57, 232, 69, 38, 54, 60, 128, 552, 283
145365908, 8655, 639, -13794, 1683, 2835, -1367, -1680, -905, 926, 57, 232, 69, 38, 54, 60, 128, 552, 283
145366795, 8788, 450, -13722, 1650, 2893, -1333, -1565, -885, 1071, 253, 232, 69, 38, 54, 60, 128, 552, 283
145379420, 8788, 450, -13722, 1650, 2893, -1333, -1565, -885, 1071, 253, 223, 83, 41, 78, 67, 140, 652, 253
145380193, 8788, 450, -13722, 1650, 2893, -1333, -1565, -885, 1071, 253, 223, 83, 41, 78, 67, 140, 652, 253
145386364, 8946, 251, -13623, 1661, 2808, -1335, -1476, -687, 1302, 421, 223, 83, 41, 78, 67, 140, 652, 253
145401903, 8946, 251, -13623, 1661, 2808, -1335, -1476, -687, 1302, 421, 432, 64, 41, 95, 71, 142, 665, 271
145402726, 8946, 251, -13623, 1661, 2808, -1335, -1476, -687, 1302, 421, 432, 64, 41, 95, 71, 142, 665, 271
145408845, 9117, 56, -13505, 1710, 2710, -1167, -1477, -414, 1480, 608, 432, 64, 41, 95, 71, 142, 665, 271
145425116, 9117, 56, -13505, 1710, 2710, -1167, -1477, -414, 1480, 608, 541, 87, 48, 104, 84, 181, 732, 332
145425893, 9117, 56, -13505, 1710, 2710, -1167, -1477, -414, 1480, 608, 541, 87, 48, 104, 84, 181, 732, 332
145426857, 9331, -126, -13347, 1791, 2569, -1164, -1486, -123, 1659, 880, 541, 87, 48, 104, 84, 181, 732, 332
145439343, 9331, -126, -13347, 1791, 2569, -1164, -1486, -123, 1659, 880, 543, 98, 51, 110, 88, 183, 695, 337
145440209, 9331, -126, -13347, 1791, 2569, -1164, -1486, -123, 1659, 880, 543, 98, 51, 110, 88, 183, 695, 337
145446321, 9548, -345, -13174, 1898, 2344, -1159, -1398, -103, 1751, 1135, 543, 98, 51, 110, 88, 183, 695, 337
145461871, 9548, -345, -13174, 1898, 2344, -1159, -1398, -103, 1751, 1135, 541, 100, 59, 127, 90, 183, 688, 353
145462671, 9548, -345, -13174, 1898, 2344, -1159, -1398, -103, 1751, 1135, 541, 100, 59, 127, 90, 183, 688, 353
145468865, 9741, -578, -13003, 2034, 2162, -982, -1412, -5, 1664, 1333, 541, 100, 59, 127, 90, 183, 688, 353
145485049, 9741, -578, -13003, 2034, 2162, -982, -1412, -5, 1664, 1333, 531, 90, 59, 135, 96, 165, 604, 356
145485918, 9741, -578, -13003, 2034, 2162, -982, -1412, -5, 1664, 1333, 531, 90, 59, 135, 96, 165, 604, 356
145486825, 9855, -829, -12873, 2222, 2034, -1044, -1298, 157, 1476, 1455, 531, 90, 59, 135, 96, 165, 604, 356
145499419, 9855, -829, -12873, 2222, 2034, -1044, -1298, 157, 1476, 1455, 358, 103, 60, 128, 99, 174, 584, 335
145500210, 9855, -829, -12873, 2222, 2034, -1044, -1298, 157, 1476, 1455, 358, 103, 60, 128, 99, 174, 584, 335
145506377, 9939, -1055, -12751, 2442, 1888, -1062, -1180, 385, 1264, 1489, 358, 103, 60, 128, 99, 174, 584, 335
145521880, 9939, -1055, -12751, 2442, 1888, -1062, -1180, 385, 1264, 1489, 162, 98, 57, 131, 107, 142, 464, 261
145522705, 9939, -1055, -12751, 2442, 1888, -1062, -1180, 385, 1264, 1489, 162, 98, 57, 131, 107, 142, 464, 261
145528885, 9993, -1247, -12649, 2651, 1853, -760, -1081, 479, 1009, 1507, 162, 98, 57, 131, 107, 142, 464, 261
145545068, 9993, -1247, -12649, 2651, 1853, -760, -1081, 479, 1009, 1507, 161, 111, 59, 150, 135, 185, 571, 244
145545852, 9993, -1247, -12649, 2651, 1853, -760, -1081, 479, 1009, 1507, 161, 111, 59, 150, 135, 185, 571, 244
145546812, 10050, -1415, -12528, 2911, 1873, -711, -1027, 715, 779, 1618, 161, 111, 59, 150, 135, 185, 571, 244
145558716, 10050, -1415, -12528, 2911, 1873, -711, -1027, 715, 779, 1618, 151, 110, 49, 133, 133, 186, 626, 239
145566959, 10050, -1415, -12528, 2911, 1873, -711, -1027, 715, 779, 1618, 151, 110, 49, 133, 133, 186, 626, 239
145567858, 10071, -1578, -12425, 3184, 1884, -701, -984, 760, 549, 1688, 151, 110, 49, 133, 133, 186, 626, 239
145581854, 10071, -1578, -12425, 3184, 1884, -701, -984, 760, 549, 1688, 151, 112, 50, 122, 138, 199, 635, 231
145582683, 10071, -1578, -12425, 3184, 1884, -701, -984, 760, 549, 1688, 151, 112, 50, 122, 138, 199, 635, 231
145588861, 10067, -1756, -12335, 3443, 1836, -689, -881, 621, 413, 1724, 151, 112, 50, 122, 138, 199, 635, 231
145605077, 10067, -1756, -12335, 3443, 1836, -689, -881, 621, 413, 1724, 146, 117, 49, 147, 168, 198, 645, 220
145605894, 10067, -1756, -12335, 3443, 1836, -689, -881, 621, 413, 1724, 146, 117, 49, 147, 168, 198, 645, 220
145606821, 10038, -1948, -12258, 3692, 1651, -834, -880, 497, 288, 1759, 146, 117, 49, 147, 168, 198, 645, 220
145618695, 10038, -1948, -12258, 3692, 1651, -834, -880, 497, 288, 1759, 132, 108, 43, 145, 157, 197, 679, 212
145626914, 10038, -1948, -12258, 3692, 1651, -834, -880, 497, 288, 1759, 132, 108, 43, 145, 157, 197, 679, 212
145627841, 9972, -2124, -12198, 3963, 1538, -1061, -826, 602, 38, 1772, 132, 108, 43, 145, 157, 197, 679, 212
145641868, 9972, -2124, -12198, 3963, 1538, -1061, -826, 602, 38, 1772, 125, 87, 42, 168, 156, 173, 625, 212
145642710, 9972, -2124, -12198, 3963, 1538, -1061, -826, 602, 38, 1772, 125, 87, 42, 168, 156, 173, 625, 212
145648845, 9880, -2262, -12141, 4277, 1593, -1191, -650, 872, -190, 1801, 125, 87, 42, 168, 156, 173, 625, 212
145665031, 9880, -2262, -12141, 4277, 1593, -1191, -650, 872, -190, 1801, 121, 90, 41, 171, 165, 176, 554, 192
145665984, 9880, -2262, -12141, 4277, 1593, -1191, -650, 872, -190, 1801, 121, 90, 41, 171, 165, 176, 554, 192
145666807, 9766, -2347, -12068, 4681, 1587, -1341, -647, 1433, -372, 1922, 121, 90, 41, 171, 165, 176, 554, 192
145687549, 9766, -2347, -12068, 4681, 1587, -1341, -647, 1433, -372, 1922, 111, 88, 36, 169, 159, 164, 560, 219
145688370, 9766, -2347, -12068, 4681, 1587, -1341, -647, 1433, -372, 1922, 111, 88, 36, 169, 159, 164, 560, 219
145689321, 9627, -2414, -11982, 5135, 1501, -1385, -666, 1713, -493, 2069, 111, 88, 36, 169, 159, 164, 560, 219
145701831, 9627, -2414, -11982, 5135, 1501, -1385, -666, 1713, -493, 2069, 106, 74, 40, 150, 139, 157, 545, 209
145702647, 9627, -2414, -11982, 5135, 1501, -1385, -666, 1713, -493, 2069, 106, 74, 40, 150, 139, 157, 545, 209
145708887, 9447, -2509, -11896, 5602, 1322, -1313, -712, 1644, -620, 2303, 106, 74, 40, 150, 139, 157, 545, 209
145725027, 9447, -2509, -11896, 5602, 1322, -1313, -712, 1644, -620, 2303, 86, 85, 44, 155, 161, 158, 498, 202
145725850, 9447, -2509, -11896, 5602, 1322, -1313, -712, 1644, -620, 2303, 86, 85, 44, 155, 161, 158, 498, 202
145726794, 9218, -2637, -11826, 6055, 1155, -1432, -700, 1416, -795, 2456, 86, 85, 44, 155, 161, 158, 498, 202
145747601, 9218, -2637, -11826, 6055, 1155, -1432, -700, 1416, -795, 2456, 101, 84, 46, 100, 148, 144, 485, 192
145748368, 9218, -2637, -11826, 6055, 1155, -1432, -700, 1416, -795, 2456, 101, 84, 46, 100, 148, 144, 485, 192
145749347, 8938, -2777, -11775, 6495, 949, -1577, -652, 1233, -1032, 2537, 101, 84, 46, 100, 148, 144, 485, 192
145761842, 8938, -2777, -11775, 6495, 949, -1577, -652, 1233, -1032, 2537, 130, 83, 50, 98, 164, 160, 489, 187
145762657, 8938, -2777, -11775, 6495, 949, -1577, -652, 1233, -1032, 2537, 130, 83, 50, 98, 164, 160, 489, 187
145768794, 8592, -2909, -11756, 6924, 633, -1613, -745, 1100, -1391, 2567, 130, 83, 50, 98, 164, 160, 489, 187
145785061, 8592, -2909, -11756, 6924, 633, -1613, -745, 1100, -1391, 2567, 132, 88, 56, 92, 171, 158, 446, 159
145785869, 8592, -2909, -11756, 6924, 633, -1613, -745, 1100, -1391, 2567, 132, 88, 56, 92, 171, 158, 446, 159
145786791, 8144, -3027, -11790, 7345, 304, -1582, -887, 896, -1976, 2654, 132, 88, 56, 92, 171, 158, 446, 159
145807519, 8144, -3027, -11790, 7345, 304, -1582, -887, 896, -1976, 2654, 139, 78, 56, 91, 189, 157, 440, 195
145808373, 8144, -3027, -11790, 7345, 304, -1582, -887, 896, -1976, 2654, 139, 78, 56, 91, 189, 157, 440, 195
145809271, 7585, -3158, -11891, 7715, 392, -1520, -994, 379, -2524, 2804, 139, 78, 56, 91, 189, 157, 440, 195
145821870, 7585, -3158, -11891, 7715, 392, -1520, -994, 379, -2524, 2804, 144, 66, 57, 77, 174, 165, 423, 197
145822670, 7585, -3158, -11891, 7715, 392, -1520, -994, 379, -2524, 2804, 144, 66, 57, 77, 174, 165, 423, 197
145828862, 6951, -3308, -12050, 7998, 741, -1671, -975, -260, -2860, 2838, 144, 66, 57, 77, 174, 165, 423, 197
145845072, 6951, -3308, -12050, 7998, 741, -1671, -975, -260, -2860, 2838, 131, 76, 52, 78, 229, 164, 368, 183
145845877, 6951, -3308, -12050, 7998, 741, -1671, -975, -260, -2860, 2838, 131, 76, 52, 78, 229, 164, 368, 183
145846858, 6248, -3449, -12269, 8184, 803, -1878, -1056, -893, -3213, 2709, 131, 76, 52, 78, 229, 164, 368, 183
145866900, 6248, -3449, -12269, 8184, 803, -1878, -1056, -893, -3213, 2709, 106, 78, 53, 80, 228, 143, 389, 189
145867712, 6248, -3449, -12269, 8184, 803, -1878, -1056, -893, -3213, 2709, 106, 78, 53, 80, 228, 143, 389, 189
145896929, 5454, -3567, -12535, 8297, 653, -2029, -1155, -1388, -3680, 2647, 106, 78, 53, 80, 228, 143, 389, 189
145897787, 4583, -3615, -12832, 8349, 780, -2172, -1199, -1720, -4210, 2448, 106, 78, 53, 80, 228, 143, 389, 189
145904316, 4583, -3615, -12832, 8349, 780, -2172, -1199, -1720, -4210, 2448, 131, 74, 48, 106, 276, 162, 407, 187
145905140, 4583, -3615, -12832, 8349, 780, -2172, -1199, -1720, -4210, 2448, 131, 74, 48, 106, 276, 162, 407, 187
145911340, 3709, -3547, -13117, 8369, 1167, -2449, -1375, -1657, -4535, 1978, 131, 74, 48, 106, 276, 162, 407, 187
145926845, 3709, -3547, -13117, 8369, 1167, -2449, -1375, -1657, -4535, 1978, 150, 75, 47, 119, 272, 156, 411, 152
145927646, 3709, -3547, -13117, 8369, 1167, -2449, -1375, -1657, -4535, 1978, 150, 75, 47, 119, 272, 156, 411, 152
145933880, 2818, -3377, -13397, 8343, 1068, -2573, -1491, -1754, -4851, 1528, 150, 75, 47, 119, 272, 156, 411, 152
145941821, 2818, -3377, -13397, 8343, 1068, -2573, -1491, -1754, -4851, 1528, 149, 79, 151, 132, 290, 148, 385, 153
145942638, 2818, -3377, -13397, 8343, 1068, -2573, -1491, -1754, -4851, 1528, 149, 79, 151, 132, 290, 148, 385, 153
145948790, 1949, -3156, -13621, 8315, 1245, -2540, -1156, -1582, -4870, 1329, 149, 79, 151, 132, 290, 148, 385, 153
145956841, 1949, -3156, -13621, 8315, 1245, -2540, -1156, -1582, -4870, 1329, 152, 143, 167, 184, 256, 144, 373, 237
145957675, 1949, -3156, -13621, 8315, 1245, -2540, -1156, -1582, -4870, 1329, 152, 143, 167, 184, 256, 144, 373, 237
145963843, 1147, -2842, -13776, 8323, 1146, -2564, -1320, -1080, -4825, 809, 152, 143, 167, 184, 256, 144, 373, 237
145971832, 1147, -2842, -13776, 8323, 1146, -2564, -1320, -1080, -4825, 809, 196, 160, 176, 192, 250, 143, 356, 269
145972671, 1147, -2842, -13776, 8323, 1146, -2564, -1320, -1080, -4825, 809, 196, 160, 176, 192, 250, 143, 356, 269
145986837, 1147, -2842, -13776, 8323, 1146, -2564, -1320, -1080, -4825, 809, 206, 166, 180, 192, 579, 125, 307, 294
145987678, 1147, -2842, -13776, 8323, 1146, -2564, -1320, -1080, -4825, 809, 206, 166, 180, 192, 579, 125, 307, 294
145993844, 454, -2421, -13881, 8348, 2042, -2297, -2509, -556, -4695, 181, 206, 166, 180, 192, 579, 125, 307, 294
146010056, 454, -2421, -13881, 8348, 2042, -2297, -2509, -556, -4695, 181, 244, 167, 184, 185, 682, 124, 298, 380
146010919, 454, -2421, -13881, 8348, 2042, -2297, -2509, -556, -4695, 181, 244, 167, 184, 185, 682, 124, 298, 380
146011819, -113, -1994, -13996, 8280, 1116, -2356, -919, -1111, -3961, -343, 244, 167, 184, 185, 682, 124, 298, 380
146024389, -113, -1994, -13996, 8280, 1116, -2356, -919, -1111, -3961, -343, 260, 171, 133, 182, 683, 104, 289, 451
146025193, -113, -1994, -13996, 8280, 1116, -2356, -919, -1111, -3961, -343, 260, 171, 133, 182, 683, 104, 289, 451
146031387, -733, -1554, -14032, 8282, 912, -2054, -633, -598, -4286, -224, 260, 171, 133, 182, 683, 104, 289, 451
146047518, -733, -1554, -14032, 8282, 912, -2054, -633, -598, -4286, -224, 273, 140, 132, 154, 772, 96, 292, 502
146048343, -733, -1554, -14032, 8282, 912, -2054, -633, -598, -4286, -224, 273, 140, 132, 154, 772, 96, 292, 502
146049271, -1362, -1157, -14051, 8235, 1917, -1884, -1063, -725, -4266, 157, 273, 140, 132, 154, 772, 96, 292, 502
146070052, -1362, -1157, -14051, 8235, 1917, -1884, -1063, -725, -4266, 157, 251, 118, 123, 148, 897, 95, 309, 721
146070905, -1362, -1157, -14051, 8235, 1917, -1884, -1063, -725, -4266, 157, 251, 118, 123, 148, 897, 95, 309, 721
146071818, -1863, -717, -14034, 8216, 2044, -1703, -1557, -390, -3825, -399, 251, 118, 123, 148, 897, 95, 309, 721
146083683, -1863, -717, -14034, 8216, 2044, -1703, -1557, -390, -3825, -399, 228, 107, 118, 495, 719, 88, 307, 740
146091884, -1863, -717, -14034, 8216, 2044, -1703, -1557, -390, -3825, -399, 228, 107, 118, 495, 719, 88, 307, 740
146092821, -2182, -296, -13992, 8236, 2008, -1738, -1758, -52, -2925, -834, 228, 107, 118, 495, 719, 88, 307, 740
146107547, -2182, -296, -13992, 8236, 2008, -1738, -1758, -52, -2925, -834, 169, 102, 111, 661, 619, 87, 291, 716
146108417, -2182, -296, -13992, 8236, 2008, -1738, -1758, -52, -2925, -834, 169, 102, 111, 661, 619, 87, 291, 716
146109278, -2456, 51, -13969, 8203, 1820, -1398, -1739, -272, -2474, -598, 169, 102, 111, 661, 619, 87, 291, 716
146130042, -2456, 51, -13969, 8203, 1820, -1398, -1739, -272, -2474, -598, 152, 96, 120, 753, 613, 93, 302, 675
146130909, -2456, 51, -13969, 8203, 1820, -1398, -1739, -272, -2474, -598, 152, 96, 120, 753, 613, 93, 302, 675
146131821, -2741, 379, -13934, 8163, 1725, -1470, -1654, -266, -2471, -478, 152, 96, 120, 753, 613, 93, 302, 675
146152551, -2741, 379, -13934, 8163, 1725, -1470, -1654, -266, -2471, -478, 136, 65, 102, 764, 492, 97, 299, 619
146153343, -2741, 379, -13934, 8163, 1725, -1470, -1654, -266, -2471, -478, 136, 65, 102, 764, 492, 97, 299, 619
146154296, -2975, 721, -13902, 8112, 1884, -1563, -1517, -372, -2272, -659, 136, 65, 102, 764, 492, 97, 299, 619
146167517, -2975, 721, -13902, 8112, 1884, -1563, -1517, -372, -2272, -659, 120, 60, 99, 776, 169, 91, 255, 310
146168334, -2975, 721, -13902, 8112, 1884, -1563, -1517, -372, -2272, -659, 120, 60, 99, 776, 169, 91, 255, 310
146169246, -3122, 1017, -13881, 8061, 2103, -1528, -1676, -355, -1734, -654, 120, 60, 99, 776, 169, 91, 255, 310
146190031, -3122, 1017, -13881, 8061, 2103, -1528, -1676, -355, -1734, -654, 135, 60, 98, 617, 142, 90, 247, 234
146190870, -3122, 1017, -13881, 8061, 2103, -1528, -1676, -355, -1734, -654, 135, 60, 98, 617, 142, 90, 247, 234
146191837, -3031, 1338, -13904, 8009, 2255, -1426, -1638, -285, -1212, -459, 135, 60, 98, 617, 142, 90, 247, 234
146212565, -3031, 1338, -13904, 8009, 2255, -1426, -1638, -285, -1212, -459, 201, 62, 97, 440, 159, 95, 258, 170
146213374, -3031, 1338, -13904, 8009, 2255, -1426, -1638, -285, -1212, -459, 201, 62, 97, 440, 159, 95, 258, 170
146214293, -2894, 1599, -13928, 7971, 2262, -1347, -1449, -256, -791, -346, 201, 62, 97, 440, 159, 95, 258, 170
146227543, -2894, 1599, -13928, 7971, 2262, -1347, -1449, -256, -791, -346, 204, 60, 85, 267, 146, 81, 245, 161
146228317, -2894, 1599, -13928, 7971, 2262, -1347, -1449, -256, -791, -346, 204, 60, 85, 267, 146, 81, 245, 161
146229297, -2736, 1843, -13948, 7938, 2169, -1353, -1343, -267, -602, -393, 204, 60, 85, 267, 146, 81, 245, 161
146257542, -2736, 1843, -13948, 7938, 2169, -1353, -1343, -267, -602, -393, 198, 72, 82, 219, 172, 88, 244, 134
146258359, -2736, 1843, -13948, 7938, 2169, -1353, -1343, -267, -602, -393, 198, 72, 82, 219, 172, 88, 244, 134
146259271, -2552, 2082, -13971, 7901, 2210, -1390, -1321, -336, -459, -434, 198, 72, 82, 219, 172, 88, 244, 134
146272521, -2552, 2082, -13971, 7901, 2210, -1390, -1321, -336, -459, -434, 199, 83, 83, 170, 172, 97, 239, 135
146273324, -2552, 2082, -13971, 7901, 2210, -1390, -1321, -336, -459, -434, 199, 83, 83, 170, 172, 97, 239, 135
146274312, -2331, 2287, -13997, 7865, 2409, -1417, -1355, -331, -239, -303, 199, 83, 83, 170, 172, 97, 239, 135
146287569, -2331, 2287, -13997, 7865, 2409, -1417, -1355, -331, -239, -303, 191, 84, 105, 149, 169, 93, 234, 131
146288393, -2331, 2287, -13997, 7865, 2409, -1417, -1355, -331, -239, -303, 191, 84, 105, 149, 169, 93, 234, 131
146289321, -2084, 2459, -14021, 7839, 2551, -1424, -1273, -321, -43, -189, 191, 84, 105, 149, 169, 93, 234, 131
146310048, -2084, 2459, -14021, 7839, 2551, -1424, -1273, -321, -43, -189, 151, 96, 108, 134, 171, 80, 206, 135
146310844, -2084, 2459, -14021, 7839, 2551, -1424, -1273, -321, -43, -189, 151, 96, 108, 134, 171, 80, 206, 135
146311822, -1828, 2615, -14033, 7832, 2622, -1427, -1153, -257, 46, -159, 151, 96, 108, 134, 171, 80, 206, 135
146332496, -1828, 2615, -14033, 7832, 2622, -1427, -1153, -257, 46, -159, 150, 109, 89, 103, 165, 79, 213, 125
146333358, -1828, 2615, -14033, 7832, 2622, -1427, -1153, -257, 46, -159, 150, 109, 89, 103, 165, 79, 213, 125
146334247, -1575, 2763, -14025, 7851, 2600, -1433, -1221, -49, 81, -185, 150, 109, 89, 103, 165, 79, 213, 125
146346867, -1575, 2763, -14025, 7851, 2600, -1433, -1221, -49, 81, -185, 149, 92, 90, 100, 137, 65, 231, 135
146347643, -1575, 2763, -14025, 7851, 2600, -1433, -1221, -49, 81, -185, 149, 92, 90, 100, 137, 65, 231, 135
146353823, -1333, 2897, -14009, 7876, 2540, -1402, -1251, 44, 103, -157, 149, 92, 90, 100, 137, 65, 231, 135
146370044, -1333, 2897, -14009, 7876, 2540, -1402, -1251, 44, 103, -157, 150, 90, 106, 114, 142, 51, 210, 125
146370855, -1333, 2897, -14009, 7876, 2540, -1402, -1251, 44, 103, -157, 150, 90, 106, 114, 142, 51, 210, 125
146371794, -1091, 3030, -13994, 7888, 2550, -1381, -1235, -28, 110, -168, 150, 90, 106, 114, 142, 51, 210, 125
146392536, -1091, 3030, -13994, 7888, 2550, -1381, -1235, -28, 110, -168, 148, 89, 83, 116, 130, 61, 200, 124
146393294, -1091, 3030, -13994, 7888, 2550, -1381, -1235, -28, 110, -168, 148, 89, 83, 116, 130, 61, 200, 124
146394257, -853, 3160, -13980, 7893, 2624, -1453, -1195, -105, 86, -138, 148, 89, 83, 116, 130, 61, 200, 124
146407495, -853, 3160, -13980, 7893, 2624, -1453, -1195, -105, 86, -138, 112, 78, 84, 116, 87, 72, 197, 135
146408342, -853, 3160, -13980, 7893, 2624, -1453, -1195, -105, 86, -138, 112, 78, 84, 116, 87, 72, 197, 135
146409246, -616, 3280, -13971, 7882, 2730, -1514, -1200, -213, 76, -66, 112, 78, 84, 116, 87, 72, 197, 135
146430022, -616, 3280, -13971, 7882, 2730, -1514, -1200, -213, 76, -66, 90, 78, 88, 128, 102, 71, 191, 151
146430870, -616, 3280, -13971, 7882, 2730, -1514, -1200, -213, 76, -66, 90, 78, 88, 128, 102, 71, 191, 151
146431784, -391, 3391, -13957, 7874, 2709, -1544, -1227, -169, 65, -44, 90, 78, 88, 128, 102, 71, 191, 151
146452540, -391, 3391, -13957, 7874, 2709, -1544, -1227, -169, 65, -44, 82, 76, 101, 130, 107, 81, 210, 138
146453344, -391, 3391, -13957, 7874, 2709, -1544, -1227, -169, 65, -44, 82, 76, 101, 130, 107, 81, 210, 138
146454245, -189, 3498, -13931, 7880, 2627, -1541, -1204, -59, 24, -51, 82, 76, 101, 130, 107, 81, 210, 138
146467567, -189, 3498, -13931, 7880, 2627, -1541, -1204, -59, 24, -51, 67, 74, 87, 121, 130, 87, 208, 134
146468389, -189, 3498, -13931, 7880, 2627, -1541, -1204, -59, 24, -51, 67, 74, 87, 121, 130, 87, 208, 134
146469318, 2, 3604, -13902, 7885, 2605, -1504, -1218, -34, -5, -50, 67, 74, 87, 121, 130, 87, 208, 134
146490023, 2, 3604, -13902, 7885, 2605, -1504, -1218, -34, -5, -50, 71, 73, 88, 119, 135, 82, 195, 141
146490859, 2, 3604, -13902, 7885, 2605, -1504, -1218, -34, -5, -50, 71, 73, 88, 119, 135, 82, 195, 141
146491800, 189, 3716, -13873, 7882, 2634, -1489, -1245, -54, -38, -86, 71, 73, 88, 119, 135, 82, 195, 141
