Timestamp, Orientation x, Orientation y, Orientation z, Orientation w, Acceleration x, Acceleration y, Acceleration z, Rotation x, Rotation y, Rotation z, EMG 0, EMG 1, EMG 2, EMG 3, EMG 4, EMG 5, EMG 6, EMG 7
109073171, 6936, -6453, -12927, 3404, 1184, -1529, -1909, -5, 156, -460, 0, 0, 0, 0, 0, 0, 0, 0
109073973, 6926, -6409, -12970, 3344, 1234, -1584, -1932, -22, 98, -419, 0, 0, 0, 0, 0, 0, 0, 0
109094927, 6913, -6372, -13011, 3284, 1328, -1611, -1899, -79, 61, -364, 0, 0, 0, 0, 0, 0, 0, 0
109109918, 6899, -6335, -13049, 3232, 1338, -1645, -1894, -60, 39, -351, 0, 0, 0, 0, 0, 0, 0, 0
109133814, 6885, -6288, -13088, 3195, 1355, -1678, -1879, 2, -13, -375, 0, 0, 0, 0, 0, 0, 0, 0
109134557, 6885, -6288, -13088, 3195, 1355, -1678, -1879, 2, -13, -375, 47, 26, 24, 96, 114, 154, 96, 190
109135356, 6885, -6288, -13088, 3195, 1355, -1678, -1879, 2, -13, -375, 47, 26, 24, 96, 114, 154, 96, 190
109156343, 6870, -6235, -13130, 3161, 1395, -1711, -1861, -2, -54, -404, 47, 26, 24, 96, 114, 154, 96, 190
109157143, 6870, -6235, -13130, 3161, 1395, -1711, -1861, -2, -54, -404, 51, 27, 24, 95, 133, 162, 111, 198
109157935, 6870, -6235, -13130, 3161, 1395, -1711, -1861, -2, -54, -404, 51, 27, 24, 95, 133, 162, 111, 198
109169951, 6864, -6164, -13173, 3131, 1493, -1750, -1848, 49, -75, -470, 51, 27, 24, 95, 133, 162, 111, 198
109178067, 6864, -6164, -13173, 3131, 1493, -1750, -1848, 49, -75, -470, 60, 30, 28, 91, 155, 174, 114, 218
109178884, 6864, -6164, -13173, 3131, 1493, -1750, -1848, 49, -75, -470, 60, 30, 28, 91, 155, 174, 114, 218
109193827, 6865, -6077, -13218, 3109, 1534, -1817, -1785, 93, -107, -553, 60, 30, 28, 91, 155, 174, 114, 218
109194565, 6865, -6077, -13218, 3109, 1534, -1817, -1785, 93, -107, -553, 65, 31, 26, 57, 155, 206, 123, 274
109195370, 6865, -6077, -13218, 3109, 1534, -1817, -1785, 93, -107, -553, 65, 31, 26, 57, 155, 206, 123, 274
109216228, 6874, -5980, -13261, 3096, 1558, -1811, -1753, 157, -111, -583, 65, 31, 26, 57, 155, 206, 123, 274
109217066, 6874, -5980, -13261, 3096, 1558, -1811, -1753, 157, -111, -583, 65, 32, 28, 49, 133, 242, 121, 282
109217896, 6874, -5980, -13261, 3096, 1558, -1811, -1753, 157, -111, -583, 65, 32, 28, 49, 133, 242, 121, 282
109229945, 6885, -5860, -13306, 3104, 1581, -1816, -1752, 304, -170, -645, 65, 32, 28, 49, 133, 242, 121, 282
109238128, 6885, -5860, -13306, 3104, 1581, -1816, -1752, 304, -170, -645, 66, 35, 27, 53, 130, 259, 124, 272
109238868, 6885, -5860, -13306, 3104, 1581, -1816, -1752, 304, -170, -645, 66, 35, 27, 53, 130, 259, 124, 272
109253812, 6894, -5716, -13360, 3122, 1656, -1843, -1736, 375, -271, -742, 66, 35, 27, 53, 130, 259, 124, 272
109254564, 6894, -5716, -13360, 3122, 1656, -1843, -1736, 375, -271, -742, 70, 36, 29, 52, 115, 266, 131, 275
109255490, 6894, -5716, -13360, 3122, 1656, -1843, -1736, 375, -271, -742, 70, 36, 29, 52, 115, 266, 131, 275
109276283, 6901, -5554, -13421, 3138, 1743, -1852, -1640, 362, -357, -824, 70, 36, 29, 52, 115, 266, 131, 275
109277078, 6901, -5554, -13421, 3138, 1743, -1852, -1640, 362, -357, -824, 67, 34, 27, 49, 81, 241, 131, 254
109277868, 6901, -5554, -13421, 3138, 1743, -1852, -1640, 362, -357, -824, 67, 34, 27, 49, 81, 241, 131, 254
109290015, 6900, -5381, -13489, 3151, 1835, -1895, -1627, 327, -447, -883, 67, 34, 27, 49, 81, 241, 131, 254
109298089, 6900, -5381, -13489, 3151, 1835, -1895, -1627, 327, -447, -883, 73, 34, 26, 52, 75, 210, 131, 223
109298879, 6900, -5381, -13489, 3151, 1835, -1895, -1627, 327, -447, -883, 73, 34, 26, 52, 75, 210, 131, 223
109313743, 6899, -5189, -13560, 3169, 1930, -1971, -1598, 352, -516, -972, 73, 34, 26, 52, 75, 210, 131, 223
109314535, 6899, -5189, -13560, 3169, 1930, -1971, -1598, 352, -516, -972, 84, 36, 26, 71, 62, 162, 123, 242
109315342, 6899, -5189, -13560, 3169, 1930, -1971, -1598, 352, -516, -972, 84, 36, 26, 71, 62, 162, 123, 242
109336273, 6902, -4978, -13631, 3196, 1991, -2006, -1541, 413, -555, -1049, 84, 36, 26, 71, 62, 162, 123, 242
109337074, 6902, -4978, -13631, 3196, 1991, -2006, -1541, 413, -555, -1049, 88, 34, 25, 76, 54, 107, 113, 328
109337865, 6902, -4978, -13631, 3196, 1991, -2006, -1541, 413, -555, -1049, 88, 34, 25, 76, 54, 107, 113, 328
109349946, 6916, -4754, -13695, 3236, 2001, -1982, -1468, 510, -545, -1089, 88, 34, 25, 76, 54, 107, 113, 328
109358035, 6916, -4754, -13695, 3236, 2001, -1982, -1468, 510, -545, -1089, 119, 48, 29, 173, 40, 69, 96, 391
109358859, 6916, -4754, -13695, 3236, 2001, -1982, -1468, 510, -545, -1089, 119, 48, 29, 173, 40, 69, 96, 391
109373768, 6934, -4518, -13749, 3304, 1969, -1958, -1443, 691, -549, -1077, 119, 48, 29, 173, 40, 69, 96, 391
109374537, 6934, -4518, -13749, 3304, 1969, -1958, -1443, 691, -549, -1077, 178, 63, 31, 201, 40, 69, 84, 426
109375371, 6934, -4518, -13749, 3304, 1969, -1958, -1443, 691, -549, -1077, 178, 63, 31, 201, 40, 69, 84, 426
109396332, 6953, -4268, -13798, 3392, 1980, -1961, -1453, 832, -564, -1102, 178, 63, 31, 201, 40, 69, 84, 426
109397083, 6953, -4268, -13798, 3392, 1980, -1961, -1453, 832, -564, -1102, 183, 91, 48, 220, 42, 65, 69, 454
109397893, 6953, -4268, -13798, 3392, 1980, -1961, -1453, 832, -564, -1102, 183, 91, 48, 220, 42, 65, 69, 454
109409952, 6985, -4003, -13836, 3494, 2024, -1960, -1481, 983, -499, -1129, 183, 91, 48, 220, 42, 65, 69, 454
109418043, 6985, -4003, -13836, 3494, 2024, -1960, -1481, 983, -499, -1129, 192, 91, 49, 290, 40, 67, 77, 474
109418871, 6985, -4003, -13836, 3494, 2024, -1960, -1481, 983, -499, -1129, 192, 91, 49, 290, 40, 67, 77, 474
109433820, 7035, -3745, -13854, 3605, 2064, -1921, -1455, 1075, -371, -1059, 192, 91, 49, 290, 40, 67, 77, 474
109434534, 7035, -3745, -13854, 3605, 2064, -1921, -1455, 1075, -371, -1059, 201, 102, 54, 312, 39, 61, 78, 445
109435345, 7035, -3745, -13854, 3605, 2064, -1921, -1455, 1075, -371, -1059, 201, 102, 54, 312, 39, 61, 78, 445
109456392, 7095, -3507, -13855, 3722, 2000, -1897, -1466, 1116, -223, -958, 201, 102, 54, 312, 39, 61, 78, 445
109457137, 7095, -3507, -13855, 3722, 2000, -1897, -1466, 1116, -223, -958, 198, 101, 63, 271, 40, 56, 72, 651
109457917, 7095, -3507, -13855, 3722, 2000, -1897, -1466, 1116, -223, -958, 198, 101, 63, 271, 40, 56, 72, 651
109469902, 7138, -3287, -13852, 3847, 1902, -1863, -1496, 1128, -225, -849, 198, 101, 63, 271, 40, 56, 72, 651
109478073, 7138, -3287, -13852, 3847, 1902, -1863, -1496, 1128, -225, -849, 158, 108, 83, 254, 47, 54, 71, 753
109478863, 7138, -3287, -13852, 3847, 1902, -1863, -1496, 1128, -225, -849, 158, 108, 83, 254, 47, 54, 71, 753
109493817, 7172, -3076, -13853, 3956, 1896, -1813, -1523, 1048, -218, -828, 158, 108, 83, 254, 47, 54, 71, 753
109494559, 7172, -3076, -13853, 3956, 1896, -1813, -1523, 1048, -218, -828, 156, 92, 81, 243, 47, 54, 73, 969
109495425, 7172, -3076, -13853, 3956, 1896, -1813, -1523, 1048, -218, -828, 156, 92, 81, 243, 47, 54, 73, 969
109516242, 7211, -2880, -13843, 4064, 1834, -1768, -1463, 1030, -136, -767, 156, 92, 81, 243, 47, 54, 73, 969
109517029, 7211, -2880, -13843, 4064, 1834, -1768, -1463, 1030, -136, -767, 248, 93, 84, 150, 57, 103, 105, 1000
109517819, 7211, -2880, -13843, 4064, 1834, -1768, -1463, 1030, -136, -767, 248, 93, 84, 150, 57, 103, 105, 1000
109529917, 7257, -2717, -13823, 4162, 1819, -1666, -1462, 961, -3, -602, 248, 93, 84, 150, 57, 103, 105, 1000
109538081, 7257, -2717, -13823, 4162, 1819, -1666, -1462, 961, -3, -602, 256, 86, 85, 88, 59, 106, 108, 1008
109538894, 7257, -2717, -13823, 4162, 1819, -1666, -1462, 961, -3, -602, 256, 86, 85, 88, 59, 106, 108, 1008
109553811, 7310, -2566, -13806, 4219, 1828, -1606, -1368, 733, 60, -646, 256, 86, 85, 88, 59, 106, 108, 1008
109554569, 7310, -2566, -13806, 4219, 1828, -1606, -1368, 733, 60, -646, 283, 107, 88, 86, 60, 109, 111, 863
109555387, 7310, -2566, -13806, 4219, 1828, -1606, -1368, 733, 60, -646, 283, 107, 88, 86, 60, 109, 111, 863
109576264, 7359, -2426, -13802, 4232, 1841, -1582, -1239, 441, 20, -717, 283, 107, 88, 86, 60, 109, 111, 863
109577036, 7359, -2426, -13802, 4232, 1841, -1582, -1239, 441, 20, -717, 286, 96, 91, 79, 60, 111, 121, 763
109577883, 7359, -2426, -13802, 4232, 1841, -1582, -1239, 441, 20, -717, 286, 96, 91, 79, 60, 111, 121, 763
109590005, 7392, -2306, -13803, 4237, 1889, -1577, -1281, 352, -13, -608, 286, 96, 91, 79, 60, 111, 121, 763
109598033, 7392, -2306, -13803, 4237, 1889, -1577, -1281, 352, -13, -608, 289, 111, 88, 68, 60, 110, 123, 421
109598847, 7392, -2306, -13803, 4237, 1889, -1577, -1281, 352, -13, -608, 289, 111, 88, 68, 60, 110, 123, 421
109613772, 7408, -2211, -13813, 4227, 1872, -1597, -1386, 213, -24, -541, 289, 111, 88, 68, 60, 110, 123, 421
109614548, 7408, -2211, -13813, 4227, 1872, -1597, -1386, 213, -24, -541, 214, 132, 97, 74, 55, 67, 110, 279
109615342, 7408, -2211, -13813, 4227, 1872, -1597, -1386, 213, -24, -541, 214, 132, 97, 74, 55, 67, 110, 279
109636284, 7419, -2121, -13822, 4227, 1895, -1560, -1440, 270, -25, -472, 214, 132, 97, 74, 55, 67, 110, 279
109637094, 7419, -2121, -13822, 4227, 1895, -1560, -1440, 270, -25, -472, 201, 131, 117, 117, 54, 70, 105, 185
109637858, 7419, -2121, -13822, 4227, 1895, -1560, -1440, 270, -25, -472, 201, 131, 117, 117, 54, 70, 105, 185
109649943, 7455, -2040, -13810, 4241, 2026, -1525, -1329, 335, 83, -365, 201, 131, 117, 117, 54, 70, 105, 185
109658040, 7455, -2040, -13810, 4241, 2026, -1525, -1329, 335, 83, -365, 146, 129, 125, 124, 52, 76, 129, 159
109658838, 7455, -2040, -13810, 4241, 2026, -1525, -1329, 335, 83, -365, 146, 129, 125, 124, 52, 76, 129, 159
109673860, 7506, -1980, -13785, 4260, 1987, -1472, -1307, 348, 225, -263, 146, 129, 125, 124, 52, 76, 129, 159
109674593, 7506, -1980, -13785, 4260, 1987, -1472, -1307, 348, 225, -263, 147, 127, 113, 130, 47, 78, 124, 115
109675345, 7506, -1980, -13785, 4260, 1987, -1472, -1307, 348, 225, -263, 147, 127, 113, 130, 47, 78, 124, 115
109696286, 7533, -1940, -13780, 4249, 1860, -1354, -1383, 165, 177, -228, 147, 127, 113, 130, 47, 78, 124, 115
109697067, 7533, -1940, -13780, 4249, 1860, -1354, -1383, 165, 177, -228, 154, 135, 116, 128, 50, 99, 142, 90
109697905, 7533, -1940, -13780, 4249, 1860, -1354, -1383, 165, 177, -228, 154, 135, 116, 128, 50, 99, 142, 90
109709943, 7539, -1911, -13793, 4207, 1887, -1300, -1424, -35, 76, -212, 154, 135, 116, 128, 50, 99, 142, 90
109718046, 7539, -1911, -13793, 4207, 1887, -1300, -1424, -35, 76, -212, 163, 123, 116, 124, 47, 111, 156, 75
109718885, 7539, -1911, -13793, 4207, 1887, -1300, -1424, -35, 76, -212, 163, 123, 116, 124, 47, 111, 156, 75
109733093, 7540, -1920, -13812, 4140, 1998, -1419, -1401, -304, 73, -113, 163, 123, 116, 124, 47, 111, 156, 75
109733885, 7540, -1920, -13812, 4140, 1998, -1419, -1401, -304, 73, -113, 165, 134, 125, 87, 52, 110, 174, 64
109739981, 7540, -1920, -13812, 4140, 1998, -1419, -1401, -304, 73, -113, 165, 134, 125, 87, 52, 110, 174, 64
109756370, 7548, -1970, -13829, 4042, 2143, -1342, -1310, -562, 115, 51, 165, 134, 125, 87, 52, 110, 174, 64
109757127, 7548, -1970, -13829, 4042, 2143, -1342, -1310, -562, 115, 51, 168, 121, 116, 85, 53, 105, 165, 56
109757878, 7548, -1970, -13829, 4042, 2143, -1342, -1310, -562, 115, 51, 168, 121, 116, 85, 53, 105, 165, 56
109769938, 7591, -2044, -13821, 3952, 2263, -1404, -1242, -569, 308, 158, 168, 121, 116, 85, 53, 105, 165, 56
109778074, 7591, -2044, -13821, 3952, 2263, -1404, -1242, -569, 308, 158, 238, 121, 117, 81, 55, 107, 172, 52
109778861, 7591, -2044, -13821, 3952, 2263, -1404, -1242, -569, 308, 158, 238, 121, 117, 81, 55, 107, 172, 52
109793061, 7643, -2121, -13798, 3893, 2160, -1483, -1309, -409, 436, 186, 238, 121, 117, 81, 55, 107, 172, 52
109793864, 7643, -2121, -13798, 3893, 2160, -1483, -1309, -409, 436, 186, 254, 96, 113, 86, 52, 93, 155, 51
109799932, 7643, -2121, -13798, 3893, 2160, -1483, -1309, -409, 436, 186, 254, 96, 113, 86, 52, 93, 155, 51
109816267, 7682, -2173, -13772, 3876, 2013, -1534, -1345, -144, 373, 133, 254, 96, 113, 86, 52, 93, 155, 51
109817053, 7682, -2173, -13772, 3876, 2013, -1534, -1345, -144, 373, 133, 264, 103, 114, 90, 51, 77, 142, 372
109817869, 7682, -2173, -13772, 3876, 2013, -1534, -1345, -144, 373, 133, 264, 103, 114, 90, 51, 77, 142, 372
109829944, 7716, -2202, -13745, 3887, 2042, -1427, -1347, 81, 302, 160, 264, 103, 114, 90, 51, 77, 142, 372
109838017, 7716, -2202, -13745, 3887, 2042, -1427, -1347, 81, 302, 160, 292, 106, 85, 89, 45, 69, 123, 759
109838839, 7716, -2202, -13745, 3887, 2042, -1427, -1347, 81, 302, 160, 292, 106, 85, 89, 45, 69, 123, 759
109852444, 7770, -2241, -13711, 3880, 2137, -1417, -1323, -9, 412, 169, 292, 106, 85, 89, 45, 69, 123, 759
109860544, 7770, -2241, -13711, 3880, 2137, -1417, -1323, -9, 412, 169, 332, 115, 77, 88, 47, 72, 118, 1132
109861335, 7770, -2241, -13711, 3880, 2137, -1417, -1323, -9, 412, 169, 332, 115, 77, 88, 47, 72, 118, 1132
109876246, 7809, -2307, -13689, 3840, 2055, -1414, -1428, -232, 443, 192, 332, 115, 77, 88, 47, 72, 118, 1132
109877043, 7809, -2307, -13689, 3840, 2055, -1414, -1428, -232, 443, 192, 349, 115, 72, 84, 43, 69, 125, 1416
109877851, 7809, -2307, -13689, 3840, 2055, -1414, -1428, -232, 443, 192, 349, 115, 72, 84, 43, 69, 125, 1416
109889908, 7842, -2379, -13674, 3782, 2089, -1510, -1441, -361, 416, 144, 349, 115, 72, 84, 43, 69, 125, 1416
109898023, 7842, -2379, -13674, 3782, 2089, -1510, -1441, -361, 416, 144, 476, 120, 89, 104, 48, 67, 136, 1438
109898804, 7842, -2379, -13674, 3782, 2089, -1510, -1441, -361, 416, 144, 476, 120, 89, 104, 48, 67, 136, 1438
109912425, 7885, -2438, -13644, 3766, 2018, -1664, -1352, -164, 436, 112, 476, 120, 89, 104, 48, 67, 136, 1438
109920569, 7885, -2438, -13644, 3766, 2018, -1664, -1352, -164, 436, 112, 499, 107, 80, 130, 44, 60, 130, 1464
109921354, 7885, -2438, -13644, 3766, 2018, -1664, -1352, -164, 436, 112, 499, 107, 80, 130, 44, 60, 130, 1464
109936268, 7920, -2469, -13616, 3770, 1989, -1492, -1363, 47, 359, 107, 499, 107, 80, 130, 44, 60, 130, 1464
109937080, 7920, -2469, -13616, 3770, 1989, -1492, -1363, 47, 359, 107, 511, 99, 92, 132, 47, 72, 128, 1336
109937896, 7920, -2469, -13616, 3770, 1989, -1492, -1363, 47, 359, 107, 511, 99, 92, 132, 47, 72, 128, 1336
109949888, 7936, -2493, -13599, 3782, 2013, -1502, -1510, 117, 281, 121, 511, 99, 92, 132, 47, 72, 128, 1336
109958109, 7936, -2493, -13599, 3782, 2013, -1502, -1510, 117, 281, 121, 495, 89, 99, 133, 57, 89, 157, 1057
109958906, 7936, -2493, -13599, 3782, 2013, -1502, -1510, 117, 281, 121, 495, 89, 99, 133, 57, 89, 157, 1057
109972437, 7939, -2521, -13597, 3766, 2071, -1505, -1537, -49, 211, 82, 495, 89, 99, 133, 57, 89, 157, 1057
109980540, 7939, -2521, -13597, 3766, 2071, -1505, -1537, -49, 211, 82, 453, 91, 101, 138, 59, 87, 161, 654
109981329, 7939, -2521, -13597, 3766, 2071, -1505, -1537, -49, 211, 82, 453, 91, 101, 138, 59, 87, 161, 654
109996819, 7939, -2549, -13601, 3732, 2063, -1584, -1504, -175, 172, -5, 453, 91, 101, 138, 59, 87, 161, 654
109997584, 7939, -2549, -13601, 3732, 2063, -1584, -1504, -175, 172, -5, 317, 83, 88, 122, 57, 88, 156, 619
109998392, 7939, -2549, -13601, 3732, 2063, -1584, -1504, -175, 172, -5, 317, 83, 88, 122, 57, 88, 156, 619
110009943, 7933, -2573, -13606, 3710, 2008, -1607, -1474, -126, 131, -8, 317, 83, 88, 122, 57, 88, 156, 619
110018006, 7933, -2573, -13606, 3710, 2008, -1607, -1474, -126, 131, -8, 268, 90, 84, 91, 60, 106, 160, 486
110018820, 7933, -2573, -13606, 3710, 2008, -1607, -1474, -126, 131, -8, 268, 90, 84, 91, 60, 106, 160, 486
110032422, 7914, -2581, -13616, 3707, 1986, -1607, -1498, -8, 30, -31, 268, 90, 84, 91, 60, 106, 160, 486
110040611, 7914, -2581, -13616, 3707, 1986, -1607, -1498, -8, 30, -31, 214, 74, 61, 105, 60, 103, 175, 442
110041392, 7914, -2581, -13616, 3707, 1986, -1607, -1498, -8, 30, -31, 214, 74, 61, 105, 60, 103, 175, 442
110057693, 7884, -2579, -13642, 3677, 2055, -1526, -1501, -128, -74, -95, 214, 74, 61, 105, 60, 103, 175, 442
110058453, 7884, -2579, -13642, 3677, 2055, -1526, -1501, -128, -74, -95, 214, 74, 61, 105, 60, 103, 175, 442
110059296, 7591, -2044, -13821, 3952, 2263, -1404, -1242, -569, 308, 158, 214, 74, 61, 105, 60, 103, 175, 442
110060035, 7591, -2044, -13821, 3952, 2263, -1404, -1242, -569, 308, 158, 238, 121, 117, 81, 55, 107, 172, 52
110064993, 7591, -2044, -13821, 3952, 2263, -1404, -1242, -569, 308, 158, 238, 121, 117, 81, 55, 107, 172, 52
110065987, 7643, -2121, -13798, 3893, 2160, -1483, -1309, -409, 436, 186, 238, 121, 117, 81, 55, 107, 172, 52
110066796, 7643, -2121, -13798, 3893, 2160, -1483, -1309, -409, 436, 186, 254, 96, 113, 86, 52, 93, 155, 51
110067573, 7643, -2121, -13798, 3893, 2160, -1483, -1309, -409, 436, 186, 254, 96, 113, 86, 52, 93, 155, 51
110072811, 7643, -2121, -13798, 3893, 2160, -1483, -1309, -409, 436, 186, 254, 96, 113, 86, 52, 93, 155, 51
110073539, 7643, -2121, -13798, 3893, 2160, -1483, -1309, -409, 436, 186, 254, 96, 113, 86, 52, 93, 155, 51
110074265, 7643, -2121, -13798, 3893, 2160, -1483, -1309, -409, 436, 186, 254, 96, 113, 86, 52, 93, 155, 51
110075006, 7643, -2121, -13798, 3893, 2160, -1483, -1309, -409, 436, 186, 254, 96, 113, 86, 52, 93, 155, 51
110080066, 7643, -2121, -13798, 3893, 2160, -1483, -1309, -409, 436, 186, 254, 96, 113, 86, 52, 93, 155, 51
110080837, 7643, -2121, -13798, 3893, 2160, -1483, -1309, -409, 436, 186, 254, 96, 113, 86, 52, 93, 155, 51
110081630, 7643, -2121, -13798, 3893, 2160, -1483, -1309, -409, 436, 186, 254, 96, 113, 86, 52, 93, 155, 51
110082473, 7643, -2121, -13798, 3893, 2160, -1483, -1309, -409, 436, 186, 254, 96, 113, 86, 52, 93, 155, 51
110087550, 7643, -2121, -13798, 3893, 2160, -1483, -1309, -409, 436, 186, 254, 96, 113, 86, 52, 93, 155, 51
110088468, 7682, -2173, -13772, 3876, 2013, -1534, -1345, -144, 373, 133, 254, 96, 113, 86, 52, 93, 155, 51
110089282, 7682, -2173, -13772, 3876, 2013, -1534, -1345, -144, 373, 133, 264, 103, 114, 90, 51, 77, 142, 372
110090236, 7682, -2173, -13772, 3876, 2013, -1534, -1345, -144, 373, 133, 264, 103, 114, 90, 51, 77, 142, 372
110095139, 7682, -2173, -13772, 3876, 2013, -1534, -1345, -144, 373, 133, 264, 103, 114, 90, 51, 77, 142, 372
110095934, 7682, -2173, -13772, 3876, 2013, -1534, -1345, -144, 373, 133, 264, 103, 114, 90, 51, 77, 142, 372
110096793, 7682, -2173, -13772, 3876, 2013, -1534, -1345, -144, 373, 133, 264, 103, 114, 90, 51, 77, 142, 372
110097600, 7682, -2173, -13772, 3876, 2013, -1534, -1345, -144, 373, 133, 264, 103, 114, 90, 51, 77, 142, 372
110102518, 7682, -2173, -13772, 3876, 2013, -1534, -1345, -144, 373, 133, 264, 103, 114, 90, 51, 77, 142, 372
110103359, 7682, -2173, -13772, 3876, 2013, -1534, -1345, -144, 373, 133, 264, 103, 114, 90, 51, 77, 142, 372
110104143, 7682, -2173, -13772, 3876, 2013, -1534, -1345, -144, 373, 133, 264, 103, 114, 90, 51, 77, 142, 372
110104947, 7682, -2173, -13772, 3876, 2013, -1534, -1345, -144, 373, 133, 264, 103, 114, 90, 51, 77, 142, 372
110110039, 7682, -2173, -13772, 3876, 2013, -1534, -1345, -144, 373, 133, 264, 103, 114, 90, 51, 77, 142, 372
110110937, 7716, -2202, -13745, 3887, 2042, -1427, -1347, 81, 302, 160, 264, 103, 114, 90, 51, 77, 142, 372
110111794, 7716, -2202, -13745, 3887, 2042, -1427, -1347, 81, 302, 160, 292, 106, 85, 89, 45, 69, 123, 759
110112593, 7716, -2202, -13745, 3887, 2042, -1427, -1347, 81, 302, 160, 292, 106, 85, 89, 45, 69, 123, 759
110117604, 7716, -2202, -13745, 3887, 2042, -1427, -1347, 81, 302, 160, 292, 106, 85, 89, 45, 69, 123, 759
110118418, 7716, -2202, -13745, 3887, 2042, -1427, -1347, 81, 302, 160, 292, 106, 85, 89, 45, 69, 123, 759
110119244, 7716, -2202, -13745, 3887, 2042, -1427, -1347, 81, 302, 160, 292, 106, 85, 89, 45, 69, 123, 759
110120045, 7716, -2202, -13745, 3887, 2042, -1427, -1347, 81, 302, 160, 292, 106, 85, 89, 45, 69, 123, 759
110125065, 7716, -2202, -13745, 3887, 2042, -1427, -1347, 81, 302, 160, 292, 106, 85, 89, 45, 69, 123, 759
110125837, 7716, -2202, -13745, 3887, 2042, -1427, -1347, 81, 302, 160, 292, 106, 85, 89, 45, 69, 123, 759
110126642, 7716, -2202, -13745, 3887, 2042, -1427, -1347, 81, 302, 160, 292, 106, 85, 89, 45, 69, 123, 759
110127411, 7716, -2202, -13745, 3887, 2042, -1427, -1347, 81, 302, 160, 292, 106, 85, 89, 45, 69, 123, 759
110132535, 7716, -2202, -13745, 3887, 2042, -1427, -1347, 81, 302, 160, 292, 106, 85, 89, 45, 69, 123, 759
110133498, 7770, -2241, -13711, 3880, 2137, -1417, -1323, -9, 412, 169, 292, 106, 85, 89, 45, 69, 123, 759
110134315, 7770, -2241, -13711, 3880, 2137, -1417, -1323, -9, 412, 169, 332, 115, 77, 88, 47, 72, 118, 1132
110135157, 7770, -2241, -13711, 3880, 2137, -1417, -1323, -9, 412, 169, 332, 115, 77, 88, 47, 72, 118, 1132
110140129, 7770, -2241, -13711, 3880, 2137, -1417, -1323, -9, 412, 169, 332, 115, 77, 88, 47, 72, 118, 1132
110141041, 7770, -2241, -13711, 3880, 2137, -1417, -1323, -9, 412, 169, 332, 115, 77, 88, 47, 72, 118, 1132
110141843, 7770, -2241, -13711, 3880, 2137, -1417, -1323, -9, 412, 169, 332, 115, 77, 88, 47, 72, 118, 1132
110142619, 7770, -2241, -13711, 3880, 2137, -1417, -1323, -9, 412, 169, 332, 115, 77, 88, 47, 72, 118, 1132
110147554, 7770, -2241, -13711, 3880, 2137, -1417, -1323, -9, 412, 169, 332, 115, 77, 88, 47, 72, 118, 1132
110148367, 7770, -2241, -13711, 3880, 2137, -1417, -1323, -9, 412, 169, 332, 115, 77, 88, 47, 72, 118, 1132
110149170, 7770, -2241, -13711, 3880, 2137, -1417, -1323, -9, 412, 169, 332, 115, 77, 88, 47, 72, 118, 1132
110149967, 7770, -2241, -13711, 3880, 2137, -1417, -1323, -9, 412, 169, 332, 115, 77, 88, 47, 72, 118, 1132
110155069, 7770, -2241, -13711, 3880, 2137, -1417, -1323, -9, 412, 169, 332, 115, 77, 88, 47, 72, 118, 1132
110155968, 7809, -2307, -13689, 3840, 2055, -1414, -1428, -232, 443, 192, 332, 115, 77, 88, 47, 72, 118, 1132
110156794, 7809, -2307, -13689, 3840, 2055, -1414, -1428, -232, 443, 192, 349, 115, 72, 84, 43, 69, 125, 1416
110157687, 7809, -2307, -13689, 3840, 2055, -1414, -1428, -232, 443, 192, 349, 115, 72, 84, 43, 69, 125, 1416
110162640, 7809, -2307, -13689, 3840, 2055, -1414, -1428, -232, 443, 192, 349, 115, 72, 84, 43, 69, 125, 1416
110163405, 7809, -2307, -13689, 3840, 2055, -1414, -1428, -232, 443, 192, 349, 115, 72, 84, 43, 69, 125, 1416
110164220, 7809, -2307, -13689, 3840, 2055, -1414, -1428, -232, 443, 192, 349, 115, 72, 84, 43, 69, 125, 1416
110165018, 7809, -2307, -13689, 3840, 2055, -1414, -1428, -232, 443, 192, 349, 115, 72, 84, 43, 69, 125, 1416
110170025, 7809, -2307, -13689, 3840, 2055, -1414, -1428, -232, 443, 192, 349, 115, 72, 84, 43, 69, 125, 1416
110170820, 7809, -2307, -13689, 3840, 2055, -1414, -1428, -232, 443, 192, 349, 115, 72, 84, 43, 69, 125, 1416
110171623, 7809, -2307, -13689, 3840, 2055, -1414, -1428, -232, 443, 192, 349, 115, 72, 84, 43, 69, 125, 1416
110172439, 7809, -2307, -13689, 3840, 2055, -1414, -1428, -232, 443, 192, 349, 115, 72, 84, 43, 69, 125, 1416
110177564, 7809, -2307, -13689, 3840, 2055, -1414, -1428, -232, 443, 192, 349, 115, 72, 84, 43, 69, 125, 1416
110178552, 7842, -2379, -13674, 3782, 2089, -1510, -1441, -361, 416, 144, 349, 115, 72, 84, 43, 69, 125, 1416
110179405, 7842, -2379, -13674, 3782, 2089, -1510, -1441, -361, 416, 144, 476, 120, 89, 104, 48, 67, 136, 1438
110180107, 7842, -2379, -13674, 3782, 2089, -1510, -1441, -361, 416, 144, 476, 120, 89, 104, 48, 67, 136, 1438
110185107, 7842, -2379, -13674, 3782, 2089, -1510, -1441, -361, 416, 144, 476, 120, 89, 104, 48, 67, 136, 1438
110185895, 7842, -2379, -13674, 3782, 2089, -1510, -1441, -361, 416, 144, 476, 120, 89, 104, 48, 67, 136, 1438
110186816, 7842, -2379, -13674, 3782, 2089, -1510, -1441, -361, 416, 144, 476, 120, 89, 104, 48, 67, 136, 1438
110187454, 7842, -2379, -13674, 3782, 2089, -1510, -1441, -361, 416, 144, 476, 120, 89, 104, 48, 67, 136, 1438
110192552, 7842, -2379, -13674, 3782, 2089, -1510, -1441, -361, 416, 144, 476, 120, 89, 104, 48, 67, 136, 1438
110193339, 7842, -2379, -13674, 3782, 2089, -1510, -1441, -361, 416, 144, 476, 120, 89, 104, 48, 67, 136, 1438
110194132, 7842, -2379, -13674, 3782, 2089, -1510, -1441, -361, 416, 144, 476, 120, 89, 104, 48, 67, 136, 1438
110194949, 7842, -2379, -13674, 3782, 2089, -1510, -1441, -361, 416, 144, 476, 120, 89, 104, 48, 67, 136, 1438
110200053, 7842, -2379, -13674, 3782, 2089, -1510, -1441, -361, 416, 144, 476, 120, 89, 104, 48, 67, 136, 1438
110200998, 7885, -2438, -13644, 3766, 2018, -1664, -1352, -164, 436, 112, 476, 120, 89, 104, 48, 67, 136, 1438
110201792, 7885, -2438, -13644, 3766, 2018, -1664, -1352, -164, 436, 112, 499, 107, 80, 130, 44, 60, 130, 1464
110202619, 7885, -2438, -13644, 3766, 2018, -1664, -1352, -164, 436, 112, 499, 107, 80, 130, 44, 60, 130, 1464
110207715, 7885, -2438, -13644, 3766, 2018, -1664, -1352, -164, 436, 112, 499, 107, 80, 130, 44, 60, 130, 1464
110208479, 7885, -2438, -13644, 3766, 2018, -1664, -1352, -164, 436, 112, 499, 107, 80, 130, 44, 60, 130, 1464
110209248, 7885, -2438, -13644, 3766, 2018, -1664, -1352, -164, 436, 112, 499, 107, 80, 130, 44, 60, 130, 1464
110210101, 7885, -2438, -13644, 3766, 2018, -1664, -1352, -164, 436, 112, 499, 107, 80, 130, 44, 60, 130, 1464
110215049, 7885, -2438, -13644, 3766, 2018, -1664, -1352, -164, 436, 112, 499, 107, 80, 130, 44, 60, 130, 1464
110215818, 7885, -2438, -13644, 3766, 2018, -1664, -1352, -164, 436, 112, 499, 107, 80, 130, 44, 60, 130, 1464
110216658, 7885, -2438, -13644, 3766, 2018, -1664, -1352, -164, 436, 112, 499, 107, 80, 130, 44, 60, 130, 1464
110217450, 7885, -2438, -13644, 3766, 2018, -1664, -1352, -164, 436, 112, 499, 107, 80, 130, 44, 60, 130, 1464
110222506, 7885, -2438, -13644, 3766, 2018, -1664, -1352, -164, 436, 112, 499, 107, 80, 130, 44, 60, 130, 1464
110223466, 7920, -2469, -13616, 3770, 1989, -1492, -1363, 47, 359, 107, 499, 107, 80, 130, 44, 60, 130, 1464
110224322, 7920, -2469, -13616, 3770, 1989, -1492, -1363, 47, 359, 107, 511, 99, 92, 132, 47, 72, 128, 1336
110225157, 7920, -2469, -13616, 3770, 1989, -1492, -1363, 47, 359, 107, 511, 99, 92, 132, 47, 72, 128, 1336
110230096, 7920, -2469, -13616, 3770, 1989, -1492, -1363, 47, 359, 107, 511, 99, 92, 132, 47, 72, 128, 1336
110230919, 7920, -2469, -13616, 3770, 1989, -1492, -1363, 47, 359, 107, 511, 99, 92, 132, 47, 72, 128, 1336
110231791, 7920, -2469, -13616, 3770, 1989, -1492, -1363, 47, 359, 107, 511, 99, 92, 132, 47, 72, 128, 1336
110232487, 7920, -2469, -13616, 3770, 1989, -1492, -1363, 47, 359, 107, 511, 99, 92, 132, 47, 72, 128, 1336
110237527, 7920, -2469, -13616, 3770, 1989, -1492, -1363, 47, 359, 107, 511, 99, 92, 132, 47, 72, 128, 1336
110238278, 7920, -2469, -13616, 3770, 1989, -1492, -1363, 47, 359, 107, 511, 99, 92, 132, 47, 72, 128, 1336
110239116, 7920, -2469, -13616, 3770, 1989, -1492, -1363, 47, 359, 107, 511, 99, 92, 132, 47, 72, 128, 1336
110239934, 7920, -2469, -13616, 3770, 1989, -1492, -1363, 47, 359, 107, 511, 99, 92, 132, 47, 72, 128, 1336
110245002, 7920, -2469, -13616, 3770, 1989, -1492, -1363, 47, 359, 107, 511, 99, 92, 132, 47, 72, 128, 1336
110245953, 7936, -2493, -13599, 3782, 2013, -1502, -1510, 117, 281, 121, 511, 99, 92, 132, 47, 72, 128, 1336
110246818, 7936, -2493, -13599, 3782, 2013, -1502, -1510, 117, 281, 121, 495, 89, 99, 133, 57, 89, 157, 1057
110247592, 7936, -2493, -13599, 3782, 2013, -1502, -1510, 117, 281, 121, 495, 89, 99, 133, 57, 89, 157, 1057
110252568, 7936, -2493, -13599, 3782, 2013, -1502, -1510, 117, 281, 121, 495, 89, 99, 133, 57, 89, 157, 1057
110253420, 7936, -2493, -13599, 3782, 2013, -1502, -1510, 117, 281, 121, 495, 89, 99, 133, 57, 89, 157, 1057
110254193, 7936, -2493, -13599, 3782, 2013, -1502, -1510, 117, 281, 121, 495, 89, 99, 133, 57, 89, 157, 1057
110254998, 7936, -2493, -13599, 3782, 2013, -1502, -1510, 117, 281, 121, 495, 89, 99, 133, 57, 89, 157, 1057
110260072, 7936, -2493, -13599, 3782, 2013, -1502, -1510, 117, 281, 121, 495, 89, 99, 133, 57, 89, 157, 1057
110260855, 7936, -2493, -13599, 3782, 2013, -1502, -1510, 117, 281, 121, 495, 89, 99, 133, 57, 89, 157, 1057
110261645, 7936, -2493, -13599, 3782, 2013, -1502, -1510, 117, 281, 121, 495, 89, 99, 133, 57, 89, 157, 1057
110262485, 7936, -2493, -13599, 3782, 2013, -1502, -1510, 117, 281, 121, 495, 89, 99, 133, 57, 89, 157, 1057
110267543, 7936, -2493, -13599, 3782, 2013, -1502, -1510, 117, 281, 121, 495, 89, 99, 133, 57, 89, 157, 1057
110268492, 7939, -2521, -13597, 3766, 2071, -1505, -1537, -49, 211, 82, 495, 89, 99, 133, 57, 89, 157, 1057
110269306, 7939, -2521, -13597, 3766, 2071, -1505, -1537, -49, 211, 82, 453, 91, 101, 138, 59, 87, 161, 654
110270122, 7939, -2521, -13597, 3766, 2071, -1505, -1537, -49, 211, 82, 453, 91, 101, 138, 59, 87, 161, 654
110275221, 7939, -2521, -13597, 3766, 2071, -1505, -1537, -49, 211, 82, 453, 91, 101, 138, 59, 87, 161, 654
110275959, 7939, -2521, -13597, 3766, 2071, -1505, -1537, -49, 211, 82, 453, 91, 101, 138, 59, 87, 161, 654
110276797, 7939, -2521, -13597, 3766, 2071, -1505, -1537, -49, 211, 82, 453, 91, 101, 138, 59, 87, 161, 654
110277573, 7939, -2521, -13597, 3766, 2071, -1505, -1537, -49, 211, 82, 453, 91, 101, 138, 59, 87, 161, 654
110282546, 7939, -2521, -13597, 3766, 2071, -1505, -1537, -49, 211, 82, 453, 91, 101, 138, 59, 87, 161, 654
110283498, 7939, -2521, -13597, 3766, 2071, -1505, -1537, -49, 211, 82, 453, 91, 101, 138, 59, 87, 161, 654
110284176, 7939, -2521, -13597, 3766, 2071, -1505, -1537, -49, 211, 82, 453, 91, 101, 138, 59, 87, 161, 654
110284942, 7939, -2521, -13597, 3766, 2071, -1505, -1537, -49, 211, 82, 453, 91, 101, 138, 59, 87, 161, 654
110297565, 7939, -2521, -13597, 3766, 2071, -1505, -1537, -49, 211, 82, 453, 91, 101, 138, 59, 87, 161, 654
110298481, 7939, -2549, -13601, 3732, 2063, -1584, -1504, -175, 172, -5, 453, 91, 101, 138, 59, 87, 161, 654
110299269, 7939, -2549, -13601, 3732, 2063, -1584, -1504, -175, 172, -5, 317, 83, 88, 122, 57, 88, 156, 619
110300092, 7939, -2549, -13601, 3732, 2063, -1584, -1504, -175, 172, -5, 317, 83, 88, 122, 57, 88, 156, 619
110305103, 7939, -2549, -13601, 3732, 2063, -1584, -1504, -175, 172, -5, 317, 83, 88, 122, 57, 88, 156, 619
110305929, 7939, -2549, -13601, 3732, 2063, -1584, -1504, -175, 172, -5, 317, 83, 88, 122, 57, 88, 156, 619
110306778, 7939, -2549, -13601, 3732, 2063, -1584, -1504, -175, 172, -5, 317, 83, 88, 122, 57, 88, 156, 619
110307556, 7939, -2549, -13601, 3732, 2063, -1584, -1504, -175, 172, -5, 317, 83, 88, 122, 57, 88, 156, 619
110312540, 7939, -2549, -13601, 3732, 2063, -1584, -1504, -175, 172, -5, 117, 51, 43, 70, 107, 188, 82, 324
110313329, 7939, -2549, -13601, 3732, 2063, -1584, -1504, -175, 172, -5, 117, 51, 43, 70, 107, 188, 82, 324
110314158, 7939, -2549, -13601, 3732, 2063, -1584, -1504, -175, 172, -5, 117, 51, 43, 70, 107, 188, 82, 324
110314968, 7939, -2549, -13601, 3732, 2063, -1584, -1504, -175, 172, -5, 117, 51, 43, 70, 107, 188, 82, 324
110318097, 7939, -2549, -13601, 3732, 2063, -1584, -1504, -175, 172, -5, 117, 51, 43, 70, 107, 188, 82, 324
110318996, 7616, -2596, -13858, 3413, 2125, -1656, -1377, -263, -268, -120, 117, 51, 43, 70, 107, 188, 82, 324
110327607, 7616, -2596, -13858, 3413, 2125, -1656, -1377, -263, -268, -120, 107, 52, 50, 87, 116, 194, 82, 344
110328419, 7616, -2596, -13858, 3413, 2125, -1656, -1377, -263, -268, -120, 107, 52, 50, 87, 116, 194, 82, 344
110329218, 7616, -2596, -13858, 3413, 2125, -1656, -1377, -263, -268, -120, 107, 52, 50, 87, 116, 194, 82, 344
110330084, 7616, -2596, -13858, 3413, 2125, -1656, -1377, -263, -268, -120, 107, 52, 50, 87, 116, 194, 82, 344
110335043, 7616, -2596, -13858, 3413, 2125, -1656, -1377, -263, -268, -120, 107, 52, 50, 87, 116, 194, 82, 344
110335881, 7616, -2596, -13858, 3413, 2125, -1656, -1377, -263, -268, -120, 107, 52, 50, 87, 116, 194, 82, 344
110336670, 7616, -2596, -13858, 3413, 2125, -1656, -1377, -263, -268, -120, 107, 52, 50, 87, 116, 194, 82, 344
110337539, 7616, -2596, -13858, 3413, 2125, -1656, -1377, -263, -268, -120, 107, 52, 50, 87, 116, 194, 82, 344
110342696, 7548, -2597, -13911, 3350, 2142, -1622, -1438, -471, -417, -187, 107, 52, 50, 87, 116, 194, 82, 344
110343469, 7548, -2597, -13911, 3350, 2142, -1622, -1438, -471, -417, -187, 113, 55, 53, 110, 97, 194, 89, 369
110344257, 7548, -2597, -13911, 3350, 2142, -1622, -1438, -471, -417, -187, 113, 55, 53, 110, 97, 194, 89, 369
110345081, 7548, -2597, -13911, 3350, 2142, -1622, -1438, -471, -417, -187, 113, 55, 53, 110, 97, 194, 89, 369
110350031, 7548, -2597, -13911, 3350, 2142, -1622, -1438, -471, -417, -187, 113, 55, 53, 110, 97, 194, 89, 369
110350819, 7548, -2597, -13911, 3350, 2142, -1622, -1438, -471, -417, -187, 113, 55, 53, 110, 97, 194, 89, 369
110351661, 7548, -2597, -13911, 3350, 2142, -1622, -1438, -471, -417, -187, 113, 55, 53, 110, 97, 194, 89, 369
110352448, 7548, -2597, -13911, 3350, 2142, -1622, -1438, -471, -417, -187, 113, 55, 53, 110, 97, 194, 89, 369
110355570, 7548, -2597, -13911, 3350, 2142, -1622, -1438, -471, -417, -187, 113, 55, 53, 110, 97, 194, 89, 369
110356507, 7464, -2613, -13977, 3248, 2127, -1635, -1499, -734, -466, -230, 113, 55, 53, 110, 97, 194, 89, 369
110365115, 7464, -2613, -13977, 3248, 2127, -1635, -1499, -734, -466, -230, 136, 69, 61, 132, 105, 215, 116, 396
110365904, 7464, -2613, -13977, 3248, 2127, -1635, -1499, -734, -466, -230, 136, 69, 61, 132, 105, 215, 116, 396
110366769, 7464, -2613, -13977, 3248, 2127, -1635, -1499, -734, -466, -230, 136, 69, 61, 132, 105, 215, 116, 396
110367486, 7464, -2613, -13977, 3248, 2127, -1635, -1499, -734, -466, -230, 136, 69, 61, 132, 105, 215, 116, 396
110372525, 7464, -2613, -13977, 3248, 2127, -1635, -1499, -734, -466, -230, 136, 69, 61, 132, 105, 215, 116, 396
110373364, 7464, -2613, -13977, 3248, 2127, -1635, -1499, -734, -466, -230, 136, 69, 61, 132, 105, 215, 116, 396
110374152, 7464, -2613, -13977, 3248, 2127, -1635, -1499, -734, -466, -230, 136, 69, 61, 132, 105, 215, 116, 396
110375061, 7464, -2613, -13977, 3248, 2127, -1635, -1499, -734, -466, -230, 136, 69, 61, 132, 105, 215, 116, 396
110377499, 7361, -2643, -14056, 3115, 2158, -1604, -1577, -946, -551, -216, 136, 69, 61, 132, 105, 215, 116, 396
110385633, 7361, -2643, -14056, 3115, 2158, -1604, -1577, -946, -551, -216, 399, 75, 70, 132, 98, 204, 137, 398
110386506, 7361, -2643, -14056, 3115, 2158, -1604, -1577, -946, -551, -216, 399, 75, 70, 132, 98, 204, 137, 398
110392601, 7240, -2692, -14145, 2946, 2204, -1619, -1568, -1231, -652, -220, 399, 75, 70, 132, 98, 204, 137, 398
110400517, 7240, -2692, -14145, 2946, 2204, -1619, -1568, -1231, -652, -220, 489, 78, 71, 151, 89, 174, 155, 377
110401285, 7240, -2692, -14145, 2946, 2204, -1619, -1568, -1231, -652, -220, 489, 78, 71, 151, 89, 174, 155, 377
110414892, 7106, -2762, -14241, 2741, 2205, -1616, -1582, -1511, -709, -212, 489, 78, 71, 151, 89, 174, 155, 377
110423039, 7106, -2762, -14241, 2741, 2205, -1616, -1582, -1511, -709, -212, 502, 94, 87, 165, 106, 191, 184, 453
110423837, 7106, -2762, -14241, 2741, 2205, -1616, -1582, -1511, -709, -212, 502, 94, 87, 165, 106, 191, 184, 453
110430017, 6927, -2857, -14359, 2473, 2188, -1608, -1713, -1847, -836, -159, 502, 94, 87, 165, 106, 191, 184, 453
110445537, 6927, -2857, -14359, 2473, 2188, -1608, -1713, -1847, -836, -159, 509, 95, 87, 174, 162, 200, 186, 501
110446336, 6927, -2857, -14359, 2473, 2188, -1608, -1713, -1847, -836, -159, 509, 95, 87, 174, 162, 200, 186, 501
110452516, 6700, -3007, -14491, 2130, 2237, -1553, -1907, -2402, -985, -41, 509, 95, 87, 174, 162, 200, 186, 501
110460473, 6700, -3007, -14491, 2130, 2237, -1553, -1907, -2402, -985, -41, 519, 97, 90, 216, 163, 176, 178, 550
110461300, 6700, -3007, -14491, 2130, 2237, -1553, -1907, -2402, -985, -41, 519, 97, 90, 216, 163, 176, 178, 550
110474974, 6432, -3232, -14619, 1705, 2267, -1551, -2115, -3033, -1036, 172, 519, 97, 90, 216, 163, 176, 178, 550
110483038, 6432, -3232, -14619, 1705, 2267, -1551, -2115, -3033, -1036, 172, 378, 107, 109, 237, 173, 159, 174, 609
110483848, 6432, -3232, -14619, 1705, 2267, -1551, -2115, -3033, -1036, 172, 378, 107, 109, 237, 173, 159, 174, 609
110490247, 6109, -3540, -14738, 1176, 2230, -1515, -2384, -3802, -1125, 385, 378, 107, 109, 237, 173, 159, 174, 609
110505543, 6109, -3540, -14738, 1176, 2230, -1515, -2384, -3802, -1125, 385, 264, 135, 138, 254, 202, 186, 203, 752
110506341, 6109, -3540, -14738, 1176, 2230, -1515, -2384, -3802, -1125, 385, 264, 135, 138, 254, 202, 186, 203, 752
110512517, 5744, -3939, -14821, 528, 2303, -1467, -2547, -4644, -1090, 655, 264, 135, 138, 254, 202, 186, 203, 752
110520543, 5744, -3939, -14821, 528, 2303, -1467, -2547, -4644, -1090, 655, 249, 129, 134, 299, 204, 168, 193, 865
110521343, 5744, -3939, -14821, 528, 2303, -1467, -2547, -4644, -1090, 655, 249, 129, 134, 299, 204, 168, 193, 865
110534877, 5372, -4374, -14847, -212, 2331, -1693, -2711, -5238, -898, 691, 249, 129, 134, 299, 204, 168, 193, 865
110543148, 5372, -4374, -14847, -212, 2331, -1693, -2711, -5238, -898, 691, 263, 142, 146, 312, 163, 158, 193, 1088
110543862, 5372, -4374, -14847, -212, 2331, -1693, -2711, -5238, -898, 691, 263, 142, 146, 312, 163, 158, 193, 1088
110550034, 4982, -4791, -14822, -997, 2190, -1883, -2904, -5519, -808, 553, 263, 142, 146, 312, 163, 158, 193, 1088
110565538, 4982, -4791, -14822, -997, 2190, -1883, -2904, -5519, -808, 553, 269, 141, 143, 291, 162, 190, 211, 1240
110566310, 4982, -4791, -14822, -997, 2190, -1883, -2904, -5519, -808, 553, 269, 141, 143, 291, 162, 190, 211, 1240
110572469, 4575, -5163, -14756, -1771, 2157, -1673, -2852, -5438, -839, 400, 269, 141, 143, 291, 162, 190, 211, 1240
110580542, 4575, -5163, -14756, -1771, 2157, -1673, -2852, -5438, -839, 400, 254, 135, 137, 317, 155, 188, 228, 1297
110581335, 4575, -5163, -14756, -1771, 2157, -1673, -2852, -5438, -839, 400, 254, 135, 137, 317, 155, 188, 228, 1297
110594977, 4223, -5487, -14657, -2385, 2196, -1342, -3118, -4472, -752, 505, 254, 135, 137, 317, 155, 188, 228, 1297
110603062, 4223, -5487, -14657, -2385, 2196, -1342, -3118, -4472, -752, 505, 344, 147, 139, 365, 129, 180, 201, 1245
110603847, 4223, -5487, -14657, -2385, 2196, -1342, -3118, -4472, -752, 505, 344, 147, 139, 365, 129, 180, 201, 1245
110610078, 3966, -5732, -14550, -2857, 2167, -1368, -3188, -3504, -456, 391, 344, 147, 139, 365, 129, 180, 201, 1245
110625593, 3966, -5732, -14550, -2857, 2167, -1368, -3188, -3504, -456, 391, 365, 149, 203, 325, 146, 172, 194, 1151
110626378, 3966, -5732, -14550, -2857, 2167, -1368, -3188, -3504, -456, 391, 365, 149, 203, 325, 146, 172, 194, 1151
110632492, 3746, -5896, -14463, -3236, 1918, -1417, -3320, -2861, -364, 106, 365, 149, 203, 325, 146, 172, 194, 1151
110640533, 3746, -5896, -14463, -3236, 1918, -1417, -3320, -2861, -364, 106, 356, 144, 209, 305, 206, 179, 197, 974
110641315, 3746, -5896, -14463, -3236, 1918, -1417, -3320, -2861, -364, 106, 356, 144, 209, 305, 206, 179, 197, 974
110654938, 3527, -6009, -14409, -3508, 1885, -1254, -3310, -2227, -565, -75, 356, 144, 209, 305, 206, 179, 197, 974
110663014, 3527, -6009, -14409, -3508, 1885, -1254, -3310, -2227, -565, -75, 353, 143, 212, 296, 343, 167, 178, 770
110663804, 3527, -6009, -14409, -3508, 1885, -1254, -3310, -2227, -565, -75, 353, 143, 212, 296, 343, 167, 178, 770
110669972, 3422, -6138, -14369, -3551, 2083, -1048, -3370, -1528, -505, -35, 353, 143, 212, 296, 343, 167, 178, 770
110693723, 3422, -6138, -14369, -3551, 2083, -1048, -3370, -1528, -505, -35, 377, 143, 209, 252, 373, 201, 162, 616
110694523, 3422, -6138, -14369, -3551, 2083, -1048, -3370, -1528, -505, -35, 377, 143, 209, 252, 373, 201, 162, 616
110695445, 3387, -6229, -14352, -3493, 2101, -891, -3520, -754, -320, -18, 377, 143, 209, 252, 373, 201, 162, 616
110701256, 3387, -6229, -14352, -3493, 2101, -891, -3520, -754, -320, -18, 294, 146, 196, 132, 390, 185, 172, 582
110702071, 3387, -6229, -14352, -3493, 2101, -891, -3520, -754, -320, -18, 294, 146, 196, 132, 390, 185, 172, 582
110702910, 3387, -6229, -14352, -3493, 2101, -891, -3520, -754, -320, -18, 294, 146, 196, 132, 390, 185, 172, 582
110708687, 3387, -6229, -14352, -3493, 2101, -891, -3520, -754, -320, -18, 294, 146, 196, 132, 390, 185, 172, 582
110709548, 3387, -6229, -14352, -3493, 2101, -891, -3520, -754, -320, -18, 294, 146, 196, 132, 390, 185, 172, 582
110710280, 3387, -6229, -14352, -3493, 2101, -891, -3520, -754, -320, -18, 294, 146, 196, 132, 390, 185, 172, 582
110714959, 3402, -6288, -14353, -3369, 1998, -787, -3575, -196, -145, -8, 294, 146, 196, 132, 390, 185, 172, 582
110722980, 3402, -6288, -14353, -3369, 1998, -787, -3575, -196, -145, -8, 268, 144, 125, 122, 447, 191, 180, 635
110723807, 3402, -6288, -14353, -3369, 1998, -787, -3575, -196, -145, -8, 268, 144, 125, 122, 447, 191, 180, 635
110729976, 3408, -6329, -14369, -3211, 1835, -827, -3633, -8, -186, -77, 268, 144, 125, 122, 447, 191, 180, 635
110745533, 3408, -6329, -14369, -3211, 1835, -827, -3633, -8, -186, -77, 299, 140, 101, 119, 527, 183, 178, 610
110746323, 3408, -6329, -14369, -3211, 1835, -827, -3633, -8, -186, -77, 299, 140, 101, 119, 527, 183, 178, 610
110752446, 3395, -6370, -14385, -3068, 1877, -842, -3631, -98, -285, -100, 299, 140, 101, 119, 527, 183, 178, 610
110760488, 3395, -6370, -14385, -3068, 1877, -842, -3631, -98, -285, -100, 283, 141, 96, 105, 451, 175, 223, 591
110761306, 3395, -6370, -14385, -3068, 1877, -842, -3631, -98, -285, -100, 283, 141, 96, 105, 451, 175, 223, 591
110783710, 3386, -6418, -14392, -2947, 1948, -792, -3629, -167, -270, -46, 283, 141, 96, 105, 451, 175, 223, 591
110784508, 3386, -6418, -14392, -2947, 1948, -792, -3629, -167, -270, -46, 254, 142, 86, 100, 449, 136, 238, 635
110785334, 3386, -6418, -14392, -2947, 1948, -792, -3629, -167, -270, -46, 254, 142, 86, 100, 449, 136, 238, 635
110789991, 3382, -6468, -14394, -2827, 1933, -822, -3678, -159, -238, -10, 254, 142, 86, 100, 449, 136, 238, 635
110805533, 3382, -6468, -14394, -2827, 1933, -822, -3678, -159, -238, -10, 254, 92, 68, 97, 435, 139, 228, 624
110806368, 3382, -6468, -14394, -2827, 1933, -822, -3678, -159, -238, -10, 254, 92, 68, 97, 435, 139, 228, 624
110812495, 3384, -6514, -14396, -2706, 1885, -860, -3646, -128, -199, -11, 254, 92, 68, 97, 435, 139, 228, 624
110820496, 3384, -6514, -14396, -2706, 1885, -860, -3646, -128, -199, -11, 247, 88, 66, 98, 365, 141, 225, 581
110821293, 3384, -6514, -14396, -2706, 1885, -860, -3646, -128, -199, -11, 247, 88, 66, 98, 365, 141, 225, 581
110834850, 3400, -6551, -14402, -2561, 1867, -888, -3658, 55, -186, -12, 247, 88, 66, 98, 365, 141, 225, 581
110843027, 3400, -6551, -14402, -2561, 1867, -888, -3658, 55, -186, -12, 208, 80, 62, 92, 206, 145, 237, 559
110843873, 3400, -6551, -14402, -2561, 1867, -888, -3658, 55, -186, -12, 208, 80, 62, 92, 206, 145, 237, 559
110849997, 3421, -6575, -14413, -2405, 1857, -886, -3672, 175, -187, -46, 208, 80, 62, 92, 206, 145, 237, 559
110865494, 3421, -6575, -14413, -2405, 1857, -886, -3672, 175, -187, -46, 198, 72, 54, 87, 210, 127, 218, 569
110866358, 3421, -6575, -14413, -2405, 1857, -886, -3672, 175, -187, -46, 198, 72, 54, 87, 210, 127, 218, 569
110872491, 3450, -6589, -14425, -2248, 1866, -883, -3652, 247, -164, -67, 198, 72, 54, 87, 210, 127, 218, 569
110880530, 3450, -6589, -14425, -2248, 1866, -883, -3652, 247, -164, -67, 180, 58, 50, 83, 177, 112, 187, 518
110881343, 3450, -6589, -14425, -2248, 1866, -883, -3652, 247, -164, -67, 180, 58, 50, 83, 177, 112, 187, 518
110887521, 3487, -6607, -14429, -2112, 1889, -895, -3594, 184, -104, -32, 180, 58, 50, 83, 177, 112, 187, 518
110903026, 3487, -6607, -14429, -2112, 1889, -895, -3594, 184, -104, -32, 170, 62, 49, 76, 171, 113, 190, 536
110903856, 3487, -6607, -14429, -2112, 1889, -895, -3594, 184, -104, -32, 170, 62, 49, 76, 171, 113, 190, 536
110909978, 3520, -6624, -14430, -1987, 1878, -953, -3661, 117, -80, -43, 170, 62, 49, 76, 171, 113, 190, 536
110925502, 3520, -6624, -14430, -1987, 1878, -953, -3661, 117, -80, -43, 174, 60, 41, 71, 172, 102, 185, 547
110926359, 3520, -6624, -14430, -1987, 1878, -953, -3661, 117, -80, -43, 174, 60, 41, 71, 172, 102, 185, 547
110932470, 3560, -6641, -14428, -1875, 1890, -993, -3618, 76, -35, -44, 174, 60, 41, 71, 172, 102, 185, 547
110940530, 3560, -6641, -14428, -1875, 1890, -993, -3618, 76, -35, -44, 185, 64, 41, 68, 150, 98, 190, 532
110941331, 3560, -6641, -14428, -1875, 1890, -993, -3618, 76, -35, -44, 185, 64, 41, 68, 150, 98, 190, 532
110947497, 3607, -6655, -14424, -1767, 1911, -966, -3618, 117, 3, -31, 185, 64, 41, 68, 150, 98, 190, 532
110962992, 3607, -6655, -14424, -1767, 1911, -966, -3618, 117, 3, -31, 187, 61, 43, 74, 134, 98, 170, 502
110963846, 3607, -6655, -14424, -1767, 1911, -966, -3618, 117, 3, -31, 187, 61, 43, 74, 134, 98, 170, 502
110969970, 3651, -6669, -14417, -1669, 1887, -1000, -3589, 65, 19, -35, 187, 61, 43, 74, 134, 98, 170, 502
110985505, 3651, -6669, -14417, -1669, 1887, -1000, -3589, 65, 19, -35, 187, 63, 45, 79, 116, 102, 170, 494
110986404, 3651, -6669, -14417, -1669, 1887, -1000, -3589, 65, 19, -35, 187, 63, 45, 79, 116, 102, 170, 494
110992465, 3698, -6683, -14409, -1576, 1899, -1002, -3588, 77, 44, -22, 187, 63, 45, 79, 116, 102, 170, 494
111000497, 3698, -6683, -14409, -1576, 1899, -1002, -3588, 77, 44, -22, 194, 60, 46, 78, 130, 110, 183, 515
111001332, 3698, -6683, -14409, -1576, 1899, -1002, -3588, 77, 44, -22, 194, 60, 46, 78, 130, 110, 183, 515
111007464, 3757, -6690, -14402, -1471, 1921, -1014, -3586, 195, 64, -24, 194, 60, 46, 78, 130, 110, 183, 515
111022993, 3757, -6690, -14402, -1471, 1921, -1014, -3586, 195, 64, -24, 190, 57, 47, 79, 123, 149, 188, 478
111023817, 3757, -6690, -14402, -1471, 1921, -1014, -3586, 195, 64, -24, 190, 57, 47, 79, 123, 149, 188, 478
111029956, 3823, -6694, -14393, -1367, 1915, -999, -3585, 246, 118, -19, 190, 57, 47, 79, 123, 149, 188, 478
111045509, 3823, -6694, -14393, -1367, 1915, -999, -3585, 246, 118, -19, 191, 57, 46, 73, 120, 155, 168, 472
111046291, 3823, -6694, -14393, -1367, 1915, -999, -3585, 246, 118, -19, 191, 57, 46, 73, 120, 155, 168, 472
111052471, 3881, -6695, -14386, -1266, 1881, -930, -3611, 285, 111, -9, 191, 57, 46, 73, 120, 155, 168, 472
111068701, 3881, -6695, -14386, -1266, 1881, -930, -3611, 285, 111, -9, 188, 58, 44, 64, 117, 151, 166, 479
111069515, 3881, -6695, -14386, -1266, 1881, -930, -3611, 285, 111, -9, 188, 58, 44, 64, 117, 151, 166, 479
111070471, 3938, -6695, -14378, -1183, 1911, -934, -3556, 214, 119, -22, 188, 58, 44, 64, 117, 151, 166, 479
111082970, 3938, -6695, -14378, -1183, 1911, -934, -3556, 214, 119, -22, 180, 54, 41, 55, 100, 150, 169, 495
111083833, 3938, -6695, -14378, -1183, 1911, -934, -3556, 214, 119, -22, 180, 54, 41, 55, 100, 150, 169, 495
111089934, 4026, -6687, -14364, -1095, 1965, -1041, -3430, 288, 228, -46, 180, 54, 41, 55, 100, 150, 169, 495
111105546, 4026, -6687, -14364, -1095, 1965, -1041, -3430, 288, 228, -46, 179, 53, 38, 54, 65, 159, 157, 487
111106318, 4026, -6687, -14364, -1095, 1965, -1041, -3430, 288, 228, -46, 179, 53, 38, 54, 65, 159, 157, 487
111112481, 4177, -6644, -14354, -909, 1987, -1234, -3423, 922, 328, -97, 179, 53, 38, 54, 65, 159, 157, 487
111120467, 4177, -6644, -14354, -909, 1987, -1234, -3423, 922, 328, -97, 190, 70, 41, 45, 56, 131, 154, 516
111121295, 4177, -6644, -14354, -909, 1987, -1234, -3423, 922, 328, -97, 190, 70, 41, 45, 56, 131, 154, 516
111134861, 4365, -6534, -14362, -667, 1924, -1362, -3507, 1683, 413, -209, 190, 70, 41, 45, 56, 131, 154, 516
