Timestamp, Orientation x, Orientation y, Orientation z, Orientation w, Acceleration x, Acceleration y, Acceleration z, Rotation x, Rotation y, Rotation z, EMG 0, EMG 1, EMG 2, EMG 3, EMG 4, EMG 5, EMG 6, EMG 7
117353344, -269, 13762, 4132, 7865, 3795, 1217, -2880, 598, 79, -92, 0, 0, 0, 0, 0, 0, 0, 0
117360786, -272, 13738, 4174, 7886, 3770, 1440, -2664, 205, 253, -23, 0, 0, 0, 0, 0, 0, 0, 0
117375816, -240, 13695, 4158, 7970, 3846, 1252, -2387, -233, 427, 19, 0, 0, 0, 0, 0, 0, 0, 0
117398319, -154, 13677, 4048, 8058, 3922, 850, -2237, -868, 245, 140, 0, 0, 0, 0, 0, 0, 0, 0
117422167, -51, 13693, 3907, 8101, 3927, 778, -2323, -1008, -27, 246, 0, 0, 0, 0, 0, 0, 0, 0
117423012, -51, 13693, 3907, 8101, 3927, 778, -2323, -1008, -27, 246, 322, 230, 410, 991, 300, 693, 171, 383
117423791, -51, 13693, 3907, 8101, 3927, 778, -2323, -1008, -27, 246, 322, 230, 410, 991, 300, 693, 171, 383
117435838, -12, 13723, 3810, 8098, 3907, 755, -2458, -544, -130, 230, 322, 230, 410, 991, 300, 693, 171, 383
117451433, -12, 13723, 3810, 8098, 3907, 755, -2458, -544, -130, 230, 256, 237, 419, 1009, 325, 677, 193, 398
117452222, -12, 13723, 3810, 8098, 3907, 755, -2458, -544, -130, 230, 256, 237, 419, 1009, 325, 677, 193, 398
117458400, -68, 13751, 3779, 8064, 3911, 692, -2425, 122, -163, 173, 256, 237, 419, 1009, 325, 677, 193, 398
117473957, -68, 13751, 3779, 8064, 3911, 692, -2425, 122, -163, 173, 231, 246, 428, 1001, 324, 687, 250, 368
117474765, -68, 13751, 3779, 8064, 3911, 692, -2425, 122, -163, 173, 231, 246, 428, 1001, 324, 687, 250, 368
117482934, -165, 13770, 3814, 8013, 3869, 858, -2275, 597, -248, 71, 231, 246, 428, 1001, 324, 687, 250, 368
117483717, -165, 13770, 3814, 8013, 3869, 858, -2275, 597, -248, 71, 278, 241, 401, 915, 344, 651, 349, 362
117484558, -165, 13770, 3814, 8013, 3869, 858, -2275, 597, -248, 71, 278, 241, 401, 915, 344, 651, 349, 362
117485340, -165, 13770, 3814, 8013, 3869, 858, -2275, 597, -248, 71, 278, 241, 401, 915, 344, 651, 349, 362
117497792, -165, 13770, 3814, 8013, 3869, 858, -2275, 597, -248, 71, 278, 241, 401, 915, 344, 651, 349, 362
117498590, -165, 13770, 3814, 8013, 3869, 858, -2275, 597, -248, 71, 278, 241, 401, 915, 344, 651, 349, 362
117499418, -165, 13770, 3814, 8013, 3869, 858, -2275, 597, -248, 71, 278, 241, 401, 915, 344, 651, 349, 362
117500343, -212, 13779, 3847, 7982, 3940, 1142, -2375, 410, -175, 58, 278, 241, 401, 915, 344, 651, 349, 362
117506032, -212, 13779, 3847, 7982, 3940, 1142, -2375, 410, -175, 58, 453, 426, 371, 883, 442, 648, 595, 362
117506838, -212, 13779, 3847, 7982, 3940, 1142, -2375, 410, -175, 58, 453, 426, 371, 883, 442, 648, 595, 362
117507622, -212, 13779, 3847, 7982, 3940, 1142, -2375, 410, -175, 58, 453, 426, 371, 883, 442, 648, 595, 362
117508465, -212, 13779, 3847, 7982, 3940, 1142, -2375, 410, -175, 58, 453, 426, 371, 883, 442, 648, 595, 362
117520928, -212, 13779, 3847, 7982, 3940, 1142, -2375, 410, -175, 58, 453, 426, 371, 883, 442, 648, 595, 362
117521747, -212, 13779, 3847, 7982, 3940, 1142, -2375, 410, -175, 58, 453, 426, 371, 883, 442, 648, 595, 362
117522578, -212, 13779, 3847, 7982, 3940, 1142, -2375, 410, -175, 58, 453, 426, 371, 883, 442, 648, 595, 362
117523366, -212, 13779, 3847, 7982, 3940, 1142, -2375, 410, -175, 58, 453, 426, 371, 883, 442, 648, 595, 362
117528559, -254, 13782, 3873, 7962, 3871, 1142, -2473, 351, -48, 85, 453, 426, 371, 883, 442, 648, 595, 362
117529351, -254, 13782, 3873, 7962, 3871, 1142, -2473, 351, -48, 85, 640, 545, 312, 466, 606, 539, 882, 373
117530166, -254, 13782, 3873, 7962, 3871, 1142, -2473, 351, -48, 85, 640, 545, 312, 466, 606, 539, 882, 373
117530990, -254, 13782, 3873, 7962, 3871, 1142, -2473, 351, -48, 85, 640, 545, 312, 466, 606, 539, 882, 373
117543434, -254, 13782, 3873, 7962, 3871, 1142, -2473, 351, -48, 85, 640, 545, 312, 466, 606, 539, 882, 373
117544253, -254, 13782, 3873, 7962, 3871, 1142, -2473, 351, -48, 85, 640, 545, 312, 466, 606, 539, 882, 373
117545072, -254, 13782, 3873, 7962, 3871, 1142, -2473, 351, -48, 85, 640, 545, 312, 466, 606, 539, 882, 373
117545887, -254, 13782, 3873, 7962, 3871, 1142, -2473, 351, -48, 85, 640, 545, 312, 466, 606, 539, 882, 373
117550971, -254, 13782, 3873, 7962, 3871, 1142, -2473, 351, -48, 85, 640, 545, 312, 466, 606, 539, 882, 373
117551890, -331, 13806, 3844, 7933, 3867, 845, -2619, 288, -37, 351, 640, 545, 312, 466, 606, 539, 882, 373
117552713, -331, 13806, 3844, 7933, 3867, 845, -2619, 288, -37, 351, 889, 854, 453, 531, 723, 677, 1030, 502
117553490, -331, 13806, 3844, 7933, 3867, 845, -2619, 288, -37, 351, 889, 854, 453, 531, 723, 677, 1030, 502
117573557, -331, 13806, 3844, 7933, 3867, 845, -2619, 288, -37, 351, 889, 854, 453, 531, 723, 677, 1030, 502
117574322, -331, 13806, 3844, 7933, 3867, 845, -2619, 288, -37, 351, 889, 854, 453, 531, 723, 677, 1030, 502
117575140, -331, 13806, 3844, 7933, 3867, 845, -2619, 288, -37, 351, 889, 854, 453, 531, 723, 677, 1030, 502
117575983, -331, 13806, 3844, 7933, 3867, 845, -2619, 288, -37, 351, 889, 854, 453, 531, 723, 677, 1030, 502
117588365, -331, 13806, 3844, 7933, 3867, 845, -2619, 288, -37, 351, 889, 854, 453, 531, 723, 677, 1030, 502
117589214, -331, 13806, 3844, 7933, 3867, 845, -2619, 288, -37, 351, 889, 854, 453, 531, 723, 677, 1030, 502
117589993, -331, 13806, 3844, 7933, 3867, 845, -2619, 288, -37, 351, 889, 854, 453, 531, 723, 677, 1030, 502
117590861, -331, 13806, 3844, 7933, 3867, 845, -2619, 288, -37, 351, 889, 854, 453, 531, 723, 677, 1030, 502
117595990, -331, 13806, 3844, 7933, 3867, 845, -2619, 288, -37, 351, 977, 985, 597, 647, 803, 713, 1094, 545
117596848, -331, 13806, 3844, 7933, 3867, 845, -2619, 288, -37, 351, 977, 985, 597, 647, 803, 713, 1094, 545
117597615, -331, 13806, 3844, 7933, 3867, 845, -2619, 288, -37, 351, 977, 985, 597, 647, 803, 713, 1094, 545
117598427, -331, 13806, 3844, 7933, 3867, 845, -2619, 288, -37, 351, 977, 985, 597, 647, 803, 713, 1094, 545
117618418, -331, 13806, 3844, 7933, 3867, 845, -2619, 288, -37, 351, 977, 985, 597, 647, 803, 713, 1094, 545
117619238, -331, 13806, 3844, 7933, 3867, 845, -2619, 288, -37, 351, 977, 985, 597, 647, 803, 713, 1094, 545
117620069, -331, 13806, 3844, 7933, 3867, 845, -2619, 288, -37, 351, 977, 985, 597, 647, 803, 713, 1094, 545
117620839, -331, 13806, 3844, 7933, 3867, 845, -2619, 288, -37, 351, 977, 985, 597, 647, 803, 713, 1094, 545
117633477, -331, 13806, 3844, 7933, 3867, 845, -2619, 288, -37, 351, 977, 985, 597, 647, 803, 713, 1094, 545
117634392, -222, 13881, 3680, 7883, 4487, 1799, -2721, -315, -95, 63, 977, 985, 597, 647, 803, 713, 1094, 545
117635201, -222, 13881, 3680, 7883, 4487, 1799, -2721, -315, -95, 63, 1019, 1019, 662, 692, 873, 752, 1125, 561
117636034, -222, 13881, 3680, 7883, 4487, 1799, -2721, -315, -95, 63, 1019, 1019, 662, 692, 873, 752, 1125, 561
117641044, -222, 13881, 3680, 7883, 4487, 1799, -2721, -315, -95, 63, 1019, 1019, 662, 692, 873, 752, 1125, 561
117641846, -222, 13881, 3680, 7883, 4487, 1799, -2721, -315, -95, 63, 1019, 1019, 662, 692, 873, 752, 1125, 561
117642706, -222, 13881, 3680, 7883, 4487, 1799, -2721, -315, -95, 63, 1019, 1019, 662, 692, 873, 752, 1125, 561
117643488, -222, 13881, 3680, 7883, 4487, 1799, -2721, -315, -95, 63, 1019, 1019, 662, 692, 873, 752, 1125, 561
117655905, -222, 13881, 3680, 7883, 4487, 1799, -2721, -315, -95, 63, 1019, 1019, 662, 692, 873, 752, 1125, 561
117656737, -222, 13881, 3680, 7883, 4487, 1799, -2721, -315, -95, 63, 1019, 1019, 662, 692, 873, 752, 1125, 561
117657545, -222, 13881, 3680, 7883, 4487, 1799, -2721, -315, -95, 63, 1019, 1019, 662, 692, 873, 752, 1125, 561
117658361, -222, 13881, 3680, 7883, 4487, 1799, -2721, -315, -95, 63, 1019, 1019, 662, 692, 873, 752, 1125, 561
117663456, -222, 13881, 3680, 7883, 4487, 1799, -2721, -315, -95, 63, 1019, 1019, 662, 692, 873, 752, 1125, 561
117664365, -172, 13868, 3893, 7804, 3508, 2156, -3274, 435, -425, -1155, 1019, 1019, 662, 692, 873, 752, 1125, 561
117665188, -172, 13868, 3893, 7804, 3508, 2156, -3274, 435, -425, -1155, 975, 963, 686, 875, 847, 818, 1052, 576
117665968, -172, 13868, 3893, 7804, 3508, 2156, -3274, 435, -425, -1155, 975, 963, 686, 875, 847, 818, 1052, 576
117671067, -172, 13868, 3893, 7804, 3508, 2156, -3274, 435, -425, -1155, 975, 963, 686, 875, 847, 818, 1052, 576
117671841, -172, 13868, 3893, 7804, 3508, 2156, -3274, 435, -425, -1155, 975, 963, 686, 875, 847, 818, 1052, 576
117672688, -172, 13868, 3893, 7804, 3508, 2156, -3274, 435, -425, -1155, 975, 963, 686, 875, 847, 818, 1052, 576
117678395, -172, 13868, 3893, 7804, 3508, 2156, -3274, 435, -425, -1155, 975, 963, 686, 875, 847, 818, 1052, 576
117679186, -172, 13868, 3893, 7804, 3508, 2156, -3274, 435, -425, -1155, 975, 963, 686, 875, 847, 818, 1052, 576
117679974, -172, 13868, 3893, 7804, 3508, 2156, -3274, 435, -425, -1155, 975, 963, 686, 875, 847, 818, 1052, 576
117680833, -172, 13868, 3893, 7804, 3508, 2156, -3274, 435, -425, -1155, 975, 963, 686, 875, 847, 818, 1052, 576
117685972, -172, 13868, 3893, 7804, 3508, 2156, -3274, 435, -425, -1155, 975, 963, 686, 875, 847, 818, 1052, 576
117686789, -172, 13868, 3893, 7804, 3508, 2156, -3274, 435, -425, -1155, 975, 963, 686, 875, 847, 818, 1052, 576
117687721, -132, 13848, 3847, 7863, 3723, 410, -1856, -491, 4, -174, 975, 963, 686, 875, 847, 818, 1052, 576
117688537, -132, 13848, 3847, 7863, 3723, 410, -1856, -491, 4, -174, 855, 903, 705, 948, 754, 810, 847, 546
117692010, -132, 13848, 3847, 7863, 3723, 410, -1856, -491, 4, -174, 855, 903, 705, 948, 754, 810, 847, 546
117692807, -132, 13848, 3847, 7863, 3723, 410, -1856, -491, 4, -174, 855, 903, 705, 948, 754, 810, 847, 546
117700919, -132, 13848, 3847, 7863, 3723, 410, -1856, -491, 4, -174, 855, 903, 705, 948, 754, 810, 847, 546
117701711, -132, 13848, 3847, 7863, 3723, 410, -1856, -491, 4, -174, 855, 903, 705, 948, 754, 810, 847, 546
117702540, -132, 13848, 3847, 7863, 3723, 410, -1856, -491, 4, -174, 855, 903, 705, 948, 754, 810, 847, 546
117703352, -132, 13848, 3847, 7863, 3723, 410, -1856, -491, 4, -174, 855, 903, 705, 948, 754, 810, 847, 546
117708417, -132, 13848, 3847, 7863, 3723, 410, -1856, -491, 4, -174, 855, 903, 705, 948, 754, 810, 847, 546
117709281, -132, 13848, 3847, 7863, 3723, 410, -1856, -491, 4, -174, 855, 903, 705, 948, 754, 810, 847, 546
117710044, -132, 13848, 3847, 7863, 3723, 410, -1856, -491, 4, -174, 855, 903, 705, 948, 754, 810, 847, 546
117710993, -132, 13848, 3847, 7863, 3723, 410, -1856, -491, 4, -174, 624, 635, 629, 1021, 650, 757, 671, 434
117715966, -132, 13848, 3847, 7863, 3723, 410, -1856, -491, 4, -174, 624, 635, 629, 1021, 650, 757, 671, 434
117716817, -132, 13848, 3847, 7863, 3723, 410, -1856, -491, 4, -174, 624, 635, 629, 1021, 650, 757, 671, 434
117717618, -132, 13848, 3847, 7863, 3723, 410, -1856, -491, 4, -174, 624, 635, 629, 1021, 650, 757, 671, 434
117718418, -132, 13848, 3847, 7863, 3723, 410, -1856, -491, 4, -174, 624, 635, 629, 1021, 650, 757, 671, 434
117723419, -132, 13848, 3847, 7863, 3723, 410, -1856, -491, 4, -174, 624, 635, 629, 1021, 650, 757, 671, 434
117724239, -132, 13848, 3847, 7863, 3723, 410, -1856, -491, 4, -174, 624, 635, 629, 1021, 650, 757, 671, 434
117725137, -132, 13848, 3847, 7863, 3723, 410, -1856, -491, 4, -174, 624, 635, 629, 1021, 650, 757, 671, 434
117725857, -132, 13848, 3847, 7863, 3723, 410, -1856, -491, 4, -174, 624, 635, 629, 1021, 650, 757, 671, 434
117730951, -132, 13848, 3847, 7863, 3723, 410, -1856, -491, 4, -174, 624, 635, 629, 1021, 650, 757, 671, 434
117731869, -518, 13824, 3957, 7834, 3942, 934, -2467, 1517, 38, 176, 624, 635, 629, 1021, 650, 757, 671, 434
117732696, -518, 13824, 3957, 7834, 3942, 934, -2467, 1517, 38, 176, 523, 440, 566, 1049, 589, 771, 570, 423
117733539, -518, 13824, 3957, 7834, 3942, 934, -2467, 1517, 38, 176, 523, 440, 566, 1049, 589, 771, 570, 423
117745992, -518, 13824, 3957, 7834, 3942, 934, -2467, 1517, 38, 176, 523, 440, 566, 1049, 589, 771, 570, 423
117746851, -518, 13824, 3957, 7834, 3942, 934, -2467, 1517, 38, 176, 523, 440, 566, 1049, 589, 771, 570, 423
117747640, -518, 13824, 3957, 7834, 3942, 934, -2467, 1517, 38, 176, 523, 440, 566, 1049, 589, 771, 570, 423
117753456, -518, 13824, 3957, 7834, 3942, 934, -2467, 1517, 38, 176, 523, 440, 566, 1049, 589, 771, 570, 423
117754216, -518, 13824, 3957, 7834, 3942, 934, -2467, 1517, 38, 176, 523, 440, 566, 1049, 589, 771, 570, 423
117755073, -518, 13824, 3957, 7834, 3942, 934, -2467, 1517, 38, 176, 523, 440, 566, 1049, 589, 771, 570, 423
117755862, -518, 13824, 3957, 7834, 3942, 934, -2467, 1517, 38, 176, 523, 440, 566, 1049, 589, 771, 570, 423
117760943, -518, 13824, 3957, 7834, 3942, 934, -2467, 1517, 38, 176, 523, 440, 566, 1049, 589, 771, 570, 423
117761840, -518, 13824, 3957, 7834, 3942, 934, -2467, 1517, 38, 176, 467, 376, 571, 1127, 549, 768, 473, 428
117762681, -518, 13824, 3957, 7834, 3942, 934, -2467, 1517, 38, 176, 467, 376, 571, 1127, 549, 768, 473, 428
117763465, -518, 13824, 3957, 7834, 3942, 934, -2467, 1517, 38, 176, 467, 376, 571, 1127, 549, 768, 473, 428
117776006, -518, 13824, 3957, 7834, 3942, 934, -2467, 1517, 38, 176, 467, 376, 571, 1127, 549, 768, 473, 428
117776795, -518, 13824, 3957, 7834, 3942, 934, -2467, 1517, 38, 176, 467, 376, 571, 1127, 549, 768, 473, 428
117777643, -518, 13824, 3957, 7834, 3942, 934, -2467, 1517, 38, 176, 467, 376, 571, 1127, 549, 768, 473, 428
117778418, -518, 13824, 3957, 7834, 3942, 934, -2467, 1517, 38, 176, 467, 376, 571, 1127, 549, 768, 473, 428
117783457, -518, 13824, 3957, 7834, 3942, 934, -2467, 1517, 38, 176, 467, 376, 571, 1127, 549, 768, 473, 428
117784252, -518, 13824, 3957, 7834, 3942, 934, -2467, 1517, 38, 176, 467, 376, 571, 1127, 549, 768, 473, 428
117785043, -518, 13824, 3957, 7834, 3942, 934, -2467, 1517, 38, 176, 467, 376, 571, 1127, 549, 768, 473, 428
117785879, -518, 13824, 3957, 7834, 3942, 934, -2467, 1517, 38, 176, 467, 376, 571, 1127, 549, 768, 473, 428
117790939, -518, 13824, 3957, 7834, 3942, 934, -2467, 1517, 38, 176, 467, 376, 571, 1127, 549, 768, 473, 428
117791907, -475, 13824, 4017, 7806, 3786, 1578, -2616, -296, -93, 146, 467, 376, 571, 1127, 549, 768, 473, 428
117792690, -475, 13824, 4017, 7806, 3786, 1578, -2616, -296, -93, 146, 516, 360, 579, 1131, 589, 724, 410, 478
117793539, -475, 13824, 4017, 7806, 3786, 1578, -2616, -296, -93, 146, 516, 360, 579, 1131, 589, 724, 410, 478
117806014, -475, 13824, 4017, 7806, 3786, 1578, -2616, -296, -93, 146, 516, 360, 579, 1131, 589, 724, 410, 478
117806863, -475, 13824, 4017, 7806, 3786, 1578, -2616, -296, -93, 146, 516, 360, 579, 1131, 589, 724, 410, 478
117807640, -475, 13824, 4017, 7806, 3786, 1578, -2616, -296, -93, 146, 516, 360, 579, 1131, 589, 724, 410, 478
117808464, -475, 13824, 4017, 7806, 3786, 1578, -2616, -296, -93, 146, 516, 360, 579, 1131, 589, 724, 410, 478
117813405, -475, 13824, 4017, 7806, 3786, 1578, -2616, -296, -93, 146, 516, 360, 579, 1131, 589, 724, 410, 478
117814227, -475, 13824, 4017, 7806, 3786, 1578, -2616, -296, -93, 146, 516, 360, 579, 1131, 589, 724, 410, 478
117815032, -475, 13824, 4017, 7806, 3786, 1578, -2616, -296, -93, 146, 516, 360, 579, 1131, 589, 724, 410, 478
117815845, -475, 13824, 4017, 7806, 3786, 1578, -2616, -296, -93, 146, 516, 360, 579, 1131, 589, 724, 410, 478
117820927, -475, 13824, 4017, 7806, 3786, 1578, -2616, -296, -93, 146, 516, 360, 579, 1131, 589, 724, 410, 478
117821844, -335, 13835, 3969, 7820, 3739, 1230, -2516, -716, -136, 19, 516, 360, 579, 1131, 589, 724, 410, 478
117822692, -335, 13835, 3969, 7820, 3739, 1230, -2516, -716, -136, 19, 620, 328, 529, 1072, 548, 637, 362, 518
117823465, -335, 13835, 3969, 7820, 3739, 1230, -2516, -716, -136, 19, 620, 328, 529, 1072, 548, 637, 362, 518
117828497, -335, 13835, 3969, 7820, 3739, 1230, -2516, -716, -136, 19, 620, 328, 529, 1072, 548, 637, 362, 518
117829290, -335, 13835, 3969, 7820, 3739, 1230, -2516, -716, -136, 19, 620, 328, 529, 1072, 548, 637, 362, 518
117830170, -335, 13835, 3969, 7820, 3739, 1230, -2516, -716, -136, 19, 620, 328, 529, 1072, 548, 637, 362, 518
117830919, -335, 13835, 3969, 7820, 3739, 1230, -2516, -716, -136, 19, 620, 328, 529, 1072, 548, 637, 362, 518
117835872, -335, 13835, 3969, 7820, 3739, 1230, -2516, -716, -136, 19, 620, 328, 529, 1072, 548, 637, 362, 518
117836717, -335, 13835, 3969, 7820, 3739, 1230, -2516, -716, -136, 19, 620, 328, 529, 1072, 548, 637, 362, 518
117837515, -335, 13835, 3969, 7820, 3739, 1230, -2516, -716, -136, 19, 620, 328, 529, 1072, 548, 637, 362, 518
117838312, -335, 13835, 3969, 7820, 3739, 1230, -2516, -716, -136, 19, 620, 328, 529, 1072, 548, 637, 362, 518
117843441, -335, 13835, 3969, 7820, 3739, 1230, -2516, -716, -136, 19, 620, 328, 529, 1072, 548, 637, 362, 518
117844432, -304, 13841, 3954, 7817, 3938, 750, -2592, -242, -90, -99, 620, 328, 529, 1072, 548, 637, 362, 518
117845212, -304, 13841, 3954, 7817, 3938, 750, -2592, -242, -90, -99, 627, 294, 514, 925, 531, 571, 339, 513
117846059, -304, 13841, 3954, 7817, 3938, 750, -2592, -242, -90, -99, 627, 294, 514, 925, 531, 571, 339, 513
117851037, -304, 13841, 3954, 7817, 3938, 750, -2592, -242, -90, -99, 627, 294, 514, 925, 531, 571, 339, 513
117851869, -304, 13841, 3954, 7817, 3938, 750, -2592, -242, -90, -99, 627, 294, 514, 925, 531, 571, 339, 513
117852640, -304, 13841, 3954, 7817, 3938, 750, -2592, -242, -90, -99, 627, 294, 514, 925, 531, 571, 339, 513
117853505, -304, 13841, 3954, 7817, 3938, 750, -2592, -242, -90, -99, 627, 294, 514, 925, 531, 571, 339, 513
117858416, -304, 13841, 3954, 7817, 3938, 750, -2592, -242, -90, -99, 627, 294, 514, 925, 531, 571, 339, 513
117859268, -304, 13841, 3954, 7817, 3938, 750, -2592, -242, -90, -99, 627, 294, 514, 925, 531, 571, 339, 513
117860043, -304, 13841, 3954, 7817, 3938, 750, -2592, -242, -90, -99, 627, 294, 514, 925, 531, 571, 339, 513
117860863, -304, 13841, 3954, 7817, 3938, 750, -2592, -242, -90, -99, 627, 294, 514, 925, 531, 571, 339, 513
117865913, -304, 13841, 3954, 7817, 3938, 750, -2592, -242, -90, -99, 627, 294, 514, 925, 531, 571, 339, 513
117866893, -346, 13841, 3960, 7812, 3963, 967, -2866, 199, 136, 92, 627, 294, 514, 925, 531, 571, 339, 513
117867665, -346, 13841, 3960, 7812, 3963, 967, -2866, 199, 136, 92, 606, 230, 431, 816, 482, 499, 295, 513
117868519, -346, 13841, 3960, 7812, 3963, 967, -2866, 199, 136, 92, 606, 230, 431, 816, 482, 499, 295, 513
117873502, -346, 13841, 3960, 7812, 3963, 967, -2866, 199, 136, 92, 606, 230, 431, 816, 482, 499, 295, 513
117874342, -346, 13841, 3960, 7812, 3963, 967, -2866, 199, 136, 92, 606, 230, 431, 816, 482, 499, 295, 513
117875141, -346, 13841, 3960, 7812, 3963, 967, -2866, 199, 136, 92, 606, 230, 431, 816, 482, 499, 295, 513
117875984, -346, 13841, 3960, 7812, 3963, 967, -2866, 199, 136, 92, 606, 230, 431, 816, 482, 499, 295, 513
117880913, -346, 13841, 3960, 7812, 3963, 967, -2866, 199, 136, 92, 606, 230, 431, 816, 482, 499, 295, 513
117881756, -346, 13841, 3960, 7812, 3963, 967, -2866, 199, 136, 92, 606, 230, 431, 816, 482, 499, 295, 513
117882537, -346, 13841, 3960, 7812, 3963, 967, -2866, 199, 136, 92, 606, 230, 431, 816, 482, 499, 295, 513
117883351, -346, 13841, 3960, 7812, 3963, 967, -2866, 199, 136, 92, 606, 230, 431, 816, 482, 499, 295, 513
117888166, -346, 13841, 3960, 7812, 3963, 967, -2866, 199, 136, 92, 606, 230, 431, 816, 482, 499, 295, 513
117889165, -326, 13824, 3961, 7843, 3677, 1474, -2648, 25, 267, 182, 606, 230, 431, 816, 482, 499, 295, 513
117889921, -326, 13824, 3961, 7843, 3677, 1474, -2648, 25, 267, 182, 595, 300, 331, 698, 372, 438, 248, 480
117895987, -326, 13824, 3961, 7843, 3677, 1474, -2648, 25, 267, 182, 595, 300, 331, 698, 372, 438, 248, 480
117896807, -326, 13824, 3961, 7843, 3677, 1474, -2648, 25, 267, 182, 595, 300, 331, 698, 372, 438, 248, 480
117897615, -326, 13824, 3961, 7843, 3677, 1474, -2648, 25, 267, 182, 595, 300, 331, 698, 372, 438, 248, 480
117898427, -326, 13824, 3961, 7843, 3677, 1474, -2648, 25, 267, 182, 595, 300, 331, 698, 372, 438, 248, 480
117903415, -326, 13824, 3961, 7843, 3677, 1474, -2648, 25, 267, 182, 595, 300, 331, 698, 372, 438, 248, 480
117904271, -326, 13824, 3961, 7843, 3677, 1474, -2648, 25, 267, 182, 595, 300, 331, 698, 372, 438, 248, 480
117905048, -326, 13824, 3961, 7843, 3677, 1474, -2648, 25, 267, 182, 595, 300, 331, 698, 372, 438, 248, 480
117905863, -326, 13824, 3961, 7843, 3677, 1474, -2648, 25, 267, 182, 595, 300, 331, 698, 372, 438, 248, 480
117911066, -230, 13797, 3905, 7922, 3890, 1078, -2292, -647, 213, 11, 595, 300, 331, 698, 372, 438, 248, 480
117911906, -230, 13797, 3905, 7922, 3890, 1078, -2292, -647, 213, 11, 523, 290, 250, 507, 217, 359, 193, 426
117912712, -230, 13797, 3905, 7922, 3890, 1078, -2292, -647, 213, 11, 523, 290, 250, 507, 217, 359, 193, 426
117913545, -230, 13797, 3905, 7922, 3890, 1078, -2292, -647, 213, 11, 523, 290, 250, 507, 217, 359, 193, 426
117918390, -230, 13797, 3905, 7922, 3890, 1078, -2292, -647, 213, 11, 523, 290, 250, 507, 217, 359, 193, 426
117919237, -230, 13797, 3905, 7922, 3890, 1078, -2292, -647, 213, 11, 523, 290, 250, 507, 217, 359, 193, 426
117920018, -230, 13797, 3905, 7922, 3890, 1078, -2292, -647, 213, 11, 523, 290, 250, 507, 217, 359, 193, 426
117920844, -230, 13797, 3905, 7922, 3890, 1078, -2292, -647, 213, 11, 523, 290, 250, 507, 217, 359, 193, 426
117933468, -230, 13797, 3905, 7922, 3890, 1078, -2292, -647, 213, 11, 523, 290, 250, 507, 217, 359, 193, 426
117934359, -61, 13799, 3711, 8015, 4094, 679, -2259, -1523, 67, 272, 523, 290, 250, 507, 217, 359, 193, 426
117935201, -61, 13799, 3711, 8015, 4094, 679, -2259, -1523, 67, 272, 390, 312, 306, 686, 221, 489, 201, 366
117936049, -61, 13799, 3711, 8015, 4094, 679, -2259, -1523, 67, 272, 390, 312, 306, 686, 221, 489, 201, 366
117941033, -61, 13799, 3711, 8015, 4094, 679, -2259, -1523, 67, 272, 390, 312, 306, 686, 221, 489, 201, 366
117941821, -61, 13799, 3711, 8015, 4094, 679, -2259, -1523, 67, 272, 390, 312, 306, 686, 221, 489, 201, 366
117942655, -61, 13799, 3711, 8015, 4094, 679, -2259, -1523, 67, 272, 390, 312, 306, 686, 221, 489, 201, 366
117943507, -61, 13799, 3711, 8015, 4094, 679, -2259, -1523, 67, 272, 390, 312, 306, 686, 221, 489, 201, 366
117955917, -61, 13799, 3711, 8015, 4094, 679, -2259, -1523, 67, 272, 390, 312, 306, 686, 221, 489, 201, 366
117956712, -61, 13799, 3711, 8015, 4094, 679, -2259, -1523, 67, 272, 390, 312, 306, 686, 221, 489, 201, 366
117957543, -61, 13799, 3711, 8015, 4094, 679, -2259, -1523, 67, 272, 390, 312, 306, 686, 221, 489, 201, 366
117958354, -61, 13799, 3711, 8015, 4094, 679, -2259, -1523, 67, 272, 390, 312, 306, 686, 221, 489, 201, 366
117963402, -61, 13799, 3711, 8015, 4094, 679, -2259, -1523, 67, 272, 390, 312, 306, 686, 221, 489, 201, 366
117964343, 60, 13838, 3502, 8041, 3984, 385, -2464, -1364, -157, 396, 390, 312, 306, 686, 221, 489, 201, 366
117965152, 60, 13838, 3502, 8041, 3984, 385, -2464, -1364, -157, 396, 344, 320, 318, 734, 247, 514, 204, 337
117965980, 60, 13838, 3502, 8041, 3984, 385, -2464, -1364, -157, 396, 344, 320, 318, 734, 247, 514, 204, 337
117970988, 60, 13838, 3502, 8041, 3984, 385, -2464, -1364, -157, 396, 344, 320, 318, 734, 247, 514, 204, 337
117971790, 60, 13838, 3502, 8041, 3984, 385, -2464, -1364, -157, 396, 344, 320, 318, 734, 247, 514, 204, 337
117972631, 60, 13838, 3502, 8041, 3984, 385, -2464, -1364, -157, 396, 344, 320, 318, 734, 247, 514, 204, 337
117973416, 60, 13838, 3502, 8041, 3984, 385, -2464, -1364, -157, 396, 344, 320, 318, 734, 247, 514, 204, 337
117978446, 60, 13838, 3502, 8041, 3984, 385, -2464, -1364, -157, 396, 344, 320, 318, 734, 247, 514, 204, 337
117979262, 60, 13838, 3502, 8041, 3984, 385, -2464, -1364, -157, 396, 344, 320, 318, 734, 247, 514, 204, 337
117980072, 60, 13838, 3502, 8041, 3984, 385, -2464, -1364, -157, 396, 344, 320, 318, 734, 247, 514, 204, 337
117980865, 60, 13838, 3502, 8041, 3984, 385, -2464, -1364, -157, 396, 344, 320, 318, 734, 247, 514, 204, 337
117985981, 60, 13838, 3502, 8041, 3984, 385, -2464, -1364, -157, 396, 344, 320, 318, 734, 247, 514, 204, 337
117986868, 16, 13854, 3451, 8036, 3971, 668, -2466, -21, -25, 220, 344, 320, 318, 734, 247, 514, 204, 337
117987719, 16, 13854, 3451, 8036, 3971, 668, -2466, -21, -25, 220, 309, 320, 323, 737, 246, 520, 188, 278
117988492, 16, 13854, 3451, 8036, 3971, 668, -2466, -21, -25, 220, 344, 320, 318, 734, 247, 514, 204, 337
117993500, 16, 13854, 3451, 8036, 3971, 668, -2466, -21, -25, 220, 309, 320, 323, 737, 246, 520, 188, 278
117994290, 16, 13854, 3451, 8036, 3971, 668, -2466, -21, -25, 220, 309, 320, 323, 737, 246, 520, 188, 278
117995114, 16, 13854, 3451, 8036, 3971, 668, -2466, -21, -25, 220, 309, 320, 323, 737, 246, 520, 188, 278
117995917, 16, 13854, 3451, 8036, 3971, 668, -2466, -21, -25, 220, 309, 320, 323, 737, 246, 520, 188, 278
118000883, 16, 13854, 3451, 8036, 3971, 668, -2466, -21, -25, 220, 309, 320, 323, 737, 246, 520, 188, 278
118001711, 16, 13854, 3451, 8036, 3971, 668, -2466, -21, -25, 220, 309, 320, 323, 737, 246, 520, 188, 278
118002538, 16, 13854, 3451, 8036, 3971, 668, -2466, -21, -25, 220, 309, 320, 323, 737, 246, 520, 188, 278
118003367, 16, 13854, 3451, 8036, 3971, 668, -2466, -21, -25, 220, 309, 320, 323, 737, 246, 520, 188, 278
118008415, 16, 13854, 3451, 8036, 3971, 668, -2466, -21, -25, 220, 309, 320, 323, 737, 246, 520, 188, 278
118009369, -107, 13849, 3533, 8008, 3892, 893, -2531, 816, 67, -75, 309, 320, 323, 737, 246, 520, 188, 278
118010165, -107, 13849, 3533, 8008, 3892, 893, -2531, 816, 67, -75, 239, 214, 306, 710, 240, 489, 178, 277
118011009, -107, 13849, 3533, 8008, 3892, 893, -2531, 816, 67, -75, 239, 214, 306, 710, 240, 489, 178, 277
118015990, -107, 13849, 3533, 8008, 3892, 893, -2531, 816, 67, -75, 239, 214, 306, 710, 240, 489, 178, 277
118016837, -107, 13849, 3533, 8008, 3892, 893, -2531, 816, 67, -75, 239, 214, 306, 710, 240, 489, 178, 277
118017637, -107, 13849, 3533, 8008, 3892, 893, -2531, 816, 67, -75, 239, 214, 306, 710, 240, 489, 178, 277
118018481, -107, 13849, 3533, 8008, 3892, 893, -2531, 816, 67, -75, 239, 214, 306, 710, 240, 489, 178, 277
118023357, -107, 13849, 3533, 8008, 3892, 893, -2531, 816, 67, -75, 239, 214, 306, 710, 240, 489, 178, 277
118024212, -107, 13849, 3533, 8008, 3892, 893, -2531, 816, 67, -75, 239, 214, 306, 710, 240, 489, 178, 277
118025013, -107, 13849, 3533, 8008, 3892, 893, -2531, 816, 67, -75, 239, 214, 306, 710, 240, 489, 178, 277
118025830, -107, 13849, 3533, 8008, 3892, 893, -2531, 816, 67, -75, 239, 214, 306, 710, 240, 489, 178, 277
118030948, -107, 13849, 3533, 8008, 3892, 893, -2531, 816, 67, -75, 239, 214, 306, 710, 240, 489, 178, 277
118031852, -232, 13845, 3643, 7963, 3801, 1242, -2733, 1019, 89, -10, 239, 214, 306, 710, 240, 489, 178, 277
118032640, -232, 13845, 3643, 7963, 3801, 1242, -2733, 1019, 89, -10, 216, 197, 282, 675, 221, 457, 164, 241
118033481, -232, 13845, 3643, 7963, 3801, 1242, -2733, 1019, 89, -10, 216, 197, 282, 675, 221, 457, 164, 241
118038528, -232, 13845, 3643, 7963, 3801, 1242, -2733, 1019, 89, -10, 216, 197, 282, 675, 221, 457, 164, 241
118039334, -232, 13845, 3643, 7963, 3801, 1242, -2733, 1019, 89, -10, 216, 197, 282, 675, 221, 457, 164, 241
118040142, -232, 13845, 3643, 7963, 3801, 1242, -2733, 1019, 89, -10, 216, 197, 282, 675, 221, 457, 164, 241
118040950, -232, 13845, 3643, 7963, 3801, 1242, -2733, 1019, 89, -10, 216, 197, 282, 675, 221, 457, 164, 241
118053444, -232, 13845, 3643, 7963, 3801, 1242, -2733, 1019, 89, -10, 216, 197, 282, 675, 221, 457, 164, 241
118054242, -232, 13845, 3643, 7963, 3801, 1242, -2733, 1019, 89, -10, 216, 197, 282, 675, 221, 457, 164, 241
118055059, -232, 13845, 3643, 7963, 3801, 1242, -2733, 1019, 89, -10, 216, 197, 282, 675, 221, 457, 164, 241
118055869, -232, 13845, 3643, 7963, 3801, 1242, -2733, 1019, 89, -10, 216, 197, 282, 675, 221, 457, 164, 241
118060918, -232, 13845, 3643, 7963, 3801, 1242, -2733, 1019, 89, -10, 216, 197, 282, 675, 221, 457, 164, 241
118061869, -302, 13838, 3716, 7938, 3851, 1323, -2649, 674, 63, 44, 216, 197, 282, 675, 221, 457, 164, 241
118062677, -302, 13838, 3716, 7938, 3851, 1323, -2649, 674, 63, 44, 205, 153, 185, 438, 175, 299, 139, 183
118063494, -302, 13838, 3716, 7938, 3851, 1323, -2649, 674, 63, 44, 205, 153, 185, 438, 175, 299, 139, 183
118068490, -302, 13838, 3716, 7938, 3851, 1323, -2649, 674, 63, 44, 205, 153, 185, 438, 175, 299, 139, 183
118069332, -302, 13838, 3716, 7938, 3851, 1323, -2649, 674, 63, 44, 205, 153, 185, 438, 175, 299, 139, 183
118070141, -302, 13838, 3716, 7938, 3851, 1323, -2649, 674, 63, 44, 205, 153, 185, 438, 175, 299, 139, 183
118070946, -302, 13838, 3716, 7938, 3851, 1323, -2649, 674, 63, 44, 205, 153, 185, 438, 175, 299, 139, 183
118075865, -302, 13838, 3716, 7938, 3851, 1323, -2649, 674, 63, 44, 205, 153, 185, 438, 175, 299, 139, 183
118076719, -302, 13838, 3716, 7938, 3851, 1323, -2649, 674, 63, 44, 205, 153, 185, 438, 175, 299, 139, 183
118077490, -302, 13838, 3716, 7938, 3851, 1323, -2649, 674, 63, 44, 205, 153, 185, 438, 175, 299, 139, 183
118078327, -302, 13838, 3716, 7938, 3851, 1323, -2649, 674, 63, 44, 205, 153, 185, 438, 175, 299, 139, 183
118083443, -302, 13838, 3716, 7938, 3851, 1323, -2649, 674, 63, 44, 205, 153, 185, 438, 175, 299, 139, 183
118084341, -282, 13826, 3721, 7957, 3885, 1273, -2492, 6, 105, 81, 205, 153, 185, 438, 175, 299, 139, 183
118085168, -282, 13826, 3721, 7957, 3885, 1273, -2492, 6, 105, 81, 163, 122, 160, 333, 120, 247, 147, 181
118085955, -282, 13826, 3721, 7957, 3885, 1273, -2492, 6, 105, 81, 163, 122, 160, 333, 120, 247, 147, 181
118098520, -282, 13826, 3721, 7957, 3885, 1273, -2492, 6, 105, 81, 163, 122, 160, 333, 120, 247, 147, 181
118099341, -282, 13826, 3721, 7957, 3885, 1273, -2492, 6, 105, 81, 163, 122, 160, 333, 120, 247, 147, 181
118100141, -282, 13826, 3721, 7957, 3885, 1273, -2492, 6, 105, 81, 163, 122, 160, 333, 120, 247, 147, 181
118100966, -282, 13826, 3721, 7957, 3885, 1273, -2492, 6, 105, 81, 163, 122, 160, 333, 120, 247, 147, 181
118105915, -282, 13826, 3721, 7957, 3885, 1273, -2492, 6, 105, 81, 163, 122, 160, 333, 120, 247, 147, 181
118106755, -282, 13826, 3721, 7957, 3885, 1273, -2492, 6, 105, 81, 163, 122, 160, 333, 120, 247, 147, 181
118107563, -282, 13826, 3721, 7957, 3885, 1273, -2492, 6, 105, 81, 163, 122, 160, 333, 120, 247, 147, 181
118108352, -282, 13826, 3721, 7957, 3885, 1273, -2492, 6, 105, 81, 163, 122, 160, 333, 120, 247, 147, 181
118113415, -282, 13826, 3721, 7957, 3885, 1273, -2492, 6, 105, 81, 163, 122, 160, 333, 120, 247, 147, 181
118114390, -189, 13823, 3672, 7988, 3822, 1175, -2476, -540, 64, 91, 163, 122, 160, 333, 120, 247, 147, 181
118115166, -189, 13823, 3672, 7988, 3822, 1175, -2476, -540, 64, 91, 138, 103, 121, 309, 110, 201, 133, 166
118116022, -189, 13823, 3672, 7988, 3822, 1175, -2476, -540, 64, 91, 138, 103, 121, 309, 110, 201, 133, 166
118120990, -189, 13823, 3672, 7988, 3822, 1175, -2476, -540, 64, 91, 138, 103, 121, 309, 110, 201, 133, 166
118121837, -189, 13823, 3672, 7988, 3822, 1175, -2476, -540, 64, 91, 138, 103, 121, 309, 110, 201, 133, 166
118122637, -189, 13823, 3672, 7988, 3822, 1175, -2476, -540, 64, 91, 138, 103, 121, 309, 110, 201, 133, 166
118123481, -189, 13823, 3672, 7988, 3822, 1175, -2476, -540, 64, 91, 138, 103, 121, 309, 110, 201, 133, 166
118128394, -189, 13823, 3672, 7988, 3822, 1175, -2476, -540, 64, 91, 138, 103, 121, 309, 110, 201, 133, 166
118129191, -189, 13823, 3672, 7988, 3822, 1175, -2476, -540, 64, 91, 138, 103, 121, 309, 110, 201, 133, 166
118130024, -189, 13823, 3672, 7988, 3822, 1175, -2476, -540, 64, 91, 138, 103, 121, 309, 110, 201, 133, 166
118130861, -189, 13823, 3672, 7988, 3822, 1175, -2476, -540, 64, 91, 138, 103, 121, 309, 110, 201, 133, 166
118135909, -189, 13823, 3672, 7988, 3822, 1175, -2476, -540, 64, 91, 138, 103, 121, 309, 110, 201, 133, 166
118136889, -95, 13833, 3612, 7999, 3826, 1037, -2515, -609, -43, 79, 138, 103, 121, 309, 110, 201, 133, 166
118137646, -95, 13833, 3612, 7999, 3826, 1037, -2515, -609, -43, 79, 122, 92, 103, 275, 100, 179, 129, 150
118138493, -95, 13833, 3612, 7999, 3826, 1037, -2515, -609, -43, 79, 122, 92, 103, 275, 100, 179, 129, 150
118143491, -95, 13833, 3612, 7999, 3826, 1037, -2515, -609, -43, 79, 122, 92, 103, 275, 100, 179, 129, 150
118144314, -95, 13833, 3612, 7999, 3826, 1037, -2515, -609, -43, 79, 122, 92, 103, 275, 100, 179, 129, 150
118145163, -95, 13833, 3612, 7999, 3826, 1037, -2515, -609, -43, 79, 122, 92, 103, 275, 100, 179, 129, 150
118145945, -95, 13833, 3612, 7999, 3826, 1037, -2515, -609, -43, 79, 122, 92, 103, 275, 100, 179, 129, 150
118150919, -95, 13833, 3612, 7999, 3826, 1037, -2515, -609, -43, 79, 122, 92, 103, 275, 100, 179, 129, 150
118151751, -95, 13833, 3612, 7999, 3826, 1037, -2515, -609, -43, 79, 122, 92, 103, 275, 100, 179, 129, 150
118152565, -95, 13833, 3612, 7999, 3826, 1037, -2515, -609, -43, 79, 122, 92, 103, 275, 100, 179, 129, 150
118153379, -95, 13833, 3612, 7999, 3826, 1037, -2515, -609, -43, 79, 122, 92, 103, 275, 100, 179, 129, 150
118158317, -40, 13849, 3561, 7995, 3907, 856, -2480, -432, -132, 47, 122, 92, 103, 275, 100, 179, 129, 150
118159144, -40, 13849, 3561, 7995, 3907, 856, -2480, -432, -132, 47, 113, 78, 88, 208, 91, 142, 129, 124
118159942, -40, 13849, 3561, 7995, 3907, 856, -2480, -432, -132, 47, 113, 78, 88, 208, 91, 142, 129, 124
118160811, -40, 13849, 3561, 7995, 3907, 856, -2480, -432, -132, 47, 113, 78, 88, 208, 91, 142, 129, 124
118165891, -40, 13849, 3561, 7995, 3907, 856, -2480, -432, -132, 47, 113, 78, 88, 208, 91, 142, 129, 124
118166755, -40, 13849, 3561, 7995, 3907, 856, -2480, -432, -132, 47, 113, 78, 88, 208, 91, 142, 129, 124
118167537, -40, 13849, 3561, 7995, 3907, 856, -2480, -432, -132, 47, 113, 78, 88, 208, 91, 142, 129, 124
118168351, -40, 13849, 3561, 7995, 3907, 856, -2480, -432, -132, 47, 113, 78, 88, 208, 91, 142, 129, 124
118173390, -40, 13849, 3561, 7995, 3907, 856, -2480, -432, -132, 47, 113, 78, 88, 208, 91, 142, 129, 124
118174383, -27, 13862, 3531, 7988, 3972, 791, -2445, -189, -119, 29, 113, 78, 88, 208, 91, 142, 129, 124
118175166, -27, 13862, 3531, 7988, 3972, 791, -2445, -189, -119, 29, 81, 65, 69, 113, 88, 96, 129, 101
118175996, -27, 13862, 3531, 7988, 3972, 791, -2445, -189, -119, 29, 81, 65, 69, 113, 88, 96, 129, 101
118188465, -27, 13862, 3531, 7988, 3972, 791, -2445, -189, -119, 29, 81, 65, 69, 113, 88, 96, 129, 101
118189331, -27, 13862, 3531, 7988, 3972, 791, -2445, -189, -119, 29, 81, 65, 69, 113, 88, 96, 129, 101
118190140, -27, 13862, 3531, 7988, 3972, 791, -2445, -189, -119, 29, 81, 65, 69, 113, 88, 96, 129, 101
118190917, -27, 13862, 3531, 7988, 3972, 791, -2445, -189, -119, 29, 81, 65, 69, 113, 88, 96, 129, 101
118195865, -27, 13862, 3531, 7988, 3972, 791, -2445, -189, -119, 29, 81, 65, 69, 113, 88, 96, 129, 101
118196719, -27, 13862, 3531, 7988, 3972, 791, -2445, -189, -119, 29, 81, 65, 69, 113, 88, 96, 129, 101
118197512, -27, 13862, 3531, 7988, 3972, 791, -2445, -189, -119, 29, 81, 65, 69, 113, 88, 96, 129, 101
118198327, -27, 13862, 3531, 7988, 3972, 791, -2445, -189, -119, 29, 81, 65, 69, 113, 88, 96, 129, 101
118210991, -27, 13862, 3531, 7988, 3972, 791, -2445, -189, -119, 29, 69, 44, 36, 110, 61, 72, 70, 90
118211825, -27, 13862, 3531, 7988, 3972, 791, -2445, -189, -119, 29, 69, 44, 36, 110, 61, 72, 70, 90
118212615, -27, 13862, 3531, 7988, 3972, 791, -2445, -189, -119, 29, 69, 44, 36, 110, 61, 72, 70, 90
118213434, -27, 13862, 3531, 7988, 3972, 791, -2445, -189, -119, 29, 69, 44, 36, 110, 61, 72, 70, 90
118218366, -27, 13862, 3531, 7988, 3972, 791, -2445, -189, -119, 29, 69, 44, 36, 110, 61, 72, 70, 90
118219201, -27, 13862, 3531, 7988, 3972, 791, -2445, -189, -119, 29, 69, 44, 36, 110, 61, 72, 70, 90
118219994, -27, 13862, 3531, 7988, 3972, 791, -2445, -189, -119, 29, 69, 44, 36, 110, 61, 72, 70, 90
118220830, -27, 13862, 3531, 7988, 3972, 791, -2445, -189, -119, 29, 69, 44, 36, 110, 61, 72, 70, 90
118225888, -27, 13862, 3531, 7988, 3972, 791, -2445, -189, -119, 29, 69, 44, 36, 110, 61, 72, 70, 90
118226857, -63, 13864, 3529, 7984, 3915, 1009, -2449, 133, 5, 58, 69, 44, 36, 110, 61, 72, 70, 90
118227640, -63, 13864, 3529, 7984, 3915, 1009, -2449, 133, 5, 58, 85, 42, 32, 101, 50, 74, 64, 98
118228485, -63, 13864, 3529, 7984, 3915, 1009, -2449, 133, 5, 58, 85, 42, 32, 101, 50, 74, 64, 98
118233490, -63, 13864, 3529, 7984, 3915, 1009, -2449, 133, 5, 58, 85, 42, 32, 101, 50, 74, 64, 98
118234265, -63, 13864, 3529, 7984, 3915, 1009, -2449, 133, 5, 58, 85, 42, 32, 101, 50, 74, 64, 98
118235163, -63, 13864, 3529, 7984, 3915, 1009, -2449, 133, 5, 58, 85, 42, 32, 101, 50, 74, 64, 98
118235961, -63, 13864, 3529, 7984, 3915, 1009, -2449, 133, 5, 58, 85, 42, 32, 101, 50, 74, 64, 98
118240944, -63, 13864, 3529, 7984, 3915, 1009, -2449, 133, 5, 58, 85, 42, 32, 101, 50, 74, 64, 98
118241736, -63, 13864, 3529, 7984, 3915, 1009, -2449, 133, 5, 58, 85, 42, 32, 101, 50, 74, 64, 98
118242551, -63, 13864, 3529, 7984, 3915, 1009, -2449, 133, 5, 58, 85, 42, 32, 101, 50, 74, 64, 98
118243387, -63, 13864, 3529, 7984, 3915, 1009, -2449, 133, 5, 58, 85, 42, 32, 101, 50, 74, 64, 98
118248554, -77, 13862, 3530, 7987, 3917, 1027, -2463, 87, 29, 62, 85, 42, 32, 101, 50, 74, 64, 98
118249364, -77, 13862, 3530, 7987, 3917, 1027, -2463, 87, 29, 62, 86, 34, 29, 94, 52, 73, 57, 99
118250173, -77, 13862, 3530, 7987, 3917, 1027, -2463, 87, 29, 62, 86, 34, 29, 94, 52, 73, 57, 99
118251031, -77, 13862, 3530, 7987, 3917, 1027, -2463, 87, 29, 62, 86, 34, 29, 94, 52, 73, 57, 99
118255892, -77, 13862, 3530, 7987, 3917, 1027, -2463, 87, 29, 62, 86, 34, 29, 94, 52, 73, 57, 99
118256697, -77, 13862, 3530, 7987, 3917, 1027, -2463, 87, 29, 62, 86, 34, 29, 94, 52, 73, 57, 99
118257553, -77, 13862, 3530, 7987, 3917, 1027, -2463, 87, 29, 62, 86, 34, 29, 94, 52, 73, 57, 99
118258316, -77, 13862, 3530, 7987, 3917, 1027, -2463, 87, 29, 62, 86, 34, 29, 94, 52, 73, 57, 99
118263417, -77, 13862, 3530, 7987, 3917, 1027, -2463, 87, 29, 62, 86, 34, 29, 94, 52, 73, 57, 99
118264317, -78, 13859, 3532, 7992, 3884, 1013, -2510, 19, 54, 21, 86, 34, 29, 94, 52, 73, 57, 99
118265180, -78, 13859, 3532, 7992, 3884, 1013, -2510, 19, 54, 21, 83, 37, 33, 93, 50, 68, 56, 97
118265961, -78, 13859, 3532, 7992, 3884, 1013, -2510, 19, 54, 21, 83, 37, 33, 93, 50, 68, 56, 97
118270944, -78, 13859, 3532, 7992, 3884, 1013, -2510, 19, 54, 21, 83, 37, 33, 93, 50, 68, 56, 97
118271765, -78, 13859, 3532, 7992, 3884, 1013, -2510, 19, 54, 21, 83, 37, 33, 93, 50, 68, 56, 97
118272564, -78, 13859, 3532, 7992, 3884, 1013, -2510, 19, 54, 21, 83, 37, 33, 93, 50, 68, 56, 97
118273389, -78, 13859, 3532, 7992, 3884, 1013, -2510, 19, 54, 21, 83, 37, 33, 93, 50, 68, 56, 97
118278372, -78, 13859, 3532, 7992, 3884, 1013, -2510, 19, 54, 21, 83, 37, 33, 93, 50, 68, 56, 97
118279164, -78, 13859, 3532, 7992, 3884, 1013, -2510, 19, 54, 21, 83, 37, 33, 93, 50, 68, 56, 97
118279990, -78, 13859, 3532, 7992, 3884, 1013, -2510, 19, 54, 21, 83, 37, 33, 93, 50, 68, 56, 97
118280789, -78, 13859, 3532, 7992, 3884, 1013, -2510, 19, 54, 21, 83, 37, 33, 93, 50, 68, 56, 97
118285696, -78, 13859, 3532, 7992, 3884, 1013, -2510, 19, 54, 21, 83, 37, 33, 93, 50, 68, 56, 97
118286625, -71, 13856, 3533, 7997, 3871, 1014, -2474, -20, 34, 1, 83, 37, 33, 93, 50, 68, 56, 97
118287440, -71, 13856, 3533, 7997, 3871, 1014, -2474, -20, 34, 1, 92, 36, 35, 88, 51, 56, 52, 105
118293510, -71, 13856, 3533, 7997, 3871, 1014, -2474, -20, 34, 1, 92, 36, 35, 88, 51, 56, 52, 105
118294323, -71, 13856, 3533, 7997, 3871, 1014, -2474, -20, 34, 1, 92, 36, 35, 88, 51, 56, 52, 105
118295146, -71, 13856, 3533, 7997, 3871, 1014, -2474, -20, 34, 1, 92, 36, 35, 88, 51, 56, 52, 105
118295970, -71, 13856, 3533, 7997, 3871, 1014, -2474, -20, 34, 1, 92, 36, 35, 88, 51, 56, 52, 105
118308368, -71, 13856, 3533, 7997, 3871, 1014, -2474, -20, 34, 1, 92, 36, 35, 88, 51, 56, 52, 105
118309218, -71, 13856, 3533, 7997, 3871, 1014, -2474, -20, 34, 1, 92, 36, 35, 88, 51, 56, 52, 105
118310014, -71, 13856, 3533, 7997, 3871, 1014, -2474, -20, 34, 1, 92, 36, 35, 88, 51, 56, 52, 105
118310849, -71, 13856, 3533, 7997, 3871, 1014, -2474, -20, 34, 1, 92, 36, 35, 88, 51, 56, 52, 105
118315892, -71, 13856, 3533, 7997, 3871, 1014, -2474, -20, 34, 1, 92, 36, 35, 88, 51, 56, 52, 105
118316815, -79, 13856, 3537, 7994, 3896, 980, -2494, 53, 6, 12, 92, 36, 35, 88, 51, 56, 52, 105
118317666, -79, 13856, 3537, 7994, 3896, 980, -2494, 53, 6, 12, 91, 36, 36, 68, 54, 58, 48, 108
118318440, -79, 13856, 3537, 7994, 3896, 980, -2494, 53, 6, 12, 91, 36, 36, 68, 54, 58, 48, 108
118330964, -79, 13856, 3537, 7994, 3896, 980, -2494, 53, 6, 12, 91, 36, 36, 68, 54, 58, 48, 108
118331763, -79, 13856, 3537, 7994, 3896, 980, -2494, 53, 6, 12, 91, 36, 36, 68, 54, 58, 48, 108
118332587, -79, 13856, 3537, 7994, 3896, 980, -2494, 53, 6, 12, 91, 36, 36, 68, 54, 58, 48, 108
118333400, -79, 13856, 3537, 7994, 3896, 980, -2494, 53, 6, 12, 91, 36, 36, 68, 54, 58, 48, 108
118338353, -79, 13856, 3537, 7994, 3896, 980, -2494, 53, 6, 12, 91, 36, 36, 68, 54, 58, 48, 108
118339177, -79, 13856, 3537, 7994, 3896, 980, -2494, 53, 6, 12, 91, 36, 36, 68, 54, 58, 48, 108
118339989, -79, 13856, 3537, 7994, 3896, 980, -2494, 53, 6, 12, 91, 36, 36, 68, 54, 58, 48, 108
118340801, -79, 13856, 3537, 7994, 3896, 980, -2494, 53, 6, 12, 91, 36, 36, 68, 54, 58, 48, 108
118345915, -79, 13856, 3537, 7994, 3896, 980, -2494, 53, 6, 12, 91, 36, 36, 68, 54, 58, 48, 108
118346891, -85, 13855, 3541, 7994, 3912, 974, -2485, 47, 18, 3, 91, 36, 36, 68, 54, 58, 48, 108
118347665, -85, 13855, 3541, 7994, 3912, 974, -2485, 47, 18, 3, 94, 35, 40, 73, 58, 59, 55, 103
118348530, -85, 13855, 3541, 7994, 3912, 974, -2485, 47, 18, 3, 94, 35, 40, 73, 58, 59, 55, 103
118353491, -85, 13855, 3541, 7994, 3912, 974, -2485, 47, 18, 3, 94, 35, 40, 73, 58, 59, 55, 103
118354329, -85, 13855, 3541, 7994, 3912, 974, -2485, 47, 18, 3, 94, 35, 40, 73, 58, 59, 55, 103
118355161, -85, 13855, 3541, 7994, 3912, 974, -2485, 47, 18, 3, 94, 35, 40, 73, 58, 59, 55, 103
118355968, -85, 13855, 3541, 7994, 3912, 974, -2485, 47, 18, 3, 94, 35, 40, 73, 58, 59, 55, 103
118360905, -85, 13855, 3541, 7994, 3912, 974, -2485, 47, 18, 3, 94, 35, 40, 73, 58, 59, 55, 103
118361711, -85, 13855, 3541, 7994, 3912, 974, -2485, 47, 18, 3, 94, 35, 40, 73, 58, 59, 55, 103
118362526, -85, 13855, 3541, 7994, 3912, 974, -2485, 47, 18, 3, 94, 35, 40, 73, 58, 59, 55, 103
118363340, -85, 13855, 3541, 7994, 3912, 974, -2485, 47, 18, 3, 94, 35, 40, 73, 58, 59, 55, 103
118368430, -85, 13855, 3541, 7994, 3912, 974, -2485, 47, 18, 3, 94, 35, 40, 73, 58, 59, 55, 103
118369343, -89, 13851, 3550, 7997, 3897, 1005, -2477, 48, 34, -10, 94, 35, 40, 73, 58, 59, 55, 103
118370167, -89, 13851, 3550, 7997, 3897, 1005, -2477, 48, 34, -10, 88, 37, 44, 66, 74, 63, 55, 94
118370967, -89, 13851, 3550, 7997, 3897, 1005, -2477, 48, 34, -10, 88, 37, 44, 66, 74, 63, 55, 94
118376093, -89, 13851, 3550, 7997, 3897, 1005, -2477, 48, 34, -10, 88, 37, 44, 66, 74, 63, 55, 94
118376826, -89, 13851, 3550, 7997, 3897, 1005, -2477, 48, 34, -10, 88, 37, 44, 66, 74, 63, 55, 94
118377633, -89, 13851, 3550, 7997, 3897, 1005, -2477, 48, 34, -10, 88, 37, 44, 66, 74, 63, 55, 94
118378441, -89, 13851, 3550, 7997, 3897, 1005, -2477, 48, 34, -10, 88, 37, 44, 66, 74, 63, 55, 94
118383378, -89, 13851, 3550, 7997, 3897, 1005, -2477, 48, 34, -10, 88, 37, 44, 66, 74, 63, 55, 94
118384206, -89, 13851, 3550, 7997, 3897, 1005, -2477, 48, 34, -10, 88, 37, 44, 66, 74, 63, 55, 94
118384994, -89, 13851, 3550, 7997, 3897, 1005, -2477, 48, 34, -10, 88, 37, 44, 66, 74, 63, 55, 94
118385836, -89, 13851, 3550, 7997, 3897, 1005, -2477, 48, 34, -10, 88, 37, 44, 66, 74, 63, 55, 94
118390941, -89, 13851, 3550, 7997, 3897, 1005, -2477, 48, 34, -10, 88, 37, 44, 66, 74, 63, 55, 94
118391881, -94, 13848, 3555, 8001, 3898, 1002, -2479, 48, 38, 8, 88, 37, 44, 66, 74, 63, 55, 94
118392693, -94, 13848, 3555, 8001, 3898, 1002, -2479, 48, 38, 8, 112, 40, 45, 78, 74, 67, 52, 114
118393492, -94, 13848, 3555, 8001, 3898, 1002, -2479, 48, 38, 8, 112, 40, 45, 78, 74, 67, 52, 114
118398514, -94, 13848, 3555, 8001, 3898, 1002, -2479, 48, 38, 8, 112, 40, 45, 78, 74, 67, 52, 114
118399340, -94, 13848, 3555, 8001, 3898, 1002, -2479, 48, 38, 8, 112, 40, 45, 78, 74, 67, 52, 114
118400163, -94, 13848, 3555, 8001, 3898, 1002, -2479, 48, 38, 8, 112, 40, 45, 78, 74, 67, 52, 114
118400971, -94, 13848, 3555, 8001, 3898, 1002, -2479, 48, 38, 8, 112, 40, 45, 78, 74, 67, 52, 114
118405903, -94, 13848, 3555, 8001, 3898, 1002, -2479, 48, 38, 8, 112, 40, 45, 78, 74, 67, 52, 114
118406757, -94, 13848, 3555, 8001, 3898, 1002, -2479, 48, 38, 8, 112, 40, 45, 78, 74, 67, 52, 114
118407562, -94, 13848, 3555, 8001, 3898, 1002, -2479, 48, 38, 8, 112, 40, 45, 78, 74, 67, 52, 114
118408368, -94, 13848, 3555, 8001, 3898, 1002, -2479, 48, 38, 8, 112, 40, 45, 78, 74, 67, 52, 114
118413419, -94, 13848, 3555, 8001, 3898, 1002, -2479, 48, 38, 8, 112, 40, 45, 78, 74, 67, 52, 114
118414335, -100, 13847, 3562, 7999, 3893, 1002, -2510, 58, 21, 6, 112, 40, 45, 78, 74, 67, 52, 114
118415141, -100, 13847, 3562, 7999, 3893, 1002, -2510, 58, 21, 6, 109, 42, 44, 72, 77, 66, 49, 104
118415947, -100, 13847, 3562, 7999, 3893, 1002, -2510, 58, 21, 6, 109, 42, 44, 72, 77, 66, 49, 104
118420981, -100, 13847, 3562, 7999, 3893, 1002, -2510, 58, 21, 6, 109, 42, 44, 72, 77, 66, 49, 104
118421780, -100, 13847, 3562, 7999, 3893, 1002, -2510, 58, 21, 6, 109, 42, 44, 72, 77, 66, 49, 104
118422590, -100, 13847, 3562, 7999, 3893, 1002, -2510, 58, 21, 6, 109, 42, 44, 72, 77, 66, 49, 104
118423415, -100, 13847, 3562, 7999, 3893, 1002, -2510, 58, 21, 6, 109, 42, 44, 72, 77, 66, 49, 104
118428369, -100, 13847, 3562, 7999, 3893, 1002, -2510, 58, 21, 6, 109, 42, 44, 72, 77, 66, 49, 104
118429218, -100, 13847, 3562, 7999, 3893, 1002, -2510, 58, 21, 6, 109, 42, 44, 72, 77, 66, 49, 104
118430022, -100, 13847, 3562, 7999, 3893, 1002, -2510, 58, 21, 6, 109, 42, 44, 72, 77, 66, 49, 104
118430828, -100, 13847, 3562, 7999, 3893, 1002, -2510, 58, 21, 6, 109, 42, 44, 72, 77, 66, 49, 104
118435906, -100, 13847, 3562, 7999, 3893, 1002, -2510, 58, 21, 6, 109, 42, 44, 72, 77, 66, 49, 104
118436846, -106, 13847, 3573, 7993, 3897, 958, -2525, 62, 5, -33, 109, 42, 44, 72, 77, 66, 49, 104
118437661, -106, 13847, 3573, 7993, 3897, 958, -2525, 62, 5, -33, 116, 50, 52, 83, 81, 78, 50, 102
118438493, -106, 13847, 3573, 7993, 3897, 958, -2525, 62, 5, -33, 116, 50, 52, 83, 81, 78, 50, 102
118443467, -106, 13847, 3573, 7993, 3897, 958, -2525, 62, 5, -33, 116, 50, 52, 83, 81, 78, 50, 102
118444331, -106, 13847, 3573, 7993, 3897, 958, -2525, 62, 5, -33, 116, 50, 52, 83, 81, 78, 50, 102
118445163, -106, 13847, 3573, 7993, 3897, 958, -2525, 62, 5, -33, 116, 50, 52, 83, 81, 78, 50, 102
118445958, -106, 13847, 3573, 7993, 3897, 958, -2525, 62, 5, -33, 116, 50, 52, 83, 81, 78, 50, 102
118450916, -106, 13847, 3573, 7993, 3897, 958, -2525, 62, 5, -33, 116, 50, 52, 83, 81, 78, 50, 102
118451781, -106, 13847, 3573, 7993, 3897, 958, -2525, 62, 5, -33, 116, 50, 52, 83, 81, 78, 50, 102
118452563, -106, 13847, 3573, 7993, 3897, 958, -2525, 62, 5, -33, 116, 50, 52, 83, 81, 78, 50, 102
118453388, -106, 13847, 3573, 7993, 3897, 958, -2525, 62, 5, -33, 116, 50, 52, 83, 81, 78, 50, 102
118458493, -109, 13847, 3586, 7988, 3907, 994, -2555, 61, 18, -35, 116, 50, 52, 83, 81, 78, 50, 102
118459306, -109, 13847, 3586, 7988, 3907, 994, -2555, 61, 18, -35, 105, 49, 50, 70, 72, 72, 42, 95
118460115, -109, 13847, 3586, 7988, 3907, 994, -2555, 61, 18, -35, 105, 49, 50, 70, 72, 72, 42, 95
118460918, -109, 13847, 3586, 7988, 3907, 994, -2555, 61, 18, -35, 105, 49, 50, 70, 72, 72, 42, 95
118465900, -109, 13847, 3586, 7988, 3907, 994, -2555, 61, 18, -35, 105, 49, 50, 70, 72, 72, 42, 95
118466712, -109, 13847, 3586, 7988, 3907, 994, -2555, 61, 18, -35, 105, 49, 50, 70, 72, 72, 42, 95
118467517, -109, 13847, 3586, 7988, 3907, 994, -2555, 61, 18, -35, 105, 49, 50, 70, 72, 72, 42, 95
118468329, -109, 13847, 3586, 7988, 3907, 994, -2555, 61, 18, -35, 105, 49, 50, 70, 72, 72, 42, 95
118473390, -109, 13847, 3586, 7988, 3907, 994, -2555, 61, 18, -35, 105, 49, 50, 70, 72, 72, 42, 95
118474371, -111, 13845, 3596, 7987, 3884, 985, -2507, 42, 20, -28, 105, 49, 50, 70, 72, 72, 42, 95
118475141, -111, 13845, 3596, 7987, 3884, 985, -2507, 42, 20, -28, 105, 47, 44, 70, 51, 67, 41, 98
118475990, -111, 13845, 3596, 7987, 3884, 985, -2507, 42, 20, -28, 105, 47, 44, 70, 51, 67, 41, 98
