Timestamp, Orientation x, Orientation y, Orientation z, Orientation w, Acceleration x, Acceleration y, Acceleration z, Rotation x, Rotation y, Rotation z, EMG 0, EMG 1, EMG 2, EMG 3, EMG 4, EMG 5, EMG 6, EMG 7
106613674, -2848, 14917, 2093, 5781, 3918, 1301, -2481, -169, 439, -1048, 0, 0, 0, 0, 0, 0, 0, 0
106621174, -2758, 14860, 2270, 5901, 3959, 1339, -2436, -143, 488, -1238, 0, 0, 0, 0, 0, 0, 0, 0
106636158, -2648, 14794, 2469, 6038, 3975, 1402, -2469, -204, 558, -1415, 0, 0, 0, 0, 0, 0, 0, 0
106658646, -2541, 14713, 2692, 6184, 4054, 1400, -2424, -128, 606, -1550, 0, 0, 0, 0, 0, 0, 0, 0
106682521, -2469, 14609, 2967, 6331, 4007, 1448, -2416, 173, 658, -1754, 0, 0, 0, 0, 0, 0, 0, 0
106683277, -2469, 14609, 2967, 6331, 4007, 1448, -2416, 173, 658, -1754, 126, 171, 140, 177, 46, 118, 52, 65
106684184, -2469, 14609, 2967, 6331, 4007, 1448, -2416, 173, 658, -1754, 126, 171, 140, 177, 46, 118, 52, 65
106696196, -2418, 14479, 3310, 6478, 3925, 1624, -2334, 447, 672, -2082, 126, 171, 140, 177, 46, 118, 52, 65
106704260, -2418, 14479, 3310, 6478, 3925, 1624, -2334, 447, 672, -2082, 179, 210, 148, 170, 43, 88, 55, 91
106705156, -2418, 14479, 3310, 6478, 3925, 1624, -2334, 447, 672, -2082, 179, 210, 148, 170, 43, 88, 55, 91
106718633, -2367, 14334, 3710, 6601, 3979, 1820, -2275, 613, 539, -2358, 179, 210, 148, 170, 43, 88, 55, 91
106726757, -2367, 14334, 3710, 6601, 3979, 1820, -2275, 613, 539, -2358, 236, 206, 128, 165, 38, 75, 51, 124
106727566, -2367, 14334, 3710, 6601, 3979, 1820, -2275, 613, 539, -2358, 236, 206, 128, 165, 38, 75, 51, 124
106742473, -2294, 14173, 4125, 6728, 3992, 1843, -2254, 551, 560, -2502, 236, 206, 128, 165, 38, 75, 51, 124
106743265, -2294, 14173, 4125, 6728, 3992, 1843, -2254, 551, 560, -2502, 300, 251, 137, 182, 38, 86, 57, 130
106744167, -2294, 14173, 4125, 6728, 3992, 1843, -2254, 551, 560, -2502, 300, 251, 137, 182, 38, 86, 57, 130
106756142, -2183, 13997, 4512, 6883, 3806, 1972, -2245, 270, 691, -2497, 300, 251, 137, 182, 38, 86, 57, 130
106764282, -2183, 13997, 4512, 6883, 3806, 1972, -2245, 270, 691, -2497, 354, 273, 158, 186, 47, 107, 64, 173
106765116, -2183, 13997, 4512, 6883, 3806, 1972, -2245, 270, 691, -2497, 354, 273, 158, 186, 47, 107, 64, 173
106778617, -2050, 13807, 4896, 7043, 3646, 2144, -2131, 157, 724, -2563, 354, 273, 158, 186, 47, 107, 64, 173
106786773, -2050, 13807, 4896, 7043, 3646, 2144, -2131, 157, 724, -2563, 431, 305, 157, 194, 50, 125, 75, 254
106787574, -2050, 13807, 4896, 7043, 3646, 2144, -2131, 157, 724, -2563, 431, 305, 157, 194, 50, 125, 75, 254
106802494, -1862, 13582, 5324, 7220, 3417, 2241, -1989, 157, 697, -2776, 431, 305, 157, 194, 50, 125, 75, 254
106803331, -1862, 13582, 5324, 7220, 3417, 2241, -1989, 157, 697, -2776, 546, 339, 169, 193, 54, 132, 82, 343
106804140, -1862, 13582, 5324, 7220, 3417, 2241, -1989, 157, 697, -2776, 546, 339, 169, 193, 54, 132, 82, 343
106816196, -1685, 13337, 5780, 7367, 3213, 2308, -1989, 334, 641, -2909, 546, 339, 169, 193, 54, 132, 82, 343
106824280, -1685, 13337, 5780, 7367, 3213, 2308, -1989, 334, 641, -2909, 609, 346, 169, 179, 54, 128, 99, 446
106825139, -1685, 13337, 5780, 7367, 3213, 2308, -1989, 334, 641, -2909, 609, 346, 169, 179, 54, 128, 99, 446
106838670, -1509, 13082, 6241, 7486, 2970, 2225, -2100, 381, 563, -2955, 609, 346, 169, 179, 54, 128, 99, 446
106846763, -1509, 13082, 6241, 7486, 2970, 2225, -2100, 381, 563, -2955, 628, 328, 193, 198, 65, 160, 103, 539
106847589, -1509, 13082, 6241, 7486, 2970, 2225, -2100, 381, 563, -2955, 628, 328, 193, 198, 65, 160, 103, 539
106862467, -1306, 12830, 6694, 7569, 2632, 2087, -2145, 293, 379, -2990, 628, 328, 193, 198, 65, 160, 103, 539
106863258, -1306, 12830, 6694, 7569, 2632, 2087, -2145, 293, 379, -2990, 675, 351, 192, 244, 68, 191, 109, 557
106864116, -1306, 12830, 6694, 7569, 2632, 2087, -2145, 293, 379, -2990, 675, 351, 192, 244, 68, 191, 109, 557
106876136, -1089, 12588, 7130, 7612, 2472, 2075, -2355, 250, 179, -2931, 675, 351, 192, 244, 68, 191, 109, 557
106884291, -1089, 12588, 7130, 7612, 2472, 2075, -2355, 250, 179, -2931, 696, 323, 183, 262, 72, 185, 114, 609
106885171, -1089, 12588, 7130, 7612, 2472, 2075, -2355, 250, 179, -2931, 696, 323, 183, 262, 72, 185, 114, 609
106898626, -884, 12348, 7568, 7608, 2512, 2140, -2285, 411, -18, -2905, 696, 323, 183, 262, 72, 185, 114, 609
106906793, -884, 12348, 7568, 7608, 2512, 2140, -2285, 411, -18, -2905, 724, 291, 181, 261, 76, 195, 125, 648
106907591, -884, 12348, 7568, 7608, 2512, 2140, -2285, 411, -18, -2905, 724, 291, 181, 261, 76, 195, 125, 648
106922520, -696, 12098, 8014, 7571, 2444, 2124, -2290, 582, -95, -2926, 724, 291, 181, 261, 76, 195, 125, 648
106923291, -696, 12098, 8014, 7571, 2444, 2124, -2290, 582, -95, -2926, 786, 390, 205, 270, 84, 217, 129, 609
106924182, -696, 12098, 8014, 7571, 2444, 2124, -2290, 582, -95, -2926, 786, 390, 205, 270, 84, 217, 129, 609
106936190, -515, 11860, 8415, 7528, 2196, 1969, -2446, 476, -94, -2708, 786, 390, 205, 270, 84, 217, 129, 609
106944299, -515, 11860, 8415, 7528, 2196, 1969, -2446, 476, -94, -2708, 786, 411, 203, 289, 80, 205, 132, 577
106945138, -515, 11860, 8415, 7528, 2196, 1969, -2446, 476, -94, -2708, 786, 411, 203, 289, 80, 205, 132, 577
106958681, -326, 11642, 8745, 7502, 2149, 2017, -2411, 205, -96, -2392, 786, 411, 203, 289, 80, 205, 132, 577
106966771, -326, 11642, 8745, 7502, 2149, 2017, -2411, 205, -96, -2392, 857, 417, 203, 278, 85, 207, 139, 595
106967565, -326, 11642, 8745, 7502, 2149, 2017, -2411, 205, -96, -2392, 857, 417, 203, 278, 85, 207, 139, 595
106982477, -146, 11440, 9050, 7457, 2172, 1929, -2266, 225, -208, -2251, 857, 417, 203, 278, 85, 207, 139, 595
106983266, -146, 11440, 9050, 7457, 2172, 1929, -2266, 225, -208, -2251, 850, 478, 224, 301, 89, 226, 134, 565
106984142, -146, 11440, 9050, 7457, 2172, 1929, -2266, 225, -208, -2251, 850, 478, 224, 301, 89, 226, 134, 565
107004990, -7, 11258, 9315, 7409, 2057, 1796, -2220, 281, -145, -1942, 850, 478, 224, 301, 89, 226, 134, 565
107005812, -7, 11258, 9315, 7409, 2057, 1796, -2220, 281, -145, -1942, 840, 503, 232, 303, 93, 219, 124, 521
107006615, -7, 11258, 9315, 7409, 2057, 1796, -2220, 281, -145, -1942, 840, 503, 232, 303, 93, 219, 124, 521
107018675, 84, 11107, 9546, 7343, 1847, 1717, -2183, 371, -43, -1569, 840, 503, 232, 303, 93, 219, 124, 521
107026793, 84, 11107, 9546, 7343, 1847, 1717, -2183, 371, -43, -1569, 779, 485, 227, 305, 93, 200, 123, 621
107027588, 84, 11107, 9546, 7343, 1847, 1717, -2183, 371, -43, -1569, 779, 485, 227, 305, 93, 200, 123, 621
107042498, 148, 10980, 9734, 7285, 1647, 1856, -2125, 403, 28, -1182, 779, 485, 227, 305, 93, 200, 123, 621
107043283, 148, 10980, 9734, 7285, 1647, 1856, -2125, 403, 28, -1182, 819, 483, 210, 265, 90, 188, 124, 624
107044154, 148, 10980, 9734, 7285, 1647, 1856, -2125, 403, 28, -1182, 819, 483, 210, 265, 90, 188, 124, 624
107064962, 216, 10864, 9890, 7246, 1512, 2093, -2132, 314, 92, -938, 819, 483, 210, 265, 90, 188, 124, 624
107065733, 216, 10864, 9890, 7246, 1512, 2093, -2132, 314, 92, -938, 731, 467, 216, 231, 83, 146, 115, 633
107066565, 216, 10864, 9890, 7246, 1512, 2093, -2132, 314, 92, -938, 731, 467, 216, 231, 83, 146, 115, 633
107078612, 293, 10756, 10020, 7227, 1370, 2139, -2157, 146, 148, -807, 731, 467, 216, 231, 83, 146, 115, 633
107086809, 293, 10756, 10020, 7227, 1370, 2139, -2157, 146, 148, -807, 751, 419, 202, 149, 76, 105, 112, 613
107087598, 293, 10756, 10020, 7227, 1370, 2139, -2157, 146, 148, -807, 751, 419, 202, 149, 76, 105, 112, 613
107102486, 403, 10649, 10126, 7232, 1153, 2195, -2174, -129, 184, -734, 751, 419, 202, 149, 76, 105, 112, 613
107103321, 403, 10649, 10126, 7232, 1153, 2195, -2174, -129, 184, -734, 673, 381, 174, 140, 66, 96, 126, 639
107104141, 403, 10649, 10126, 7232, 1153, 2195, -2174, -129, 184, -734, 673, 381, 174, 140, 66, 96, 126, 639
107124971, 535, 10542, 10231, 7233, 989, 2204, -2173, -208, 130, -755, 673, 381, 174, 140, 66, 96, 126, 639
107125766, 535, 10542, 10231, 7233, 989, 2204, -2173, -208, 130, -755, 671, 325, 168, 105, 63, 91, 168, 524
107126632, 535, 10542, 10231, 7233, 989, 2204, -2173, -208, 130, -755, 671, 325, 168, 105, 63, 91, 168, 524
107138644, 661, 10428, 10347, 7224, 967, 2166, -2246, -178, 142, -843, 671, 325, 168, 105, 63, 91, 168, 524
107146818, 661, 10428, 10347, 7224, 967, 2166, -2246, -178, 142, -843, 664, 309, 157, 91, 66, 88, 181, 512
107147593, 661, 10428, 10347, 7224, 967, 2166, -2246, -178, 142, -843, 664, 309, 157, 91, 66, 88, 181, 512
107162518, 769, 10300, 10476, 7210, 924, 2169, -2290, -104, 231, -904, 664, 309, 157, 91, 66, 88, 181, 512
107163338, 769, 10300, 10476, 7210, 924, 2169, -2290, -104, 231, -904, 669, 369, 168, 91, 74, 89, 183, 504
107164168, 769, 10300, 10476, 7210, 924, 2169, -2290, -104, 231, -904, 669, 369, 168, 91, 74, 89, 183, 504
107192471, 869, 10154, 10617, 7199, 817, 2299, -2287, -28, 327, -946, 669, 369, 168, 91, 74, 89, 183, 504
107193241, 869, 10154, 10617, 7199, 817, 2299, -2287, -28, 327, -946, 647, 349, 160, 87, 76, 91, 187, 499
107194170, 869, 10154, 10617, 7199, 817, 2299, -2287, -28, 327, -946, 647, 349, 160, 87, 76, 91, 187, 499
107198743, 955, 9992, 10759, 7203, 724, 2356, -2248, -23, 474, -954, 647, 349, 160, 87, 76, 91, 187, 499
107207473, 955, 9992, 10759, 7203, 724, 2356, -2248, -23, 474, -954, 680, 336, 164, 88, 77, 98, 184, 453
107208240, 955, 9992, 10759, 7203, 724, 2356, -2248, -23, 474, -954, 680, 336, 164, 88, 77, 98, 184, 453
107222454, 1032, 9824, 10900, 7212, 643, 2341, -2260, -44, 551, -944, 680, 336, 164, 88, 77, 98, 184, 453
107223266, 1032, 9824, 10900, 7212, 643, 2341, -2260, -44, 551, -944, 657, 309, 156, 93, 76, 100, 151, 507
107224169, 1032, 9824, 10900, 7212, 643, 2341, -2260, -44, 551, -944, 657, 309, 156, 93, 76, 100, 151, 507
107246386, 1098, 9668, 11024, 7226, 650, 2348, -2207, -59, 543, -831, 657, 309, 156, 93, 76, 100, 151, 507
107247220, 1098, 9668, 11024, 7226, 650, 2348, -2207, -59, 543, -831, 657, 309, 156, 93, 76, 100, 151, 507
107247995, 1098, 9668, 11024, 7226, 650, 2348, -2207, -59, 543, -831, 786, 411, 203, 289, 80, 205, 132, 577
107248847, 1098, 9668, 11024, 7226, 650, 2348, -2207, -59, 543, -831, 786, 411, 203, 289, 80, 205, 132, 577
107252367, -326, 11642, 8745, 7502, 2149, 2017, -2411, 205, -96, -2392, 786, 411, 203, 289, 80, 205, 132, 577
107261263, -326, 11642, 8745, 7502, 2149, 2017, -2411, 205, -96, -2392, 857, 417, 203, 278, 85, 207, 139, 595
107262165, -326, 11642, 8745, 7502, 2149, 2017, -2411, 205, -96, -2392, 857, 417, 203, 278, 85, 207, 139, 595
107262893, -326, 11642, 8745, 7502, 2149, 2017, -2411, 205, -96, -2392, 857, 417, 203, 278, 85, 207, 139, 595
107263707, -326, 11642, 8745, 7502, 2149, 2017, -2411, 205, -96, -2392, 857, 417, 203, 278, 85, 207, 139, 595
107268714, -326, 11642, 8745, 7502, 2149, 2017, -2411, 205, -96, -2392, 857, 417, 203, 278, 85, 207, 139, 595
107269569, -326, 11642, 8745, 7502, 2149, 2017, -2411, 205, -96, -2392, 857, 417, 203, 278, 85, 207, 139, 595
107270333, -326, 11642, 8745, 7502, 2149, 2017, -2411, 205, -96, -2392, 857, 417, 203, 278, 85, 207, 139, 595
107271267, -326, 11642, 8745, 7502, 2149, 2017, -2411, 205, -96, -2392, 850, 478, 224, 301, 89, 226, 134, 565
107275475, -326, 11642, 8745, 7502, 2149, 2017, -2411, 205, -96, -2392, 850, 478, 224, 301, 89, 226, 134, 565
107276286, -326, 11642, 8745, 7502, 2149, 2017, -2411, 205, -96, -2392, 850, 478, 224, 301, 89, 226, 134, 565
107277151, -326, 11642, 8745, 7502, 2149, 2017, -2411, 205, -96, -2392, 850, 478, 224, 301, 89, 226, 134, 565
107283493, -326, 11642, 8745, 7502, 2149, 2017, -2411, 205, -96, -2392, 850, 478, 224, 301, 89, 226, 134, 565
107284317, -326, 11642, 8745, 7502, 2149, 2017, -2411, 205, -96, -2392, 850, 478, 224, 301, 89, 226, 134, 565
107285150, -326, 11642, 8745, 7502, 2149, 2017, -2411, 205, -96, -2392, 850, 478, 224, 301, 89, 226, 134, 565
107285941, -326, 11642, 8745, 7502, 2149, 2017, -2411, 205, -96, -2392, 850, 478, 224, 301, 89, 226, 134, 565
107291262, -326, 11642, 8745, 7502, 2149, 2017, -2411, 205, -96, -2392, 850, 478, 224, 301, 89, 226, 134, 565
107292044, -326, 11642, 8745, 7502, 2149, 2017, -2411, 205, -96, -2392, 850, 478, 224, 301, 89, 226, 134, 565
107293016, -7, 11258, 9315, 7409, 2057, 1796, -2220, 281, -145, -1942, 850, 478, 224, 301, 89, 226, 134, 565
107293797, -7, 11258, 9315, 7409, 2057, 1796, -2220, 281, -145, -1942, 840, 503, 232, 303, 93, 219, 124, 521
107298845, -7, 11258, 9315, 7409, 2057, 1796, -2220, 281, -145, -1942, 840, 503, 232, 303, 93, 219, 124, 521
107299615, -7, 11258, 9315, 7409, 2057, 1796, -2220, 281, -145, -1942, 840, 503, 232, 303, 93, 219, 124, 521
107300455, -7, 11258, 9315, 7409, 2057, 1796, -2220, 281, -145, -1942, 840, 503, 232, 303, 93, 219, 124, 521
107301264, -7, 11258, 9315, 7409, 2057, 1796, -2220, 281, -145, -1942, 840, 503, 232, 303, 93, 219, 124, 521
107306287, -7, 11258, 9315, 7409, 2057, 1796, -2220, 281, -145, -1942, 840, 503, 232, 303, 93, 219, 124, 521
107307140, -7, 11258, 9315, 7409, 2057, 1796, -2220, 281, -145, -1942, 840, 503, 232, 303, 93, 219, 124, 521
107307933, -7, 11258, 9315, 7409, 2057, 1796, -2220, 281, -145, -1942, 840, 503, 232, 303, 93, 219, 124, 521
107308716, -7, 11258, 9315, 7409, 2057, 1796, -2220, 281, -145, -1942, 840, 503, 232, 303, 93, 219, 124, 521
107313807, -7, 11258, 9315, 7409, 2057, 1796, -2220, 281, -145, -1942, 840, 503, 232, 303, 93, 219, 124, 521
107314739, 84, 11107, 9546, 7343, 1847, 1717, -2183, 371, -43, -1569, 840, 503, 232, 303, 93, 219, 124, 521
107315538, 84, 11107, 9546, 7343, 1847, 1717, -2183, 371, -43, -1569, 779, 485, 227, 305, 93, 200, 123, 621
107316340, 84, 11107, 9546, 7343, 1847, 1717, -2183, 371, -43, -1569, 779, 485, 227, 305, 93, 200, 123, 621
107321411, 84, 11107, 9546, 7343, 1847, 1717, -2183, 371, -43, -1569, 779, 485, 227, 305, 93, 200, 123, 621
107322180, 84, 11107, 9546, 7343, 1847, 1717, -2183, 371, -43, -1569, 779, 485, 227, 305, 93, 200, 123, 621
107322968, 84, 11107, 9546, 7343, 1847, 1717, -2183, 371, -43, -1569, 779, 485, 227, 305, 93, 200, 123, 621
107323816, 84, 11107, 9546, 7343, 1847, 1717, -2183, 371, -43, -1569, 779, 485, 227, 305, 93, 200, 123, 621
107328143, 84, 11107, 9546, 7343, 1847, 1717, -2183, 371, -43, -1569, 779, 485, 227, 305, 93, 200, 123, 621
107328958, 84, 11107, 9546, 7343, 1847, 1717, -2183, 371, -43, -1569, 779, 485, 227, 305, 93, 200, 123, 621
107329791, 84, 11107, 9546, 7343, 1847, 1717, -2183, 371, -43, -1569, 844, 359, 159, 131, 63, 124, 221, 550
107330546, 84, 11107, 9546, 7343, 1847, 1717, -2183, 371, -43, -1569, 844, 359, 159, 131, 63, 124, 221, 550
107341173, 973, 9214, 11402, 7249, 1156, 2670, -2080, 379, 378, 356, 844, 359, 159, 131, 63, 124, 221, 550
107349280, 973, 9214, 11402, 7249, 1156, 2670, -2080, 379, 378, 356, 842, 340, 147, 111, 51, 102, 220, 599
107350174, 973, 9214, 11402, 7249, 1156, 2670, -2080, 379, 378, 356, 842, 340, 147, 111, 51, 102, 220, 599
107366342, 875, 9273, 11354, 7263, 1340, 2706, -2149, 254, 325, 768, 842, 340, 147, 111, 51, 102, 220, 599
107367179, 875, 9273, 11354, 7263, 1340, 2706, -2149, 254, 325, 768, 842, 340, 147, 111, 51, 102, 220, 599
107367995, 875, 9273, 11354, 7263, 1340, 2706, -2149, 254, 325, 768, 731, 467, 216, 231, 83, 146, 115, 633
107368837, 875, 9273, 11354, 7263, 1340, 2706, -2149, 254, 325, 768, 731, 467, 216, 231, 83, 146, 115, 633
107373870, 293, 10756, 10020, 7227, 1370, 2139, -2157, 146, 148, -807, 731, 467, 216, 231, 83, 146, 115, 633
107374713, 293, 10756, 10020, 7227, 1370, 2139, -2157, 146, 148, -807, 751, 419, 202, 149, 76, 105, 112, 613
107375537, 293, 10756, 10020, 7227, 1370, 2139, -2157, 146, 148, -807, 751, 419, 202, 149, 76, 105, 112, 613
107376322, 293, 10756, 10020, 7227, 1370, 2139, -2157, 146, 148, -807, 751, 419, 202, 149, 76, 105, 112, 613
107381273, 293, 10756, 10020, 7227, 1370, 2139, -2157, 146, 148, -807, 751, 419, 202, 149, 76, 105, 112, 613
107382141, 293, 10756, 10020, 7227, 1370, 2139, -2157, 146, 148, -807, 751, 419, 202, 149, 76, 105, 112, 613
107382933, 293, 10756, 10020, 7227, 1370, 2139, -2157, 146, 148, -807, 751, 419, 202, 149, 76, 105, 112, 613
107383715, 293, 10756, 10020, 7227, 1370, 2139, -2157, 146, 148, -807, 751, 419, 202, 149, 76, 105, 112, 613
107388832, 293, 10756, 10020, 7227, 1370, 2139, -2157, 146, 148, -807, 751, 419, 202, 149, 76, 105, 112, 613
107389739, 403, 10649, 10126, 7232, 1153, 2195, -2174, -129, 184, -734, 751, 419, 202, 149, 76, 105, 112, 613
107390581, 403, 10649, 10126, 7232, 1153, 2195, -2174, -129, 184, -734, 673, 381, 174, 140, 66, 96, 126, 639
107391343, 403, 10649, 10126, 7232, 1153, 2195, -2174, -129, 184, -734, 673, 381, 174, 140, 66, 96, 126, 639
107396343, 403, 10649, 10126, 7232, 1153, 2195, -2174, -129, 184, -734, 673, 381, 174, 140, 66, 96, 126, 639
107397167, 403, 10649, 10126, 7232, 1153, 2195, -2174, -129, 184, -734, 673, 381, 174, 140, 66, 96, 126, 639
107397985, 403, 10649, 10126, 7232, 1153, 2195, -2174, -129, 184, -734, 673, 381, 174, 140, 66, 96, 126, 639
107398766, 403, 10649, 10126, 7232, 1153, 2195, -2174, -129, 184, -734, 673, 381, 174, 140, 66, 96, 126, 639
107403733, 403, 10649, 10126, 7232, 1153, 2195, -2174, -129, 184, -734, 673, 381, 174, 140, 66, 96, 126, 639
107404563, 403, 10649, 10126, 7232, 1153, 2195, -2174, -129, 184, -734, 673, 381, 174, 140, 66, 96, 126, 639
107405363, 403, 10649, 10126, 7232, 1153, 2195, -2174, -129, 184, -734, 673, 381, 174, 140, 66, 96, 126, 639
107406216, 403, 10649, 10126, 7232, 1153, 2195, -2174, -129, 184, -734, 673, 381, 174, 140, 66, 96, 126, 639
107411265, 403, 10649, 10126, 7232, 1153, 2195, -2174, -129, 184, -734, 673, 381, 174, 140, 66, 96, 126, 639
107412191, 535, 10542, 10231, 7233, 989, 2204, -2173, -208, 130, -755, 673, 381, 174, 140, 66, 96, 126, 639
107413030, 535, 10542, 10231, 7233, 989, 2204, -2173, -208, 130, -755, 671, 325, 168, 105, 63, 91, 168, 524
107413860, 535, 10542, 10231, 7233, 989, 2204, -2173, -208, 130, -755, 671, 325, 168, 105, 63, 91, 168, 524
107418841, 535, 10542, 10231, 7233, 989, 2204, -2173, -208, 130, -755, 671, 325, 168, 105, 63, 91, 168, 524
107419667, 535, 10542, 10231, 7233, 989, 2204, -2173, -208, 130, -755, 671, 325, 168, 105, 63, 91, 168, 524
107420465, 535, 10542, 10231, 7233, 989, 2204, -2173, -208, 130, -755, 671, 325, 168, 105, 63, 91, 168, 524
107421291, 535, 10542, 10231, 7233, 989, 2204, -2173, -208, 130, -755, 671, 325, 168, 105, 63, 91, 168, 524
107426215, 535, 10542, 10231, 7233, 989, 2204, -2173, -208, 130, -755, 671, 325, 168, 105, 63, 91, 168, 524
107427040, 535, 10542, 10231, 7233, 989, 2204, -2173, -208, 130, -755, 671, 325, 168, 105, 63, 91, 168, 524
107427866, 535, 10542, 10231, 7233, 989, 2204, -2173, -208, 130, -755, 671, 325, 168, 105, 63, 91, 168, 524
107428655, 535, 10542, 10231, 7233, 989, 2204, -2173, -208, 130, -755, 671, 325, 168, 105, 63, 91, 168, 524
107433753, 535, 10542, 10231, 7233, 989, 2204, -2173, -208, 130, -755, 671, 325, 168, 105, 63, 91, 168, 524
107434688, 661, 10428, 10347, 7224, 967, 2166, -2246, -178, 142, -843, 671, 325, 168, 105, 63, 91, 168, 524
107435488, 661, 10428, 10347, 7224, 967, 2166, -2246, -178, 142, -843, 664, 309, 157, 91, 66, 88, 181, 512
107436316, 661, 10428, 10347, 7224, 967, 2166, -2246, -178, 142, -843, 664, 309, 157, 91, 66, 88, 181, 512
107441316, 661, 10428, 10347, 7224, 967, 2166, -2246, -178, 142, -843, 664, 309, 157, 91, 66, 88, 181, 512
107442167, 661, 10428, 10347, 7224, 967, 2166, -2246, -178, 142, -843, 664, 309, 157, 91, 66, 88, 181, 512
107442943, 661, 10428, 10347, 7224, 967, 2166, -2246, -178, 142, -843, 664, 309, 157, 91, 66, 88, 181, 512
107443749, 661, 10428, 10347, 7224, 967, 2166, -2246, -178, 142, -843, 664, 309, 157, 91, 66, 88, 181, 512
107448811, 661, 10428, 10347, 7224, 967, 2166, -2246, -178, 142, -843, 664, 309, 157, 91, 66, 88, 181, 512
107449607, 661, 10428, 10347, 7224, 967, 2166, -2246, -178, 142, -843, 664, 309, 157, 91, 66, 88, 181, 512
107450391, 661, 10428, 10347, 7224, 967, 2166, -2246, -178, 142, -843, 664, 309, 157, 91, 66, 88, 181, 512
107451256, 661, 10428, 10347, 7224, 967, 2166, -2246, -178, 142, -843, 664, 309, 157, 91, 66, 88, 181, 512
107456415, 769, 10300, 10476, 7210, 924, 2169, -2290, -104, 231, -904, 664, 309, 157, 91, 66, 88, 181, 512
107457243, 769, 10300, 10476, 7210, 924, 2169, -2290, -104, 231, -904, 669, 369, 168, 91, 74, 89, 183, 504
107458018, 769, 10300, 10476, 7210, 924, 2169, -2290, -104, 231, -904, 669, 369, 168, 91, 74, 89, 183, 504
107458886, 769, 10300, 10476, 7210, 924, 2169, -2290, -104, 231, -904, 669, 369, 168, 91, 74, 89, 183, 504
107463715, 769, 10300, 10476, 7210, 924, 2169, -2290, -104, 231, -904, 669, 369, 168, 91, 74, 89, 183, 504
107464569, 769, 10300, 10476, 7210, 924, 2169, -2290, -104, 231, -904, 669, 369, 168, 91, 74, 89, 183, 504
107465387, 769, 10300, 10476, 7210, 924, 2169, -2290, -104, 231, -904, 669, 369, 168, 91, 74, 89, 183, 504
107466207, 769, 10300, 10476, 7210, 924, 2169, -2290, -104, 231, -904, 669, 369, 168, 91, 74, 89, 183, 504
107471240, 769, 10300, 10476, 7210, 924, 2169, -2290, -104, 231, -904, 669, 369, 168, 91, 74, 89, 183, 504
107472215, 869, 10154, 10617, 7199, 817, 2299, -2287, -28, 327, -946, 669, 369, 168, 91, 74, 89, 183, 504
107472977, 869, 10154, 10617, 7199, 817, 2299, -2287, -28, 327, -946, 647, 349, 160, 87, 76, 91, 187, 499
107473845, 869, 10154, 10617, 7199, 817, 2299, -2287, -28, 327, -946, 647, 349, 160, 87, 76, 91, 187, 499
107478815, 869, 10154, 10617, 7199, 817, 2299, -2287, -28, 327, -946, 647, 349, 160, 87, 76, 91, 187, 499
107479624, 869, 10154, 10617, 7199, 817, 2299, -2287, -28, 327, -946, 647, 349, 160, 87, 76, 91, 187, 499
107480465, 869, 10154, 10617, 7199, 817, 2299, -2287, -28, 327, -946, 647, 349, 160, 87, 76, 91, 187, 499
107481266, 869, 10154, 10617, 7199, 817, 2299, -2287, -28, 327, -946, 647, 349, 160, 87, 76, 91, 187, 499
107486305, 869, 10154, 10617, 7199, 817, 2299, -2287, -28, 327, -946, 647, 349, 160, 87, 76, 91, 187, 499
107487140, 869, 10154, 10617, 7199, 817, 2299, -2287, -28, 327, -946, 647, 349, 160, 87, 76, 91, 187, 499
107487871, 869, 10154, 10617, 7199, 817, 2299, -2287, -28, 327, -946, 647, 349, 160, 87, 76, 91, 187, 499
107488717, 869, 10154, 10617, 7199, 817, 2299, -2287, -28, 327, -946, 647, 349, 160, 87, 76, 91, 187, 499
107493795, 869, 10154, 10617, 7199, 817, 2299, -2287, -28, 327, -946, 647, 349, 160, 87, 76, 91, 187, 499
107494716, 955, 9992, 10759, 7203, 724, 2356, -2248, -23, 474, -954, 647, 349, 160, 87, 76, 91, 187, 499
107495544, 955, 9992, 10759, 7203, 724, 2356, -2248, -23, 474, -954, 680, 336, 164, 88, 77, 98, 184, 453
107496362, 955, 9992, 10759, 7203, 724, 2356, -2248, -23, 474, -954, 680, 336, 164, 88, 77, 98, 184, 453
107501368, 955, 9992, 10759, 7203, 724, 2356, -2248, -23, 474, -954, 680, 336, 164, 88, 77, 98, 184, 453
107502165, 955, 9992, 10759, 7203, 724, 2356, -2248, -23, 474, -954, 680, 336, 164, 88, 77, 98, 184, 453
107503008, 955, 9992, 10759, 7203, 724, 2356, -2248, -23, 474, -954, 680, 336, 164, 88, 77, 98, 184, 453
107503812, 955, 9992, 10759, 7203, 724, 2356, -2248, -23, 474, -954, 680, 336, 164, 88, 77, 98, 184, 453
107508751, 955, 9992, 10759, 7203, 724, 2356, -2248, -23, 474, -954, 680, 336, 164, 88, 77, 98, 184, 453
107509565, 955, 9992, 10759, 7203, 724, 2356, -2248, -23, 474, -954, 680, 336, 164, 88, 77, 98, 184, 453
107510406, 955, 9992, 10759, 7203, 724, 2356, -2248, -23, 474, -954, 680, 336, 164, 88, 77, 98, 184, 453
107511190, 955, 9992, 10759, 7203, 724, 2356, -2248, -23, 474, -954, 680, 336, 164, 88, 77, 98, 184, 453
107523879, 1032, 9824, 10900, 7212, 643, 2341, -2260, -44, 551, -944, 680, 336, 164, 88, 77, 98, 184, 453
107524690, 1032, 9824, 10900, 7212, 643, 2341, -2260, -44, 551, -944, 657, 309, 156, 93, 76, 100, 151, 507
107525517, 1032, 9824, 10900, 7212, 643, 2341, -2260, -44, 551, -944, 657, 309, 156, 93, 76, 100, 151, 507
107526315, 1032, 9824, 10900, 7212, 643, 2341, -2260, -44, 551, -944, 657, 309, 156, 93, 76, 100, 151, 507
107531217, 1032, 9824, 10900, 7212, 643, 2341, -2260, -44, 551, -944, 657, 309, 156, 93, 76, 100, 151, 507
107532059, 1032, 9824, 10900, 7212, 643, 2341, -2260, -44, 551, -944, 657, 309, 156, 93, 76, 100, 151, 507
107532847, 1032, 9824, 10900, 7212, 643, 2341, -2260, -44, 551, -944, 657, 309, 156, 93, 76, 100, 151, 507
107533680, 1032, 9824, 10900, 7212, 643, 2341, -2260, -44, 551, -944, 657, 309, 156, 93, 76, 100, 151, 507
107538812, 1032, 9824, 10900, 7212, 643, 2341, -2260, -44, 551, -944, 679, 322, 166, 123, 81, 124, 143, 497
107539633, 1032, 9824, 10900, 7212, 643, 2341, -2260, -44, 551, -944, 679, 322, 166, 123, 81, 124, 143, 497
107540443, 1032, 9824, 10900, 7212, 643, 2341, -2260, -44, 551, -944, 679, 322, 166, 123, 81, 124, 143, 497
107541240, 1032, 9824, 10900, 7212, 643, 2341, -2260, -44, 551, -944, 679, 322, 166, 123, 81, 124, 143, 497
107546191, 1032, 9824, 10900, 7212, 643, 2341, -2260, -44, 551, -944, 679, 322, 166, 123, 81, 124, 143, 497
107547017, 1032, 9824, 10900, 7212, 643, 2341, -2260, -44, 551, -944, 679, 322, 166, 123, 81, 124, 143, 497
107547814, 1032, 9824, 10900, 7212, 643, 2341, -2260, -44, 551, -944, 679, 322, 166, 123, 81, 124, 143, 497
107548665, 1032, 9824, 10900, 7212, 643, 2341, -2260, -44, 551, -944, 679, 322, 166, 123, 81, 124, 143, 497
107553729, 1032, 9824, 10900, 7212, 643, 2341, -2260, -44, 551, -944, 679, 322, 166, 123, 81, 124, 143, 497
107554668, 1130, 9522, 11141, 7234, 838, 2543, -2095, 157, 514, -737, 679, 322, 166, 123, 81, 124, 143, 497
107555487, 1130, 9522, 11141, 7234, 838, 2543, -2095, 157, 514, -737, 727, 290, 130, 133, 69, 122, 171, 512
107556288, 1130, 9522, 11141, 7234, 838, 2543, -2095, 157, 514, -737, 727, 290, 130, 133, 69, 122, 171, 512
107561387, 1130, 9522, 11141, 7234, 838, 2543, -2095, 157, 514, -737, 727, 290, 130, 133, 69, 122, 171, 512
107562187, 1130, 9522, 11141, 7234, 838, 2543, -2095, 157, 514, -737, 727, 290, 130, 133, 69, 122, 171, 512
107563005, 1130, 9522, 11141, 7234, 838, 2543, -2095, 157, 514, -737, 727, 290, 130, 133, 69, 122, 171, 512
107563796, 1130, 9522, 11141, 7234, 838, 2543, -2095, 157, 514, -737, 727, 290, 130, 133, 69, 122, 171, 512
107567398, 1130, 9522, 11141, 7234, 838, 2543, -2095, 157, 514, -737, 727, 290, 130, 133, 69, 122, 171, 512
107568214, 1130, 9522, 11141, 7234, 838, 2543, -2095, 157, 514, -737, 727, 290, 130, 133, 69, 122, 171, 512
107569029, 1130, 9522, 11141, 7234, 838, 2543, -2095, 157, 514, -737, 727, 290, 130, 133, 69, 122, 171, 512
107581144, 81, 11026, 9114, 7985, 2815, 1633, -2525, 144, 202, 85, 727, 290, 130, 133, 69, 122, 171, 512
107589214, 81, 11026, 9114, 7985, 2815, 1633, -2525, 144, 202, 85, 613, 544, 1251, 452, 1403, 1362, 907, 1130
107590042, 81, 11026, 9114, 7985, 2815, 1633, -2525, 144, 202, 85, 613, 544, 1251, 452, 1403, 1362, 907, 1130
107596216, 5, 11015, 9149, 7960, 2702, 1821, -2365, 279, 240, -114, 613, 544, 1251, 452, 1403, 1362, 907, 1130
107611744, 5, 11015, 9149, 7960, 2702, 1821, -2365, 279, 240, -114, 594, 468, 868, 202, 1228, 1048, 657, 887
107612564, 5, 11015, 9149, 7960, 2702, 1821, -2365, 279, 240, -114, 594, 468, 868, 202, 1228, 1048, 657, 887
107618723, -59, 10991, 9208, 7926, 2631, 1975, -2450, 353, 251, -194, 594, 468, 868, 202, 1228, 1048, 657, 887
107626757, -59, 10991, 9208, 7926, 2631, 1975, -2450, 353, 251, -194, 625, 456, 549, 76, 962, 551, 537, 589
107627541, -59, 10991, 9208, 7926, 2631, 1975, -2450, 353, 251, -194, 625, 456, 549, 76, 962, 551, 537, 589
107641203, -108, 10975, 9257, 7891, 2500, 2031, -2500, 285, 227, -109, 625, 456, 549, 76, 962, 551, 537, 589
107649238, -108, 10975, 9257, 7891, 2500, 2031, -2500, 285, 227, -109, 631, 349, 272, 31, 706, 385, 243, 563
107650087, -108, 10975, 9257, 7891, 2500, 2031, -2500, 285, 227, -109, 631, 349, 272, 31, 706, 385, 243, 563
107656202, -140, 10961, 9289, 7872, 2536, 2037, -2412, 160, 182, -92, 631, 349, 272, 31, 706, 385, 243, 563
107666292, -140, 10961, 9289, 7872, 2536, 2037, -2412, 160, 182, -92, 631, 349, 272, 31, 706, 385, 243, 563
107667167, -140, 10961, 9289, 7872, 2536, 2037, -2412, 160, 182, -92, 890, 401, 194, 116, 66, 107, 217, 583
107667894, -140, 10961, 9289, 7872, 2536, 2037, -2412, 160, 182, -92, 890, 401, 194, 116, 66, 107, 217, 583
107668872, 788, 9368, 11241, 7326, 1611, 2953, -2241, -75, 290, 1096, 890, 401, 194, 116, 66, 107, 217, 583
107673841, 788, 9368, 11241, 7326, 1611, 2953, -2241, -75, 290, 1096, 903, 414, 208, 128, 72, 110, 215, 665
107674674, 788, 9368, 11241, 7326, 1611, 2953, -2241, -75, 290, 1096, 903, 414, 208, 128, 72, 110, 215, 665
107675458, 788, 9368, 11241, 7326, 1611, 2953, -2241, -75, 290, 1096, 903, 414, 208, 128, 72, 110, 215, 665
107676287, 788, 9368, 11241, 7326, 1611, 2953, -2241, -75, 290, 1096, 903, 414, 208, 128, 72, 110, 215, 665
107681269, 788, 9368, 11241, 7326, 1611, 2953, -2241, -75, 290, 1096, 903, 414, 208, 128, 72, 110, 215, 665
107682034, 788, 9368, 11241, 7326, 1611, 2953, -2241, -75, 290, 1096, 903, 414, 208, 128, 72, 110, 215, 665
107682843, 788, 9368, 11241, 7326, 1611, 2953, -2241, -75, 290, 1096, 903, 414, 208, 128, 72, 110, 215, 665
107683665, 788, 9368, 11241, 7326, 1611, 2953, -2241, -75, 290, 1096, 903, 414, 208, 128, 72, 110, 215, 665
107688735, 788, 9368, 11241, 7326, 1611, 2953, -2241, -75, 290, 1096, 903, 414, 208, 128, 72, 110, 215, 665
107689691, 721, 9491, 11076, 7424, 1897, 3057, -2421, -438, 229, 1286, 903, 414, 208, 128, 72, 110, 215, 665
107690514, 721, 9491, 11076, 7424, 1897, 3057, -2421, -438, 229, 1286, 864, 438, 255, 160, 83, 129, 214, 680
107691319, 721, 9491, 11076, 7424, 1897, 3057, -2421, -438, 229, 1286, 864, 438, 255, 160, 83, 129, 214, 680
107696328, 721, 9491, 11076, 7424, 1897, 3057, -2421, -438, 229, 1286, 864, 438, 255, 160, 83, 129, 214, 680
107697128, 721, 9491, 11076, 7424, 1897, 3057, -2421, -438, 229, 1286, 864, 438, 255, 160, 83, 129, 214, 680
107697941, 721, 9491, 11076, 7424, 1897, 3057, -2421, -438, 229, 1286, 864, 438, 255, 160, 83, 129, 214, 680
107698766, 721, 9491, 11076, 7424, 1897, 3057, -2421, -438, 229, 1286, 864, 438, 255, 160, 83, 129, 214, 680
107703742, 721, 9491, 11076, 7424, 1897, 3057, -2421, -438, 229, 1286, 864, 438, 255, 160, 83, 129, 214, 680
107704540, 721, 9491, 11076, 7424, 1897, 3057, -2421, -438, 229, 1286, 864, 438, 255, 160, 83, 129, 214, 680
107705333, 721, 9491, 11076, 7424, 1897, 3057, -2421, -438, 229, 1286, 864, 438, 255, 160, 83, 129, 214, 680
107706141, 721, 9491, 11076, 7424, 1897, 3057, -2421, -438, 229, 1286, 864, 438, 255, 160, 83, 129, 214, 680
107711256, 721, 9491, 11076, 7424, 1897, 3057, -2421, -438, 229, 1286, 864, 438, 255, 160, 83, 129, 214, 680
107712168, 649, 9676, 10838, 7543, 2090, 2771, -2664, -796, 144, 1681, 864, 438, 255, 160, 83, 129, 214, 680
107713006, 649, 9676, 10838, 7543, 2090, 2771, -2664, -796, 144, 1681, 898, 472, 270, 231, 103, 207, 232, 756
107713813, 649, 9676, 10838, 7543, 2090, 2771, -2664, -796, 144, 1681, 898, 472, 270, 231, 103, 207, 232, 756
107718813, 649, 9676, 10838, 7543, 2090, 2771, -2664, -796, 144, 1681, 898, 472, 270, 231, 103, 207, 232, 756
107719642, 649, 9676, 10838, 7543, 2090, 2771, -2664, -796, 144, 1681, 898, 472, 270, 231, 103, 207, 232, 756
107720481, 649, 9676, 10838, 7543, 2090, 2771, -2664, -796, 144, 1681, 898, 472, 270, 231, 103, 207, 232, 756
107721262, 649, 9676, 10838, 7543, 2090, 2771, -2664, -796, 144, 1681, 898, 472, 270, 231, 103, 207, 232, 756
107726306, 649, 9676, 10838, 7543, 2090, 2771, -2664, -796, 144, 1681, 898, 472, 270, 231, 103, 207, 232, 756
107727141, 649, 9676, 10838, 7543, 2090, 2771, -2664, -796, 144, 1681, 898, 472, 270, 231, 103, 207, 232, 756
107727860, 649, 9676, 10838, 7543, 2090, 2771, -2664, -796, 144, 1681, 898, 472, 270, 231, 103, 207, 232, 756
107728707, 649, 9676, 10838, 7543, 2090, 2771, -2664, -796, 144, 1681, 898, 472, 270, 231, 103, 207, 232, 756
107733771, 649, 9676, 10838, 7543, 2090, 2771, -2664, -796, 144, 1681, 898, 472, 270, 231, 103, 207, 232, 756
107734691, 584, 9910, 10553, 7648, 2521, 2670, -2539, -880, -93, 1963, 898, 472, 270, 231, 103, 207, 232, 756
107735557, 584, 9910, 10553, 7648, 2521, 2670, -2539, -880, -93, 1963, 926, 618, 480, 484, 214, 464, 335, 747
107736368, 584, 9910, 10553, 7648, 2521, 2670, -2539, -880, -93, 1963, 926, 618, 480, 484, 214, 464, 335, 747
107741341, 584, 9910, 10553, 7648, 2521, 2670, -2539, -880, -93, 1963, 926, 618, 480, 484, 214, 464, 335, 747
107742167, 584, 9910, 10553, 7648, 2521, 2670, -2539, -880, -93, 1963, 926, 618, 480, 484, 214, 464, 335, 747
107742968, 584, 9910, 10553, 7648, 2521, 2670, -2539, -880, -93, 1963, 926, 618, 480, 484, 214, 464, 335, 747
107743832, 584, 9910, 10553, 7648, 2521, 2670, -2539, -880, -93, 1963, 926, 618, 480, 484, 214, 464, 335, 747
107748762, 584, 9910, 10553, 7648, 2521, 2670, -2539, -880, -93, 1963, 926, 618, 480, 484, 214, 464, 335, 747
107749565, 584, 9910, 10553, 7648, 2521, 2670, -2539, -880, -93, 1963, 926, 618, 480, 484, 214, 464, 335, 747
107750366, 584, 9910, 10553, 7648, 2521, 2670, -2539, -880, -93, 1963, 926, 618, 480, 484, 214, 464, 335, 747
107751192, 584, 9910, 10553, 7648, 2521, 2670, -2539, -880, -93, 1963, 926, 618, 480, 484, 214, 464, 335, 747
107756241, 584, 9910, 10553, 7648, 2521, 2670, -2539, -880, -93, 1963, 926, 618, 480, 484, 214, 464, 335, 747
107757234, 542, 10195, 10220, 7728, 3443, 2570, -2669, -959, -390, 2284, 926, 618, 480, 484, 214, 464, 335, 747
107757996, 542, 10195, 10220, 7728, 3443, 2570, -2669, -959, -390, 2284, 903, 770, 957, 941, 510, 1018, 530, 975
107758826, 542, 10195, 10220, 7728, 3443, 2570, -2669, -959, -390, 2284, 903, 770, 957, 941, 510, 1018, 530, 975
107763815, 542, 10195, 10220, 7728, 3443, 2570, -2669, -959, -390, 2284, 903, 770, 957, 941, 510, 1018, 530, 975
107764663, 542, 10195, 10220, 7728, 3443, 2570, -2669, -959, -390, 2284, 903, 770, 957, 941, 510, 1018, 530, 975
107765441, 542, 10195, 10220, 7728, 3443, 2570, -2669, -959, -390, 2284, 903, 770, 957, 941, 510, 1018, 530, 975
107766292, 542, 10195, 10220, 7728, 3443, 2570, -2669, -959, -390, 2284, 903, 770, 957, 941, 510, 1018, 530, 975
107771215, 542, 10195, 10220, 7728, 3443, 2570, -2669, -959, -390, 2284, 903, 770, 957, 941, 510, 1018, 530, 975
107772059, 542, 10195, 10220, 7728, 3443, 2570, -2669, -959, -390, 2284, 903, 770, 957, 941, 510, 1018, 530, 975
107772868, 542, 10195, 10220, 7728, 3443, 2570, -2669, -959, -390, 2284, 903, 770, 957, 941, 510, 1018, 530, 975
107773680, 542, 10195, 10220, 7728, 3443, 2570, -2669, -959, -390, 2284, 903, 770, 957, 941, 510, 1018, 530, 975
107778790, 542, 10195, 10220, 7728, 3443, 2570, -2669, -959, -390, 2284, 903, 770, 957, 941, 510, 1018, 530, 975
107779758, 535, 10439, 9892, 7829, 3904, 2380, -2513, -1147, -332, 2027, 903, 770, 957, 941, 510, 1018, 530, 975
107780540, 535, 10439, 9892, 7829, 3904, 2380, -2513, -1147, -332, 2027, 897, 959, 1039, 1061, 598, 1230, 739, 993
107781382, 535, 10439, 9892, 7829, 3904, 2380, -2513, -1147, -332, 2027, 897, 959, 1039, 1061, 598, 1230, 739, 993
107786362, 535, 10439, 9892, 7829, 3904, 2380, -2513, -1147, -332, 2027, 897, 959, 1039, 1061, 598, 1230, 739, 993
107787195, 535, 10439, 9892, 7829, 3904, 2380, -2513, -1147, -332, 2027, 897, 959, 1039, 1061, 598, 1230, 739, 993
107788015, 535, 10439, 9892, 7829, 3904, 2380, -2513, -1147, -332, 2027, 897, 959, 1039, 1061, 598, 1230, 739, 993
107788823, 535, 10439, 9892, 7829, 3904, 2380, -2513, -1147, -332, 2027, 897, 959, 1039, 1061, 598, 1230, 739, 993
107793742, 535, 10439, 9892, 7829, 3904, 2380, -2513, -1147, -332, 2027, 897, 959, 1039, 1061, 598, 1230, 739, 993
107794568, 535, 10439, 9892, 7829, 3904, 2380, -2513, -1147, -332, 2027, 897, 959, 1039, 1061, 598, 1230, 739, 993
107795367, 535, 10439, 9892, 7829, 3904, 2380, -2513, -1147, -332, 2027, 897, 959, 1039, 1061, 598, 1230, 739, 993
107796188, 535, 10439, 9892, 7829, 3904, 2380, -2513, -1147, -332, 2027, 897, 959, 1039, 1061, 598, 1230, 739, 993
107801392, 527, 10625, 9577, 7970, 3858, 1942, -2361, -1314, -113, 1641, 897, 959, 1039, 1061, 598, 1230, 739, 993
107802232, 527, 10625, 9577, 7970, 3858, 1942, -2361, -1314, -113, 1641, 921, 994, 1372, 1131, 946, 1515, 969, 1212
107803018, 527, 10625, 9577, 7970, 3858, 1942, -2361, -1314, -113, 1641, 921, 994, 1372, 1131, 946, 1515, 969, 1212
107803849, 527, 10625, 9577, 7970, 3858, 1942, -2361, -1314, -113, 1641, 921, 994, 1372, 1131, 946, 1515, 969, 1212
107808715, 527, 10625, 9577, 7970, 3858, 1942, -2361, -1314, -113, 1641, 921, 994, 1372, 1131, 946, 1515, 969, 1212
107809528, 527, 10625, 9577, 7970, 3858, 1942, -2361, -1314, -113, 1641, 921, 994, 1372, 1131, 946, 1515, 969, 1212
107810340, 527, 10625, 9577, 7970, 3858, 1942, -2361, -1314, -113, 1641, 921, 994, 1372, 1131, 946, 1515, 969, 1212
107811192, 527, 10625, 9577, 7970, 3858, 1942, -2361, -1314, -113, 1641, 921, 994, 1372, 1131, 946, 1515, 969, 1212
107816218, 527, 10625, 9577, 7970, 3858, 1942, -2361, -1314, -113, 1641, 921, 994, 1372, 1131, 946, 1515, 969, 1212
107817169, 412, 10794, 9315, 8060, 3615, 1550, -2341, -890, -46, 1162, 921, 994, 1372, 1131, 946, 1515, 969, 1212
107817973, 412, 10794, 9315, 8060, 3615, 1550, -2341, -890, -46, 1162, 779, 972, 1524, 1133, 1240, 1754, 1035, 1341
107818770, 412, 10794, 9315, 8060, 3615, 1550, -2341, -890, -46, 1162, 779, 972, 1524, 1133, 1240, 1754, 1035, 1341
107823806, 412, 10794, 9315, 8060, 3615, 1550, -2341, -890, -46, 1162, 779, 972, 1524, 1133, 1240, 1754, 1035, 1341
107824617, 412, 10794, 9315, 8060, 3615, 1550, -2341, -890, -46, 1162, 779, 972, 1524, 1133, 1240, 1754, 1035, 1341
107825438, 412, 10794, 9315, 8060, 3615, 1550, -2341, -890, -46, 1162, 779, 972, 1524, 1133, 1240, 1754, 1035, 1341
107826262, 412, 10794, 9315, 8060, 3615, 1550, -2341, -890, -46, 1162, 779, 972, 1524, 1133, 1240, 1754, 1035, 1341
107831244, 412, 10794, 9315, 8060, 3615, 1550, -2341, -890, -46, 1162, 779, 972, 1524, 1133, 1240, 1754, 1035, 1341
107832139, 412, 10794, 9315, 8060, 3615, 1550, -2341, -890, -46, 1162, 779, 972, 1524, 1133, 1240, 1754, 1035, 1341
107832819, 412, 10794, 9315, 8060, 3615, 1550, -2341, -890, -46, 1162, 779, 972, 1524, 1133, 1240, 1754, 1035, 1341
107833732, 412, 10794, 9315, 8060, 3615, 1550, -2341, -890, -46, 1162, 779, 972, 1524, 1133, 1240, 1754, 1035, 1341
107838788, 412, 10794, 9315, 8060, 3615, 1550, -2341, -890, -46, 1162, 779, 972, 1524, 1133, 1240, 1754, 1035, 1341
107839722, 291, 10923, 9172, 8055, 3042, 1579, -2527, -273, 6, 852, 779, 972, 1524, 1133, 1240, 1754, 1035, 1341
107840515, 291, 10923, 9172, 8055, 3042, 1579, -2527, -273, 6, 852, 687, 934, 1548, 1052, 1446, 1749, 1119, 1339
107841355, 291, 10923, 9172, 8055, 3042, 1579, -2527, -273, 6, 852, 687, 934, 1548, 1052, 1446, 1749, 1119, 1339
107845703, 291, 10923, 9172, 8055, 3042, 1579, -2527, -273, 6, 852, 687, 934, 1548, 1052, 1446, 1749, 1119, 1339
107846495, 291, 10923, 9172, 8055, 3042, 1579, -2527, -273, 6, 852, 687, 934, 1548, 1052, 1446, 1749, 1119, 1339
