Timestamp, Orientation x, Orientation y, Orientation z, Orientation w, Acceleration x, Acceleration y, Acceleration z, Rotation x, Rotation y, Rotation z, EMG 0, EMG 1, EMG 2, EMG 3, EMG 4, EMG 5, EMG 6, EMG 7
248832221, 126, 8539, 12094, 7014, 1343, 2305, -2176, 19, 37, 59, 0, 0, 0, 0, 0, 0, 0, 0
248833011, 131, 8538, 12094, 7016, 1368, 2287, -2182, 3, 33, 46, 0, 0, 0, 0, 0, 0, 0, 0
248839029, 132, 8539, 12091, 7020, 1374, 2256, -2184, -9, 44, 68, 0, 0, 0, 0, 0, 0, 0, 0
248861518, 133, 8539, 12090, 7022, 1371, 2273, -2183, 5, 53, 61, 0, 0, 0, 0, 0, 0, 0, 0
248884039, 134, 8533, 12097, 7017, 1351, 2289, -2162, 71, 40, 22, 0, 0, 0, 0, 0, 0, 0, 0
248900350, 135, 8526, 12106, 7010, 1349, 2276, -2185, 71, 44, 13, 0, 0, 0, 0, 0, 0, 0, 0
248901147, 135, 8526, 12106, 7010, 1349, 2276, -2185, 71, 44, 13, 142, 97, 93, 54, 45, 111, 203, 87
248901945, 135, 8526, 12106, 7010, 1349, 2276, -2185, 71, 44, 13, 142, 97, 93, 54, 45, 111, 203, 87
248922909, 133, 8521, 12110, 7008, 1358, 2290, -2184, 49, 60, 34, 142, 97, 93, 54, 45, 111, 203, 87
248923680, 133, 8521, 12110, 7008, 1358, 2290, -2184, 49, 60, 34, 135, 106, 108, 52, 47, 120, 213, 85
248924482, 133, 8521, 12110, 7008, 1358, 2290, -2184, 49, 60, 34, 135, 106, 108, 52, 47, 120, 213, 85
248945363, 132, 8519, 12114, 7005, 1375, 2265, -2212, 38, 49, 41, 135, 106, 108, 52, 47, 120, 213, 85
248946156, 132, 8519, 12114, 7005, 1375, 2265, -2212, 38, 49, 41, 134, 100, 114, 57, 50, 122, 201, 88
248947011, 132, 8519, 12114, 7005, 1375, 2265, -2212, 38, 49, 41, 134, 100, 114, 57, 50, 122, 201, 88
248960448, 133, 8514, 12118, 7004, 1366, 2304, -2187, 45, 45, 30, 134, 100, 114, 57, 50, 122, 201, 88
248961185, 133, 8514, 12118, 7004, 1366, 2304, -2187, 45, 45, 30, 134, 102, 125, 63, 50, 114, 193, 83
248961989, 133, 8514, 12118, 7004, 1366, 2304, -2187, 45, 45, 30, 134, 102, 125, 63, 50, 114, 193, 83
248982887, 131, 8503, 12130, 6997, 1366, 2320, -2189, 100, 61, -8, 134, 102, 125, 63, 50, 114, 193, 83
248983699, 131, 8503, 12130, 6997, 1366, 2320, -2189, 100, 61, -8, 120, 91, 102, 50, 50, 113, 150, 75
248984490, 131, 8503, 12130, 6997, 1366, 2320, -2189, 100, 61, -8, 120, 91, 102, 50, 50, 113, 150, 75
249005347, 127, 8490, 12142, 6992, 1361, 2278, -2205, 83, 81, -18, 120, 91, 102, 50, 50, 113, 150, 75
249006132, 127, 8490, 12142, 6992, 1361, 2278, -2205, 83, 81, -18, 87, 99, 108, 51, 48, 98, 147, 70
249006934, 127, 8490, 12142, 6992, 1361, 2278, -2205, 83, 81, -18, 87, 99, 108, 51, 48, 98, 147, 70
249020429, 128, 8477, 12151, 6992, 1343, 2298, -2236, 31, 85, -9, 87, 99, 108, 51, 48, 98, 147, 70
249021174, 128, 8477, 12151, 6992, 1343, 2298, -2236, 31, 85, -9, 85, 94, 95, 50, 50, 95, 159, 68
249021964, 128, 8477, 12151, 6992, 1343, 2298, -2236, 31, 85, -9, 85, 94, 95, 50, 50, 95, 159, 68
249043066, 131, 8469, 12157, 6991, 1354, 2282, -2222, 21, 55, 3, 85, 94, 95, 50, 50, 95, 159, 68
249043666, 131, 8469, 12157, 6991, 1354, 2282, -2222, 21, 55, 3, 87, 95, 92, 51, 50, 102, 171, 66
249044487, 131, 8469, 12157, 6991, 1354, 2282, -2222, 21, 55, 3, 87, 95, 92, 51, 50, 102, 171, 66
249065379, 137, 8460, 12162, 6994, 1369, 2281, -2194, 6, 46, -10, 87, 95, 92, 51, 50, 102, 171, 66
249066173, 137, 8460, 12162, 6994, 1369, 2281, -2194, 6, 46, -10, 91, 96, 83, 47, 54, 112, 163, 87
249068898, 137, 8460, 12162, 6994, 1369, 2281, -2194, 6, 46, -10, 91, 96, 83, 47, 54, 112, 163, 87
249080332, 143, 8453, 12165, 6997, 1368, 2282, -2215, -9, 43, -1, 91, 96, 83, 47, 54, 112, 163, 87
249081170, 143, 8453, 12165, 6997, 1368, 2282, -2215, -9, 43, -1, 130, 119, 82, 49, 54, 110, 163, 98
249082080, 143, 8453, 12165, 6997, 1368, 2282, -2215, -9, 43, -1, 130, 119, 82, 49, 54, 110, 163, 98
249102830, 172, 8453, 12148, 7024, 1353, 2410, -2302, -220, 26, 67, 130, 119, 82, 49, 54, 110, 163, 98
249103659, 172, 8453, 12148, 7024, 1353, 2410, -2302, -220, 26, 67, 125, 117, 81, 54, 57, 114, 195, 107
249104440, 172, 8453, 12148, 7024, 1353, 2410, -2302, -220, 26, 67, 125, 117, 81, 54, 57, 114, 195, 107
249125318, 250, 8453, 12101, 7103, 1380, 2660, -2413, -620, -5, 79, 125, 117, 81, 54, 57, 114, 195, 107
249126141, 250, 8453, 12101, 7103, 1380, 2660, -2413, -620, -5, 79, 147, 137, 90, 60, 59, 111, 254, 135
249126912, 250, 8453, 12101, 7103, 1380, 2660, -2413, -620, -5, 79, 147, 137, 90, 60, 59, 111, 254, 135
249139003, 364, 8433, 12028, 7246, 1407, 2732, -2379, -1066, 70, -23, 147, 137, 90, 60, 59, 111, 254, 135
249147170, 364, 8433, 12028, 7246, 1407, 2732, -2379, -1066, 70, -23, 162, 174, 102, 62, 66, 124, 267, 183
249147942, 364, 8433, 12028, 7246, 1407, 2732, -2379, -1066, 70, -23, 162, 174, 102, 62, 66, 124, 267, 183
249162890, 492, 8406, 11903, 7472, 1414, 2622, -2153, -1605, 187, -20, 162, 174, 102, 62, 66, 124, 267, 183
249163655, 492, 8406, 11903, 7472, 1414, 2622, -2153, -1605, 187, -20, 196, 217, 114, 63, 66, 118, 294, 197
249164467, 492, 8406, 11903, 7472, 1414, 2622, -2153, -1605, 187, -20, 196, 217, 114, 63, 66, 118, 294, 197
249185340, 666, 8376, 11679, 7836, 1463, 2592, -1938, -2564, 381, 146, 196, 217, 114, 63, 66, 118, 294, 197
249186139, 666, 8376, 11679, 7836, 1463, 2592, -1938, -2564, 381, 146, 178, 206, 111, 60, 65, 115, 296, 198
249186973, 666, 8376, 11679, 7836, 1463, 2592, -1938, -2564, 381, 146, 178, 206, 111, 60, 65, 115, 296, 198
249198999, 917, 8335, 11330, 8350, 1446, 2627, -1722, -3722, 512, 286, 178, 206, 111, 60, 65, 115, 296, 198
249207164, 917, 8335, 11330, 8350, 1446, 2627, -1722, -3722, 512, 286, 205, 205, 107, 56, 61, 107, 275, 205
249207961, 917, 8335, 11330, 8350, 1446, 2627, -1722, -3722, 512, 286, 205, 205, 107, 56, 61, 107, 275, 205
249222885, 1230, 8277, 10885, 8939, 1361, 2575, -1652, -4508, 519, 342, 205, 205, 107, 56, 61, 107, 275, 205
249223728, 1230, 8277, 10885, 8939, 1361, 2575, -1652, -4508, 519, 342, 240, 220, 105, 52, 56, 109, 227, 196
249224629, 1230, 8277, 10885, 8939, 1361, 2575, -1652, -4508, 519, 342, 240, 220, 105, 52, 56, 109, 227, 196
249245374, 1584, 8208, 10348, 9562, 1401, 2302, -1614, -5077, 474, 428, 240, 220, 105, 52, 56, 109, 227, 196
249246164, 1584, 8208, 10348, 9562, 1401, 2302, -1614, -5077, 474, 428, 232, 198, 97, 54, 48, 89, 205, 170
249246941, 1584, 8208, 10348, 9562, 1401, 2302, -1614, -5077, 474, 428, 232, 198, 97, 54, 48, 89, 205, 170
249259014, 1940, 8149, 9770, 10139, 1363, 1965, -1532, -5089, 300, 527, 232, 198, 97, 54, 48, 89, 205, 170
249267187, 1940, 8149, 9770, 10139, 1363, 1965, -1532, -5089, 300, 527, 275, 167, 119, 83, 50, 90, 218, 155
249267941, 1940, 8149, 9770, 10139, 1363, 1965, -1532, -5089, 300, 527, 275, 167, 119, 83, 50, 90, 218, 155
249282815, 2283, 8081, 9230, 10616, 1273, 1753, -1370, -4603, 127, 366, 275, 167, 119, 83, 50, 90, 218, 155
249283646, 2283, 8081, 9230, 10616, 1273, 1753, -1370, -4603, 127, 366, 305, 195, 133, 96, 52, 100, 244, 155
249284468, 2283, 8081, 9230, 10616, 1273, 1753, -1370, -4603, 127, 366, 305, 195, 133, 96, 52, 100, 244, 155
249305390, 2613, 8021, 8775, 10966, 1261, 1516, -1162, -3840, -149, 90, 305, 195, 133, 96, 52, 100, 244, 155
249306171, 2613, 8021, 8775, 10966, 1261, 1516, -1162, -3840, -149, 90, 300, 223, 160, 107, 58, 110, 272, 150
249306993, 2613, 8021, 8775, 10966, 1261, 1516, -1162, -3840, -149, 90, 300, 223, 160, 107, 58, 110, 272, 150
249319022, 2870, 7968, 8456, 11188, 1560, 1260, -854, -2712, -197, -153, 300, 223, 160, 107, 58, 110, 272, 150
249327151, 2870, 7968, 8456, 11188, 1560, 1260, -854, -2712, -197, -153, 341, 230, 190, 125, 77, 114, 278, 168
249328021, 2870, 7968, 8456, 11188, 1560, 1260, -854, -2712, -197, -153, 341, 230, 190, 125, 77, 114, 278, 168
249342846, 2940, 7985, 8278, 11290, 1752, 1097, -545, -1418, -13, -184, 341, 230, 190, 125, 77, 114, 278, 168
249343619, 2940, 7985, 8278, 11290, 1752, 1097, -545, -1418, -13, -184, 434, 348, 226, 138, 85, 117, 292, 166
249344505, 2940, 7985, 8278, 11290, 1752, 1097, -545, -1418, -13, -184, 434, 348, 226, 138, 85, 117, 292, 166
249365378, 2941, 7988, 8273, 11292, 1498, 1569, -594, -322, 161, -274, 434, 348, 226, 138, 85, 117, 292, 166
249366167, 2941, 7988, 8273, 11292, 1498, 1569, -594, -322, 161, -274, 537, 400, 229, 128, 83, 122, 280, 182
249366996, 2941, 7988, 8273, 11292, 1498, 1569, -594, -322, 161, -274, 537, 400, 229, 128, 83, 122, 280, 182
249379088, 2945, 7996, 8369, 11214, 1297, 1981, -796, 203, 54, -430, 537, 400, 229, 128, 83, 122, 280, 182
249387179, 2945, 7996, 8369, 11214, 1297, 1981, -796, 203, 54, -430, 603, 417, 230, 124, 83, 114, 293, 180
249387919, 2945, 7996, 8369, 11214, 1297, 1981, -796, 203, 54, -430, 603, 417, 230, 124, 83, 114, 293, 180
249402845, 2978, 8006, 8425, 11157, 1438, 2112, -792, -81, -23, -447, 603, 417, 230, 124, 83, 114, 293, 180
249403630, 2978, 8006, 8425, 11157, 1438, 2112, -792, -81, -23, -447, 635, 426, 219, 118, 83, 109, 285, 177
249404444, 2978, 8006, 8425, 11157, 1438, 2112, -792, -81, -23, -447, 635, 426, 219, 118, 83, 109, 285, 177
249425306, 3042, 7996, 8386, 11175, 1491, 2108, -687, -720, 40, -320, 635, 426, 219, 118, 83, 109, 285, 177
249426169, 3042, 7996, 8386, 11175, 1491, 2108, -687, -720, 40, -320, 674, 455, 209, 110, 71, 103, 306, 157
249426926, 3042, 7996, 8386, 11175, 1491, 2108, -687, -720, 40, -320, 674, 455, 209, 110, 71, 103, 306, 157
249439081, 3110, 7999, 8313, 11209, 1397, 1783, -778, -945, 19, -232, 674, 455, 209, 110, 71, 103, 306, 157
249447191, 3110, 7999, 8313, 11209, 1397, 1783, -778, -945, 19, -232, 639, 380, 175, 101, 64, 98, 410, 153
249447949, 3110, 7999, 8313, 11209, 1397, 1783, -778, -945, 19, -232, 639, 380, 175, 101, 64, 98, 410, 153
249462920, 3149, 8024, 8266, 11215, 1392, 1594, -769, -656, -31, -199, 639, 380, 175, 101, 64, 98, 410, 153
249463707, 3149, 8024, 8266, 11215, 1392, 1594, -769, -656, -31, -199, 531, 320, 153, 98, 62, 94, 405, 133
249464457, 3149, 8024, 8266, 11215, 1392, 1594, -769, -656, -31, -199, 531, 320, 153, 98, 62, 94, 405, 133
249485349, 3144, 8053, 8277, 11187, 1322, 1672, -691, -177, 24, -162, 531, 320, 153, 98, 62, 94, 405, 133
249486141, 3144, 8053, 8277, 11187, 1322, 1672, -691, -177, 24, -162, 509, 298, 157, 100, 67, 107, 394, 138
249486960, 3144, 8053, 8277, 11187, 1322, 1672, -691, -177, 24, -162, 509, 298, 157, 100, 67, 107, 394, 138
249499013, 3111, 8075, 8327, 11144, 1312, 1849, -622, 132, 111, -146, 509, 298, 157, 100, 67, 107, 394, 138
249507171, 3111, 8075, 8327, 11144, 1312, 1849, -622, 132, 111, -146, 473, 285, 163, 100, 65, 108, 421, 142
249507882, 3111, 8075, 8327, 11144, 1312, 1849, -622, 132, 111, -146, 473, 285, 163, 100, 65, 108, 421, 142
249522826, 3079, 8092, 8360, 11116, 1362, 1963, -672, -10, 154, -92, 473, 285, 163, 100, 65, 108, 421, 142
249523616, 3079, 8092, 8360, 11116, 1362, 1963, -672, -10, 154, -92, 363, 208, 146, 95, 64, 103, 399, 139
249524439, 3079, 8092, 8360, 11116, 1362, 1963, -672, -10, 154, -92, 363, 208, 146, 95, 64, 103, 399, 139
249545332, 3060, 8132, 8370, 11084, 1358, 1824, -807, -149, 25, -47, 363, 208, 146, 95, 64, 103, 399, 139
249546135, 3060, 8132, 8370, 11084, 1358, 1824, -807, -149, 25, -47, 343, 203, 156, 96, 65, 111, 322, 133
249546922, 3060, 8132, 8370, 11084, 1358, 1824, -807, -149, 25, -47, 343, 203, 156, 96, 65, 111, 322, 133
249559022, 3048, 8170, 8358, 11068, 1400, 1777, -679, -238, -2, -35, 343, 203, 156, 96, 65, 111, 322, 133
249567162, 3048, 8170, 8358, 11068, 1400, 1777, -679, -238, -2, -35, 352, 204, 161, 98, 67, 106, 313, 127
249567911, 3048, 8170, 8358, 11068, 1400, 1777, -679, -238, -2, -35, 352, 204, 161, 98, 67, 106, 313, 127
249582821, 3029, 8207, 8363, 11042, 1324, 1729, -640, -102, 4, -35, 352, 204, 161, 98, 67, 106, 313, 127
249583638, 3029, 8207, 8363, 11042, 1324, 1729, -640, -102, 4, -35, 255, 189, 155, 99, 66, 100, 334, 121
249584424, 3029, 8207, 8363, 11042, 1324, 1729, -640, -102, 4, -35, 255, 189, 155, 99, 66, 100, 334, 121
249605356, 2995, 8242, 8387, 11007, 1331, 1716, -620, 54, 35, -59, 255, 189, 155, 99, 66, 100, 334, 121
249606137, 2995, 8242, 8387, 11007, 1331, 1716, -620, 54, 35, -59, 237, 156, 145, 102, 66, 103, 303, 116
249606998, 2995, 8242, 8387, 11007, 1331, 1716, -620, 54, 35, -59, 237, 156, 145, 102, 66, 103, 303, 116
249619018, 2955, 8290, 8422, 10955, 1329, 1752, -720, 135, -13, -25, 237, 156, 145, 102, 66, 103, 303, 116
249627167, 2955, 8290, 8422, 10955, 1329, 1752, -720, 135, -13, -25, 225, 146, 140, 98, 59, 102, 300, 109
249627921, 2955, 8290, 8422, 10955, 1329, 1752, -720, 135, -13, -25, 225, 146, 140, 98, 59, 102, 300, 109
249642832, 2923, 8343, 8451, 10902, 1385, 1846, -724, 112, -65, -26, 225, 146, 140, 98, 59, 102, 300, 109
249643616, 2923, 8343, 8451, 10902, 1385, 1846, -724, 112, -65, -26, 216, 129, 122, 86, 57, 90, 263, 104
249644447, 2923, 8343, 8451, 10902, 1385, 1846, -724, 112, -65, -26, 216, 129, 122, 86, 57, 90, 263, 104
249665365, 2891, 8384, 8464, 10868, 1416, 1835, -624, 36, -21, -9, 216, 129, 122, 86, 57, 90, 263, 104
249666165, 2891, 8384, 8464, 10868, 1416, 1835, -624, 36, -21, -9, 254, 156, 112, 81, 53, 93, 268, 94
249666985, 2891, 8384, 8464, 10868, 1416, 1835, -624, 36, -21, -9, 254, 156, 112, 81, 53, 93, 268, 94
249679019, 2860, 8413, 8475, 10845, 1374, 1779, -596, 2, 46, -20, 254, 156, 112, 81, 53, 93, 268, 94
