Timestamp, Orientation x, Orientation y, Orientation z, Orientation w, Acceleration x, Acceleration y, Acceleration z, Rotation x, Rotation y, Rotation z, EMG 0, EMG 1, EMG 2, EMG 3, EMG 4, EMG 5, EMG 6, EMG 7
76511522, 3147, -15005, -711, -5734, 2930, -1293, -2885, 44, -2, 6, 0, 0, 0, 0, 0, 0, 0, 0
76512461, 3143, -15004, -723, -5739, 2916, -1231, -2910, 52, -26, -1, 0, 0, 0, 0, 0, 0, 0, 0
76525896, 3126, -15004, -732, -5748, 2928, -1217, -2918, -12, -11, -20, 0, 0, 0, 0, 0, 0, 0, 0
76548394, 3109, -15002, -736, -5760, 2954, -1264, -2903, -49, 3, -9, 0, 0, 0, 0, 0, 0, 0, 0
76570834, 3107, -15002, -737, -5762, 2959, -1269, -2904, -3, -2, 9, 0, 0, 0, 0, 0, 0, 0, 0
76579035, 3107, -15002, -737, -5762, 2959, -1269, -2904, -3, -2, 9, 198, 54, 132, 71, 351, 214, 143, 120
76579803, 3107, -15002, -737, -5762, 2959, -1269, -2904, -3, -2, 9, 198, 54, 132, 71, 351, 214, 143, 120
76585996, 3106, -14999, -743, -5770, 2964, -1271, -2912, 35, -11, 9, 198, 54, 132, 71, 351, 214, 143, 120
76601489, 3106, -14999, -743, -5770, 2964, -1271, -2912, 35, -11, 9, 207, 50, 129, 75, 342, 193, 122, 127
76602300, 3106, -14999, -743, -5770, 2964, -1271, -2912, 35, -11, 9, 207, 50, 129, 75, 342, 193, 122, 127
76608463, 3097, -14998, -752, -5775, 2959, -1233, -2917, 13, -35, -6, 207, 50, 129, 75, 342, 193, 122, 127
76623975, 3097, -14998, -752, -5775, 2959, -1233, -2917, 13, -35, -6, 213, 47, 121, 78, 360, 244, 120, 146
76624802, 3097, -14998, -752, -5775, 2959, -1233, -2917, 13, -35, -6, 213, 47, 121, 78, 360, 244, 120, 146
76639777, 3080, -14999, -758, -5781, 2957, -1242, -2895, -45, -33, -13, 213, 47, 121, 78, 360, 244, 120, 146
76640573, 3080, -14999, -758, -5781, 2957, -1242, -2895, -45, -33, -13, 215, 43, 137, 88, 363, 256, 108, 141
76641400, 3080, -14999, -758, -5781, 2957, -1242, -2895, -45, -33, -13, 215, 43, 137, 88, 363, 256, 108, 141
76645957, 3072, -14998, -761, -5787, 2956, -1278, -2886, -21, -24, 1, 215, 43, 137, 88, 363, 256, 108, 141
76661471, 3072, -14998, -761, -5787, 2956, -1278, -2886, -21, -24, 1, 217, 38, 136, 95, 342, 248, 101, 125
76662380, 3072, -14998, -761, -5787, 2956, -1278, -2886, -21, -24, 1, 217, 38, 136, 95, 342, 248, 101, 125
76668453, 3076, -14995, -768, -5794, 2956, -1264, -2877, 55, -22, 6, 217, 38, 136, 95, 342, 248, 101, 125
76683978, 3076, -14995, -768, -5794, 2956, -1264, -2877, 55, -22, 6, 212, 42, 136, 99, 323, 252, 106, 141
76684773, 3076, -14995, -768, -5794, 2956, -1264, -2877, 55, -22, 6, 212, 42, 136, 99, 323, 252, 106, 141
76690951, 3071, -14994, -777, -5798, 2947, -1221, -2900, 30, -30, -1, 212, 42, 136, 99, 323, 252, 106, 141
76698977, 3071, -14994, -777, -5798, 2947, -1221, -2900, 30, -30, -1, 216, 43, 140, 104, 351, 250, 113, 153
76699801, 3071, -14994, -777, -5798, 2947, -1221, -2900, 30, -30, -1, 216, 43, 140, 104, 351, 250, 113, 153
76705962, 3060, -14995, -781, -5800, 2943, -1242, -2911, -19, -31, -1, 216, 43, 140, 104, 351, 250, 113, 153
76721482, 3060, -14995, -781, -5800, 2943, -1242, -2911, -19, -31, -1, 284, 46, 137, 104, 337, 195, 104, 156
76722289, 3060, -14995, -781, -5800, 2943, -1242, -2911, -19, -31, -1, 284, 46, 137, 104, 337, 195, 104, 156
76728420, 3060, -14993, -785, -5805, 2957, -1289, -2887, 16, -25, 8, 284, 46, 137, 104, 337, 195, 104, 156
76743960, 3060, -14993, -785, -5805, 2957, -1289, -2887, 16, -25, 8, 294, 46, 118, 94, 306, 176, 94, 166
76744848, 3060, -14993, -785, -5805, 2957, -1289, -2887, 16, -25, 8, 294, 46, 118, 94, 306, 176, 94, 166
76750995, 3067, -14992, -790, -5803, 2934, -1280, -2908, 64, -43, 16, 294, 46, 118, 94, 306, 176, 94, 166
76758983, 3067, -14992, -790, -5803, 2934, -1280, -2908, 64, -43, 16, 273, 49, 110, 84, 319, 175, 89, 180
76759801, 3067, -14992, -790, -5803, 2934, -1280, -2908, 64, -43, 16, 273, 49, 110, 84, 319, 175, 89, 180
76773456, 3069, -14993, -796, -5797, 2936, -1267, -2917, 44, -70, 16, 273, 49, 110, 84, 319, 175, 89, 180
76781481, 3069, -14993, -796, -5797, 2936, -1267, -2917, 44, -70, 16, 285, 102, 99, 81, 303, 164, 91, 191
76782301, 3069, -14993, -796, -5797, 2936, -1267, -2917, 44, -70, 16, 285, 102, 99, 81, 303, 164, 91, 191
76788450, 3073, -14996, -798, -5787, 2942, -1302, -2924, 32, -93, 31, 285, 102, 99, 81, 303, 164, 91, 191
76803979, 3073, -14996, -798, -5787, 2942, -1302, -2924, 32, -93, 31, 361, 151, 99, 74, 299, 140, 84, 201
76804797, 3073, -14996, -798, -5787, 2942, -1302, -2924, 32, -93, 31, 361, 151, 99, 74, 299, 140, 84, 201
76810958, 3098, -15001, -797, -5762, 2935, -1379, -2965, 121, -151, 86, 361, 151, 99, 74, 299, 140, 84, 201
76818977, 3098, -15001, -797, -5762, 2935, -1379, -2965, 121, -151, 86, 432, 156, 113, 82, 319, 145, 99, 276
76819804, 3098, -15001, -797, -5762, 2935, -1379, -2965, 121, -151, 86, 432, 156, 113, 82, 319, 145, 99, 276
76825955, 3120, -15013, -798, -5719, 2877, -1340, -2902, 110, -272, 98, 432, 156, 113, 82, 319, 145, 99, 276
76841475, 3120, -15013, -798, -5719, 2877, -1340, -2902, 110, -272, 98, 532, 172, 138, 104, 374, 170, 122, 321
76842376, 3120, -15013, -798, -5719, 2877, -1340, -2902, 110, -272, 98, 532, 172, 138, 104, 374, 170, 122, 321
76848454, 3143, -15020, -817, -5683, 2857, -1262, -2863, 180, -260, 36, 532, 172, 138, 104, 374, 170, 122, 321
76863993, 3143, -15020, -817, -5683, 2857, -1262, -2863, 180, -260, 36, 601, 225, 147, 115, 356, 165, 125, 315
76864805, 3143, -15020, -817, -5683, 2857, -1262, -2863, 180, -260, 36, 601, 225, 147, 115, 356, 165, 125, 315
76879817, 3164, -15021, -837, -5667, 2921, -1228, -2872, 192, -174, 23, 601, 225, 147, 115, 356, 165, 125, 315
76880626, 3164, -15021, -837, -5667, 2921, -1228, -2872, 192, -174, 23, 707, 234, 193, 115, 355, 163, 137, 380
76881454, 3164, -15021, -837, -5667, 2921, -1228, -2872, 192, -174, 23, 707, 234, 193, 115, 355, 163, 137, 380
76885951, 3207, -15019, -825, -5650, 2918, -1388, -2895, 198, -125, 190, 707, 234, 193, 115, 355, 163, 137, 380
76901480, 3207, -15019, -825, -5650, 2918, -1388, -2895, 198, -125, 190, 929, 268, 250, 126, 390, 165, 237, 482
76902284, 3207, -15019, -825, -5650, 2918, -1388, -2895, 198, -125, 190, 929, 268, 250, 126, 390, 165, 237, 482
76915929, 3286, -15022, -758, -5606, 2768, -1564, -3008, 253, -109, 497, 929, 268, 250, 126, 390, 165, 237, 482
76923976, 3286, -15022, -758, -5606, 2768, -1564, -3008, 253, -109, 497, 1019, 284, 271, 135, 533, 203, 283, 469
76924802, 3286, -15022, -758, -5606, 2768, -1564, -3008, 253, -109, 497, 1019, 284, 271, 135, 533, 203, 283, 469
76930951, 3373, -15028, -733, -5540, 2656, -1310, -2797, 445, -320, 418, 1019, 284, 271, 135, 533, 203, 283, 469
76939010, 3373, -15028, -733, -5540, 2656, -1310, -2797, 445, -320, 418, 1056, 314, 354, 146, 546, 278, 330, 443
76939815, 3373, -15028, -733, -5540, 2656, -1310, -2797, 445, -320, 418, 1056, 314, 354, 146, 546, 278, 330, 443
76953386, 3313, -15040, -770, -5540, 2983, -877, -2734, -68, -255, -40, 1056, 314, 354, 146, 546, 278, 330, 443
76961520, 3313, -15040, -770, -5540, 2983, -877, -2734, -68, -255, -40, 1105, 373, 437, 141, 553, 303, 353, 468
76962380, 3313, -15040, -770, -5540, 2983, -877, -2734, -68, -255, -40, 1105, 373, 437, 141, 553, 303, 353, 468
76968454, 3338, -15019, -772, -5580, 2927, -1460, -2718, 103, 105, 19, 1105, 373, 437, 141, 553, 303, 353, 468
76983982, 3338, -15019, -772, -5580, 2927, -1460, -2718, 103, 105, 19, 1131, 401, 473, 152, 583, 306, 362, 468
76984775, 3338, -15019, -772, -5580, 2927, -1460, -2718, 103, 105, 19, 1131, 401, 473, 152, 583, 306, 362, 468
76990927, 3423, -15009, -737, -5560, 2690, -1573, -3016, 382, 29, 325, 1131, 401, 473, 152, 583, 306, 362, 468
76998983, 3423, -15009, -737, -5560, 2690, -1573, -3016, 382, 29, 325, 1071, 460, 489, 165, 606, 320, 349, 410
76999801, 3423, -15009, -737, -5560, 2690, -1573, -3016, 382, 29, 325, 1071, 460, 489, 165, 606, 320, 349, 410
77013378, 3416, -15027, -671, -5523, 2662, -1080, -2955, -2, -116, 518, 1071, 460, 489, 165, 606, 320, 349, 410
77021479, 3416, -15027, -671, -5523, 2662, -1080, -2955, -2, -116, 518, 1002, 521, 521, 176, 527, 305, 337, 392
77022285, 3416, -15027, -671, -5523, 2662, -1080, -2955, -2, -116, 518, 1002, 521, 521, 176, 527, 305, 337, 392
77028461, 3327, -15039, -618, -5552, 3032, -1015, -2781, -426, -7, 307, 1002, 521, 521, 176, 527, 305, 337, 392
77043977, 3327, -15039, -618, -5552, 3032, -1015, -2781, -426, -7, 307, 1032, 571, 485, 156, 546, 256, 332, 445
77044788, 3327, -15039, -618, -5552, 3032, -1015, -2781, -426, -7, 307, 1032, 571, 485, 156, 546, 256, 332, 445
77050932, 3281, -15027, -590, -5615, 3043, -1343, -2711, -281, 170, 83, 1032, 571, 485, 156, 546, 256, 332, 445
77058990, 3281, -15027, -590, -5615, 3043, -1343, -2711, -281, 170, 83, 1135, 557, 450, 161, 617, 257, 362, 614
77059796, 3281, -15027, -590, -5615, 3043, -1343, -2711, -281, 170, 83, 1135, 557, 450, 161, 617, 257, 362, 614
77073377, 3372, -14994, -566, -5651, 2717, -1580, -2865, 412, 297, 215, 1135, 557, 450, 161, 617, 257, 362, 614
77089676, 3372, -14994, -566, -5651, 2717, -1580, -2865, 412, 297, 215, 1312, 675, 482, 176, 655, 255, 378, 661
77090480, 3372, -14994, -566, -5651, 2717, -1580, -2865, 412, 297, 215, 1312, 675, 482, 176, 655, 255, 378, 661
77091433, 3400, -14988, -506, -5656, 2641, -1165, -3056, 206, 218, 467, 1312, 675, 482, 176, 655, 255, 378, 661
77103998, 3400, -14988, -506, -5656, 2641, -1165, -3056, 206, 218, 467, 1326, 723, 578, 227, 646, 258, 442, 758
77104788, 3400, -14988, -506, -5656, 2641, -1165, -3056, 206, 218, 467, 1326, 723, 578, 227, 646, 258, 442, 758
77110950, 3307, -15000, -429, -5685, 2928, -1068, -2935, -467, 149, 376, 1326, 723, 578, 227, 646, 258, 442, 758
77119002, 3307, -15000, -429, -5685, 2928, -1068, -2935, -467, 149, 376, 1358, 751, 612, 230, 623, 250, 447, 872
77119818, 3307, -15000, -429, -5685, 2928, -1068, -2935, -467, 149, 376, 1358, 751, 612, 230, 623, 250, 447, 872
77136082, 3249, -15003, -361, -5716, 2973, -1543, -2814, -475, 111, 219, 1358, 751, 612, 230, 623, 250, 447, 872
77136898, 3249, -15003, -361, -5716, 2973, -1543, -2814, -475, 111, 219, 1358, 751, 612, 230, 623, 250, 447, 872
77137743, 3143, -15020, -817, -5683, 2857, -1262, -2863, 180, -260, 36, 1358, 751, 612, 230, 623, 250, 447, 872
77138542, 3143, -15020, -817, -5683, 2857, -1262, -2863, 180, -260, 36, 601, 225, 147, 115, 356, 165, 125, 315
77143501, 3143, -15020, -817, -5683, 2857, -1262, -2863, 180, -260, 36, 601, 225, 147, 115, 356, 165, 125, 315
77144445, 3164, -15021, -837, -5667, 2921, -1228, -2872, 192, -174, 23, 601, 225, 147, 115, 356, 165, 125, 315
77145268, 3164, -15021, -837, -5667, 2921, -1228, -2872, 192, -174, 23, 707, 234, 193, 115, 355, 163, 137, 380
77146079, 3164, -15021, -837, -5667, 2921, -1228, -2872, 192, -174, 23, 707, 234, 193, 115, 355, 163, 137, 380
77151097, 3164, -15021, -837, -5667, 2921, -1228, -2872, 192, -174, 23, 707, 234, 193, 115, 355, 163, 137, 380
77151892, 3164, -15021, -837, -5667, 2921, -1228, -2872, 192, -174, 23, 707, 234, 193, 115, 355, 163, 137, 380
77152689, 3164, -15021, -837, -5667, 2921, -1228, -2872, 192, -174, 23, 707, 234, 193, 115, 355, 163, 137, 380
77153519, 3164, -15021, -837, -5667, 2921, -1228, -2872, 192, -174, 23, 707, 234, 193, 115, 355, 163, 137, 380
77158477, 3164, -15021, -837, -5667, 2921, -1228, -2872, 192, -174, 23, 707, 234, 193, 115, 355, 163, 137, 380
77159276, 3164, -15021, -837, -5667, 2921, -1228, -2872, 192, -174, 23, 707, 234, 193, 115, 355, 163, 137, 380
77160093, 3164, -15021, -837, -5667, 2921, -1228, -2872, 192, -174, 23, 707, 234, 193, 115, 355, 163, 137, 380
77160915, 3164, -15021, -837, -5667, 2921, -1228, -2872, 192, -174, 23, 707, 234, 193, 115, 355, 163, 137, 380
77165974, 3164, -15021, -837, -5667, 2921, -1228, -2872, 192, -174, 23, 707, 234, 193, 115, 355, 163, 137, 380
77166923, 3207, -15019, -825, -5650, 2918, -1388, -2895, 198, -125, 190, 707, 234, 193, 115, 355, 163, 137, 380
77167717, 3207, -15019, -825, -5650, 2918, -1388, -2895, 198, -125, 190, 929, 268, 250, 126, 390, 165, 237, 482
77168544, 3207, -15019, -825, -5650, 2918, -1388, -2895, 198, -125, 190, 929, 268, 250, 126, 390, 165, 237, 482
77173546, 3207, -15019, -825, -5650, 2918, -1388, -2895, 198, -125, 190, 929, 268, 250, 126, 390, 165, 237, 482
77174373, 3207, -15019, -825, -5650, 2918, -1388, -2895, 198, -125, 190, 929, 268, 250, 126, 390, 165, 237, 482
77175171, 3207, -15019, -825, -5650, 2918, -1388, -2895, 198, -125, 190, 929, 268, 250, 126, 390, 165, 237, 482
77175991, 3207, -15019, -825, -5650, 2918, -1388, -2895, 198, -125, 190, 929, 268, 250, 126, 390, 165, 237, 482
77180970, 3207, -15019, -825, -5650, 2918, -1388, -2895, 198, -125, 190, 929, 268, 250, 126, 390, 165, 237, 482
77181784, 3207, -15019, -825, -5650, 2918, -1388, -2895, 198, -125, 190, 929, 268, 250, 126, 390, 165, 237, 482
77182584, 3207, -15019, -825, -5650, 2918, -1388, -2895, 198, -125, 190, 929, 268, 250, 126, 390, 165, 237, 482
77183403, 3207, -15019, -825, -5650, 2918, -1388, -2895, 198, -125, 190, 929, 268, 250, 126, 390, 165, 237, 482
77186984, 3207, -15019, -825, -5650, 2918, -1388, -2895, 198, -125, 190, 929, 268, 250, 126, 390, 165, 237, 482
77187905, 3286, -15022, -758, -5606, 2768, -1564, -3008, 253, -109, 497, 929, 268, 250, 126, 390, 165, 237, 482
77196102, 3286, -15022, -758, -5606, 2768, -1564, -3008, 253, -109, 497, 1019, 284, 271, 135, 533, 203, 283, 469
77196899, 3286, -15022, -758, -5606, 2768, -1564, -3008, 253, -109, 497, 1019, 284, 271, 135, 533, 203, 283, 469
77197716, 3286, -15022, -758, -5606, 2768, -1564, -3008, 253, -109, 497, 1019, 284, 271, 135, 533, 203, 283, 469
77198521, 3286, -15022, -758, -5606, 2768, -1564, -3008, 253, -109, 497, 1019, 284, 271, 135, 533, 203, 283, 469
77203472, 3286, -15022, -758, -5606, 2768, -1564, -3008, 253, -109, 497, 1019, 284, 271, 135, 533, 203, 283, 469
77204369, 3286, -15022, -758, -5606, 2768, -1564, -3008, 253, -109, 497, 1019, 284, 271, 135, 533, 203, 283, 469
77205038, 3286, -15022, -758, -5606, 2768, -1564, -3008, 253, -109, 497, 1019, 284, 271, 135, 533, 203, 283, 469
77205914, 3286, -15022, -758, -5606, 2768, -1564, -3008, 253, -109, 497, 1019, 284, 271, 135, 533, 203, 283, 469
77210998, 3286, -15022, -758, -5606, 2768, -1564, -3008, 253, -109, 497, 1019, 284, 271, 135, 533, 203, 283, 469
77211930, 3373, -15028, -733, -5540, 2656, -1310, -2797, 445, -320, 418, 1019, 284, 271, 135, 533, 203, 283, 469
77212742, 3373, -15028, -733, -5540, 2656, -1310, -2797, 445, -320, 418, 1056, 314, 354, 146, 546, 278, 330, 443
77213543, 3373, -15028, -733, -5540, 2656, -1310, -2797, 445, -320, 418, 1056, 314, 354, 146, 546, 278, 330, 443
77218576, 3373, -15028, -733, -5540, 2656, -1310, -2797, 445, -320, 418, 1056, 314, 354, 146, 546, 278, 330, 443
77219363, 3373, -15028, -733, -5540, 2656, -1310, -2797, 445, -320, 418, 1056, 314, 354, 146, 546, 278, 330, 443
77220194, 3373, -15028, -733, -5540, 2656, -1310, -2797, 445, -320, 418, 1056, 314, 354, 146, 546, 278, 330, 443
77220989, 3373, -15028, -733, -5540, 2656, -1310, -2797, 445, -320, 418, 1056, 314, 354, 146, 546, 278, 330, 443
77224395, 3373, -15028, -733, -5540, 2656, -1310, -2797, 445, -320, 418, 1056, 314, 354, 146, 546, 278, 330, 443
77225198, 3373, -15028, -733, -5540, 2656, -1310, -2797, 445, -320, 418, 1056, 314, 354, 146, 546, 278, 330, 443
77233551, 3373, -15028, -733, -5540, 2656, -1310, -2797, 445, -320, 418, 1056, 314, 354, 146, 546, 278, 330, 443
77234384, 3373, -15028, -733, -5540, 2656, -1310, -2797, 445, -320, 418, 1056, 314, 354, 146, 546, 278, 330, 443
77235152, 3373, -15028, -733, -5540, 2656, -1310, -2797, 445, -320, 418, 1056, 314, 354, 146, 546, 278, 330, 443
77236105, 3313, -15040, -770, -5540, 2983, -877, -2734, -68, -255, -40, 1056, 314, 354, 146, 546, 278, 330, 443
77241122, 3313, -15040, -770, -5540, 2983, -877, -2734, -68, -255, -40, 1105, 373, 437, 141, 553, 303, 353, 468
77241910, 3313, -15040, -770, -5540, 2983, -877, -2734, -68, -255, -40, 1105, 373, 437, 141, 553, 303, 353, 468
77242817, 3313, -15040, -770, -5540, 2983, -877, -2734, -68, -255, -40, 1105, 373, 437, 141, 553, 303, 353, 468
77243541, 3313, -15040, -770, -5540, 2983, -877, -2734, -68, -255, -40, 1105, 373, 437, 141, 553, 303, 353, 468
77255975, 3313, -15040, -770, -5540, 2983, -877, -2734, -68, -255, -40, 1105, 373, 437, 141, 553, 303, 353, 468
77256764, 3313, -15040, -770, -5540, 2983, -877, -2734, -68, -255, -40, 1105, 373, 437, 141, 553, 303, 353, 468
77257590, 3313, -15040, -770, -5540, 2983, -877, -2734, -68, -255, -40, 1105, 373, 437, 141, 553, 303, 353, 468
77258419, 3313, -15040, -770, -5540, 2983, -877, -2734, -68, -255, -40, 1105, 373, 437, 141, 553, 303, 353, 468
77263479, 3313, -15040, -770, -5540, 2983, -877, -2734, -68, -255, -40, 1105, 373, 437, 141, 553, 303, 353, 468
77264422, 3338, -15019, -772, -5580, 2927, -1460, -2718, 103, 105, 19, 1105, 373, 437, 141, 553, 303, 353, 468
77265221, 3338, -15019, -772, -5580, 2927, -1460, -2718, 103, 105, 19, 1131, 401, 473, 152, 583, 306, 362, 468
77266045, 3338, -15019, -772, -5580, 2927, -1460, -2718, 103, 105, 19, 1131, 401, 473, 152, 583, 306, 362, 468
77271048, 3338, -15019, -772, -5580, 2927, -1460, -2718, 103, 105, 19, 1131, 401, 473, 152, 583, 306, 362, 468
77271870, 3338, -15019, -772, -5580, 2927, -1460, -2718, 103, 105, 19, 1131, 401, 473, 152, 583, 306, 362, 468
77272715, 3338, -15019, -772, -5580, 2927, -1460, -2718, 103, 105, 19, 1131, 401, 473, 152, 583, 306, 362, 468
77273486, 3338, -15019, -772, -5580, 2927, -1460, -2718, 103, 105, 19, 1131, 401, 473, 152, 583, 306, 362, 468
77278443, 3338, -15019, -772, -5580, 2927, -1460, -2718, 103, 105, 19, 1131, 401, 473, 152, 583, 306, 362, 468
77279255, 3338, -15019, -772, -5580, 2927, -1460, -2718, 103, 105, 19, 1131, 401, 473, 152, 583, 306, 362, 468
77280057, 3338, -15019, -772, -5580, 2927, -1460, -2718, 103, 105, 19, 1131, 401, 473, 152, 583, 306, 362, 468
77280885, 3338, -15019, -772, -5580, 2927, -1460, -2718, 103, 105, 19, 1131, 401, 473, 152, 583, 306, 362, 468
77286010, 3338, -15019, -772, -5580, 2927, -1460, -2718, 103, 105, 19, 1131, 401, 473, 152, 583, 306, 362, 468
77286940, 3423, -15009, -737, -5560, 2690, -1573, -3016, 382, 29, 325, 1131, 401, 473, 152, 583, 306, 362, 468
77287765, 3423, -15009, -737, -5560, 2690, -1573, -3016, 382, 29, 325, 1071, 460, 489, 165, 606, 320, 349, 410
77288567, 3423, -15009, -737, -5560, 2690, -1573, -3016, 382, 29, 325, 1071, 460, 489, 165, 606, 320, 349, 410
77293584, 3423, -15009, -737, -5560, 2690, -1573, -3016, 382, 29, 325, 1071, 460, 489, 165, 606, 320, 349, 410
77294384, 3423, -15009, -737, -5560, 2690, -1573, -3016, 382, 29, 325, 1071, 460, 489, 165, 606, 320, 349, 410
77295208, 3423, -15009, -737, -5560, 2690, -1573, -3016, 382, 29, 325, 1071, 460, 489, 165, 606, 320, 349, 410
77296038, 3423, -15009, -737, -5560, 2690, -1573, -3016, 382, 29, 325, 1071, 460, 489, 165, 606, 320, 349, 410
77300984, 3423, -15009, -737, -5560, 2690, -1573, -3016, 382, 29, 325, 1071, 460, 489, 165, 606, 320, 349, 410
77301805, 3423, -15009, -737, -5560, 2690, -1573, -3016, 382, 29, 325, 1071, 460, 489, 165, 606, 320, 349, 410
77302629, 3423, -15009, -737, -5560, 2690, -1573, -3016, 382, 29, 325, 1071, 460, 489, 165, 606, 320, 349, 410
77303429, 3423, -15009, -737, -5560, 2690, -1573, -3016, 382, 29, 325, 1071, 460, 489, 165, 606, 320, 349, 410
77308503, 3423, -15009, -737, -5560, 2690, -1573, -3016, 382, 29, 325, 1071, 460, 489, 165, 606, 320, 349, 410
77309435, 3416, -15027, -671, -5523, 2662, -1080, -2955, -2, -116, 518, 1071, 460, 489, 165, 606, 320, 349, 410
77310246, 3416, -15027, -671, -5523, 2662, -1080, -2955, -2, -116, 518, 1002, 521, 521, 176, 527, 305, 337, 392
77311087, 3416, -15027, -671, -5523, 2662, -1080, -2955, -2, -116, 518, 1002, 521, 521, 176, 527, 305, 337, 392
77316085, 3416, -15027, -671, -5523, 2662, -1080, -2955, -2, -116, 518, 1002, 521, 521, 176, 527, 305, 337, 392
77316905, 3416, -15027, -671, -5523, 2662, -1080, -2955, -2, -116, 518, 1002, 521, 521, 176, 527, 305, 337, 392
77317689, 3416, -15027, -671, -5523, 2662, -1080, -2955, -2, -116, 518, 1002, 521, 521, 176, 527, 305, 337, 392
77318516, 3416, -15027, -671, -5523, 2662, -1080, -2955, -2, -116, 518, 1002, 521, 521, 176, 527, 305, 337, 392
77323479, 3416, -15027, -671, -5523, 2662, -1080, -2955, -2, -116, 518, 1002, 521, 521, 176, 527, 305, 337, 392
77324288, 3416, -15027, -671, -5523, 2662, -1080, -2955, -2, -116, 518, 1002, 521, 521, 176, 527, 305, 337, 392
77325104, 3416, -15027, -671, -5523, 2662, -1080, -2955, -2, -116, 518, 1002, 521, 521, 176, 527, 305, 337, 392
77325903, 3416, -15027, -671, -5523, 2662, -1080, -2955, -2, -116, 518, 1002, 521, 521, 176, 527, 305, 337, 392
77330984, 3416, -15027, -671, -5523, 2662, -1080, -2955, -2, -116, 518, 1002, 521, 521, 176, 527, 305, 337, 392
77331932, 3327, -15039, -618, -5552, 3032, -1015, -2781, -426, -7, 307, 1002, 521, 521, 176, 527, 305, 337, 392
77332728, 3327, -15039, -618, -5552, 3032, -1015, -2781, -426, -7, 307, 1032, 571, 485, 156, 546, 256, 332, 445
77333558, 3327, -15039, -618, -5552, 3032, -1015, -2781, -426, -7, 307, 1032, 571, 485, 156, 546, 256, 332, 445
77338549, 3327, -15039, -618, -5552, 3032, -1015, -2781, -426, -7, 307, 1032, 571, 485, 156, 546, 256, 332, 445
77339370, 3327, -15039, -618, -5552, 3032, -1015, -2781, -426, -7, 307, 1032, 571, 485, 156, 546, 256, 332, 445
77340190, 3327, -15039, -618, -5552, 3032, -1015, -2781, -426, -7, 307, 1032, 571, 485, 156, 546, 256, 332, 445
77340993, 3327, -15039, -618, -5552, 3032, -1015, -2781, -426, -7, 307, 1032, 571, 485, 156, 546, 256, 332, 445
77344625, 3327, -15039, -618, -5552, 3032, -1015, -2781, -426, -7, 307, 1032, 571, 485, 156, 546, 256, 332, 445
77345459, 3327, -15039, -618, -5552, 3032, -1015, -2781, -426, -7, 307, 1032, 571, 485, 156, 546, 256, 332, 445
77346268, 3327, -15039, -618, -5552, 3032, -1015, -2781, -426, -7, 307, 1032, 571, 485, 156, 546, 256, 332, 445
77350824, 3097, -15052, -120, -5683, 2702, -1377, -2894, -72, -92, 98, 1032, 571, 485, 156, 546, 256, 332, 445
77367221, 3097, -15052, -120, -5683, 2702, -1377, -2894, -72, -92, 98, 1012, 880, 577, 139, 401, 253, 228, 531
77368013, 3097, -15052, -120, -5683, 2702, -1377, -2894, -72, -92, 98, 1012, 880, 577, 139, 401, 253, 228, 531
77368960, 3088, -15059, -106, -5670, 2689, -1330, -2881, -47, -73, 109, 1012, 880, 577, 139, 401, 253, 228, 531
77381490, 3088, -15059, -106, -5670, 2689, -1330, -2881, -47, -73, 109, 948, 751, 534, 146, 366, 240, 197, 520
77382286, 3088, -15059, -106, -5670, 2689, -1330, -2881, -47, -73, 109, 948, 751, 534, 146, 366, 240, 197, 520
77388423, 3063, -15063, -88, -5672, 2761, -1281, -2875, -110, -19, 108, 948, 751, 534, 146, 366, 240, 197, 520
77404026, 3063, -15063, -88, -5672, 2761, -1281, -2875, -110, -19, 108, 914, 757, 569, 154, 357, 250, 179, 493
77404776, 3063, -15063, -88, -5672, 2761, -1281, -2875, -110, -19, 108, 914, 757, 569, 154, 357, 250, 179, 493
77410921, 3041, -15065, -70, -5678, 2736, -1371, -2892, -138, 18, 73, 914, 757, 569, 154, 357, 250, 179, 493
77427169, 3041, -15065, -70, -5678, 2736, -1371, -2892, -138, 18, 73, 864, 723, 653, 165, 409, 285, 213, 540
77427984, 3041, -15065, -70, -5678, 2736, -1371, -2892, -138, 18, 73, 864, 723, 653, 165, 409, 285, 213, 540
77428916, 3032, -15071, -61, -5669, 2655, -1388, -2944, -50, -26, 44, 864, 723, 653, 165, 409, 285, 213, 540
77441484, 3032, -15071, -61, -5669, 2655, -1388, -2944, -50, -26, 44, 843, 613, 626, 170, 431, 288, 205, 495
77442360, 3032, -15071, -61, -5669, 2655, -1388, -2944, -50, -26, 44, 843, 613, 626, 170, 431, 288, 205, 495
77448467, 3030, -15076, -59, -5655, 2685, -1380, -2936, 1, -78, 39, 843, 613, 626, 170, 431, 288, 205, 495
77464000, 3030, -15076, -59, -5655, 2685, -1380, -2936, 1, -78, 39, 857, 540, 614, 136, 393, 257, 186, 479
77464799, 3030, -15076, -59, -5655, 2685, -1380, -2936, 1, -78, 39, 857, 540, 614, 136, 393, 257, 186, 479
77470956, 3025, -15077, -50, -5655, 2726, -1341, -2887, -17, -27, 74, 857, 540, 614, 136, 393, 257, 186, 479
77487204, 3025, -15077, -50, -5655, 2726, -1341, -2887, -17, -27, 74, 822, 531, 623, 135, 363, 244, 176, 457
77488025, 3025, -15077, -50, -5655, 2726, -1341, -2887, -17, -27, 74, 822, 531, 623, 135, 363, 244, 176, 457
77488950, 3008, -15075, -33, -5670, 2757, -1300, -2879, -80, 56, 97, 822, 531, 623, 135, 363, 244, 176, 457
77509679, 3008, -15075, -33, -5670, 2757, -1300, -2879, -80, 56, 97, 819, 505, 618, 129, 369, 256, 180, 437
77510486, 3008, -15075, -33, -5670, 2757, -1300, -2879, -80, 56, 97, 819, 505, 618, 129, 369, 256, 180, 437
77511419, 2984, -15073, -9, -5688, 2757, -1362, -2898, -155, 88, 85, 819, 505, 618, 129, 369, 256, 180, 437
77523996, 2984, -15073, -9, -5688, 2757, -1362, -2898, -155, 88, 85, 786, 500, 506, 118, 356, 218, 154, 370
77524820, 2984, -15073, -9, -5688, 2757, -1362, -2898, -155, 88, 85, 786, 500, 506, 118, 356, 218, 154, 370
77530972, 2972, -15075, 6, -5690, 2694, -1424, -2964, -90, 39, 52, 786, 500, 506, 118, 356, 218, 154, 370
77547150, 2972, -15075, 6, -5690, 2694, -1424, -2964, -90, 39, 52, 738, 561, 472, 112, 389, 233, 160, 376
77547975, 2972, -15075, 6, -5690, 2694, -1424, -2964, -90, 39, 52, 738, 561, 472, 112, 389, 233, 160, 376
77548901, 2977, -15077, 11, -5680, 2664, -1413, -2948, 20, -33, 36, 738, 561, 472, 112, 389, 233, 160, 376
77569671, 2977, -15077, 11, -5680, 2664, -1413, -2948, 20, -33, 36, 664, 594, 494, 123, 457, 264, 194, 434
77570493, 2977, -15077, 11, -5680, 2664, -1413, -2948, 20, -33, 36, 664, 594, 494, 123, 457, 264, 194, 434
77571466, 2979, -15079, 9, -5675, 2674, -1320, -2921, 47, -31, 32, 664, 594, 494, 123, 457, 264, 194, 434
77584010, 2979, -15079, 9, -5675, 2674, -1320, -2921, 47, -31, 32, 636, 592, 431, 121, 487, 258, 201, 385
77584766, 2979, -15079, 9, -5675, 2674, -1320, -2921, 47, -31, 32, 636, 592, 431, 121, 487, 258, 201, 385
77590937, 2966, -15079, 14, -5681, 2714, -1297, -2897, -42, 16, 37, 636, 592, 431, 121, 487, 258, 201, 385
77607164, 2966, -15079, 14, -5681, 2714, -1297, -2897, -42, 16, 37, 583, 570, 369, 118, 489, 267, 191, 392
77607976, 2966, -15079, 14, -5681, 2714, -1297, -2897, -42, 16, 37, 583, 570, 369, 118, 489, 267, 191, 392
77608928, 2945, -15078, 22, -5694, 2738, -1328, -2921, -95, 54, 24, 583, 570, 369, 118, 489, 267, 191, 392
77629709, 2945, -15078, 22, -5694, 2738, -1328, -2921, -95, 54, 24, 550, 574, 354, 111, 469, 277, 171, 359
77630509, 2945, -15078, 22, -5694, 2738, -1328, -2921, -95, 54, 24, 550, 574, 354, 111, 469, 277, 171, 359
77631460, 2933, -15080, 25, -5697, 2704, -1385, -2954, -63, 21, -10, 550, 574, 354, 111, 469, 277, 171, 359
77643982, 2933, -15080, 25, -5697, 2704, -1385, -2954, -63, 21, -10, 485, 479, 322, 99, 419, 257, 163, 322
77644799, 2933, -15080, 25, -5697, 2704, -1385, -2954, -63, 21, -10, 485, 479, 322, 99, 419, 257, 163, 322
77650930, 2922, -15085, 12, -5689, 2754, -1348, -2979, -11, -67, -52, 485, 479, 322, 99, 419, 257, 163, 322
77667182, 2922, -15085, 12, -5689, 2754, -1348, -2979, -11, -67, -52, 422, 468, 295, 86, 339, 231, 133, 232
77668008, 2922, -15085, 12, -5689, 2754, -1348, -2979, -11, -67, -52, 422, 468, 295, 86, 339, 231, 133, 232
77668937, 2906, -15092, -3, -5679, 2708, -1288, -2956, -22, -83, -66, 422, 468, 295, 86, 339, 231, 133, 232
77689654, 2906, -15092, -3, -5679, 2708, -1288, -2956, -22, -83, -66, 413, 468, 301, 70, 274, 243, 122, 229
77690476, 2906, -15092, -3, -5679, 2708, -1288, -2956, -22, -83, -66, 413, 468, 301, 70, 274, 243, 122, 229
77691396, 2881, -15098, -14, -5674, 2698, -1266, -2960, -75, -44, -63, 413, 468, 301, 70, 274, 243, 122, 229
77703378, 2881, -15098, -14, -5674, 2698, -1266, -2960, -75, -44, -63, 378, 434, 282, 57, 241, 259, 119, 187
77711486, 2881, -15098, -14, -5674, 2698, -1266, -2960, -75, -44, -63, 378, 434, 282, 57, 241, 259, 119, 187
77712425, 2838, -15103, -20, -5684, 2784, -1265, -2937, -182, -6, -79, 378, 434, 282, 57, 241, 259, 119, 187
77727204, 2838, -15103, -20, -5684, 2784, -1265, -2937, -182, -6, -79, 358, 366, 251, 54, 265, 350, 125, 192
77728078, 2838, -15103, -20, -5684, 2784, -1265, -2937, -182, -6, -79, 358, 366, 251, 54, 265, 350, 125, 192
77728952, 2794, -15105, -43, -5699, 2839, -1285, -2971, -168, 3, -185, 358, 366, 251, 54, 265, 350, 125, 192
77750150, 2794, -15105, -43, -5699, 2839, -1285, -2971, -168, 3, -185, 302, 352, 236, 54, 319, 369, 116, 183
77750953, 2794, -15105, -43, -5699, 2839, -1285, -2971, -168, 3, -185, 302, 352, 236, 54, 319, 369, 116, 183
77751899, 2749, -15106, -99, -5718, 2803, -1233, -2944, -109, 11, -360, 302, 352, 236, 54, 319, 369, 116, 183
77772199, 2749, -15106, -99, -5718, 2803, -1233, -2944, -109, 11, -360, 210, 218, 169, 48, 350, 388, 86, 147
77773021, 2749, -15106, -99, -5718, 2803, -1233, -2944, -109, 11, -360, 210, 218, 169, 48, 350, 388, 86, 147
77773962, 2721, -15105, -175, -5731, 2699, -1290, -2963, -5, 12, -475, 210, 218, 169, 48, 350, 388, 86, 147
77786515, 2721, -15105, -175, -5731, 2699, -1290, -2963, -5, 12, -475, 151, 156, 140, 46, 367, 476, 92, 144
77787307, 2721, -15105, -175, -5731, 2699, -1290, -2963, -5, 12, -475, 151, 156, 140, 46, 367, 476, 92, 144
77793445, 2690, -15105, -259, -5744, 2736, -1226, -2948, 7, -13, -509, 151, 156, 140, 46, 367, 476, 92, 144
77817170, 2690, -15105, -259, -5744, 2736, -1226, -2948, 7, -13, -509, 130, 136, 154, 57, 436, 524, 126, 144
77817982, 2690, -15105, -259, -5744, 2736, -1226, -2948, 7, -13, -509, 130, 136, 154, 57, 436, 524, 126, 144
77818939, 2642, -15105, -345, -5761, 2776, -1178, -2909, -84, -17, -543, 130, 136, 154, 57, 436, 524, 126, 144
77832160, 2642, -15105, -345, -5761, 2776, -1178, -2909, -84, -17, -543, 107, 107, 165, 77, 465, 519, 160, 124
77832982, 2642, -15105, -345, -5761, 2776, -1178, -2909, -84, -17, -543, 107, 107, 165, 77, 465, 519, 160, 124
77833910, 2585, -15100, -449, -5792, 2848, -1170, -2830, -117, -3, -679, 107, 107, 165, 77, 465, 519, 160, 124
77846489, 2585, -15100, -449, -5792, 2848, -1170, -2830, -117, -3, -679, 108, 105, 186, 89, 489, 574, 190, 145
77847304, 2585, -15100, -449, -5792, 2848, -1170, -2830, -117, -3, -679, 108, 105, 186, 89, 489, 574, 190, 145
77853460, 2532, -15084, -587, -5845, 2749, -1172, -2915, -31, 194, -905, 108, 105, 186, 89, 489, 574, 190, 145
77877182, 2532, -15084, -587, -5845, 2749, -1172, -2915, -31, 194, -905, 154, 89, 215, 103, 487, 617, 208, 183
77878058, 2532, -15084, -587, -5845, 2749, -1172, -2915, -31, 194, -905, 154, 89, 215, 103, 487, 617, 208, 183
77878934, 2522, -15064, -690, -5891, 2569, -1421, -3119, 54, 362, -770, 154, 89, 215, 103, 487, 617, 208, 183
77892174, 2522, -15064, -690, -5891, 2569, -1421, -3119, 54, 362, -770, 215, 77, 207, 104, 483, 557, 212, 202
77892968, 2522, -15064, -690, -5891, 2569, -1421, -3119, 54, 362, -770, 215, 77, 207, 104, 483, 557, 212, 202
77893924, 2628, -15034, -711, -5918, 2705, -1730, -3088, 393, 340, -185, 215, 77, 207, 104, 483, 557, 212, 202
77906500, 2628, -15034, -711, -5918, 2705, -1730, -3088, 393, 340, -185, 227, 73, 197, 114, 478, 514, 203, 202
77907369, 2628, -15034, -711, -5918, 2705, -1730, -3088, 393, 340, -185, 227, 73, 197, 114, 478, 514, 203, 202
77913455, 2706, -15039, -695, -5872, 2708, -1314, -3298, 368, -16, 203, 227, 73, 197, 114, 478, 514, 203, 202
77944749, 2706, -15039, -695, -5872, 2708, -1314, -3298, 368, -16, 203, 228, 61, 183, 105, 458, 483, 179, 200
77945476, 2706, -15039, -695, -5872, 2708, -1314, -3298, 368, -16, 203, 228, 61, 183, 105, 458, 483, 179, 200
77946424, 2627, -15078, -659, -5812, 2752, -1099, -3002, -480, -325, 90, 228, 61, 183, 105, 458, 483, 179, 200
77953552, 2627, -15078, -659, -5812, 2752, -1099, -3002, -480, -325, 90, 231, 54, 162, 101, 425, 431, 149, 187
77954371, 2627, -15078, -659, -5812, 2752, -1099, -3002, -480, -325, 90, 231, 54, 162, 101, 425, 431, 149, 187
77955183, 2627, -15078, -659, -5812, 2752, -1099, -3002, -480, -325, 90, 231, 54, 162, 101, 425, 431, 149, 187
77956003, 2627, -15078, -659, -5812, 2752, -1099, -3002, -480, -325, 90, 231, 54, 162, 101, 425, 431, 149, 187
77961005, 2627, -15078, -659, -5812, 2752, -1099, -3002, -480, -325, 90, 231, 54, 162, 101, 425, 431, 149, 187
77961826, 2627, -15078, -659, -5812, 2752, -1099, -3002, -480, -325, 90, 231, 54, 162, 101, 425, 431, 149, 187
77962622, 2627, -15078, -659, -5812, 2752, -1099, -3002, -480, -325, 90, 231, 54, 162, 101, 425, 431, 149, 187
77963444, 2627, -15078, -659, -5812, 2752, -1099, -3002, -480, -325, 90, 231, 54, 162, 101, 425, 431, 149, 187
77968628, 2545, -15097, -644, -5801, 2870, -1248, -2818, -547, -180, -118, 231, 54, 162, 101, 425, 431, 149, 187
77969446, 2545, -15097, -644, -5801, 2870, -1248, -2818, -547, -180, -118, 216, 52, 128, 90, 412, 356, 129, 164
77970269, 2545, -15097, -644, -5801, 2870, -1248, -2818, -547, -180, -118, 216, 52, 128, 90, 412, 356, 129, 164
77971068, 2545, -15097, -644, -5801, 2870, -1248, -2818, -547, -180, -118, 216, 52, 128, 90, 412, 356, 129, 164
77975968, 2545, -15097, -644, -5801, 2870, -1248, -2818, -547, -180, -118, 216, 52, 128, 90, 412, 356, 129, 164
77976773, 2545, -15097, -644, -5801, 2870, -1248, -2818, -547, -180, -118, 216, 52, 128, 90, 412, 356, 129, 164
77977587, 2545, -15097, -644, -5801, 2870, -1248, -2818, -547, -180, -118, 216, 52, 128, 90, 412, 356, 129, 164
77978424, 2545, -15097, -644, -5801, 2870, -1248, -2818, -547, -180, -118, 216, 52, 128, 90, 412, 356, 129, 164
77981507, 2545, -15097, -644, -5801, 2870, -1248, -2818, -547, -180, -118, 216, 52, 128, 90, 412, 356, 129, 164
77982463, 2515, -15101, -635, -5804, 2860, -1383, -2835, -316, -59, -121, 216, 52, 128, 90, 412, 356, 129, 164
77991071, 2515, -15101, -635, -5804, 2860, -1383, -2835, -316, -59, -121, 201, 56, 132, 91, 441, 329, 126, 131
77991848, 2515, -15101, -635, -5804, 2860, -1383, -2835, -316, -59, -121, 201, 56, 132, 91, 441, 329, 126, 131
77992681, 2515, -15101, -635, -5804, 2860, -1383, -2835, -316, -59, -121, 201, 56, 132, 91, 441, 329, 126, 131
77993508, 2515, -15101, -635, -5804, 2860, -1383, -2835, -316, -59, -121, 201, 56, 132, 91, 441, 329, 126, 131
77998522, 2515, -15101, -635, -5804, 2860, -1383, -2835, -316, -59, -121, 201, 56, 132, 91, 441, 329, 126, 131
77999372, 2515, -15101, -635, -5804, 2860, -1383, -2835, -316, -59, -121, 201, 56, 132, 91, 441, 329, 126, 131
78000067, 2515, -15101, -635, -5804, 2860, -1383, -2835, -316, -59, -121, 201, 56, 132, 91, 441, 329, 126, 131
78000944, 2515, -15101, -635, -5804, 2860, -1383, -2835, -316, -59, -121, 201, 56, 132, 91, 441, 329, 126, 131
78003464, 2565, -15092, -628, -5806, 2883, -1467, -2913, 97, -7, 6, 201, 56, 132, 91, 441, 329, 126, 131
78012162, 2565, -15092, -628, -5806, 2883, -1467, -2913, 97, -7, 6, 265, 60, 124, 90, 384, 299, 116, 132
78012981, 2565, -15092, -628, -5806, 2883, -1467, -2913, 97, -7, 6, 265, 60, 124, 90, 384, 299, 116, 132
78013899, 2629, -15086, -636, -5792, 2855, -1256, -3002, 315, -56, 56, 265, 60, 124, 90, 384, 299, 116, 132
78026476, 2629, -15086, -636, -5792, 2855, -1256, -3002, 315, -56, 56, 266, 63, 130, 89, 409, 278, 114, 128
78027374, 2629, -15086, -636, -5792, 2855, -1256, -3002, 315, -56, 56, 266, 63, 130, 89, 409, 278, 114, 128
78033448, 2639, -15092, -650, -5771, 2843, -1097, -3006, 102, -127, -11, 266, 63, 130, 89, 409, 278, 114, 128
78050155, 2639, -15092, -650, -5771, 2843, -1097, -3006, 102, -127, -11, 266, 59, 128, 85, 409, 252, 110, 131
78050973, 2639, -15092, -650, -5771, 2843, -1097, -3006, 102, -127, -11, 266, 59, 128, 85, 409, 252, 110, 131
78051896, 2601, -15102, -651, -5761, 2881, -1142, -2968, -210, -120, -59, 266, 59, 128, 85, 409, 252, 110, 131