Timestamp, Orientation x, Orientation y, Orientation z, Orientation w, Acceleration x, Acceleration y, Acceleration z, Rotation x, Rotation y, Rotation z, EMG 0, EMG 1, EMG 2, EMG 3, EMG 4, EMG 5, EMG 6, EMG 7
40721666, 1264, -13946, -1842, -8305, 3964, -165, -2316, -62, -29, 1, 0, 0, 0, 0, 0, 0, 0, 0
40722489, 1260, -13957, -1834, -8289, 3971, -175, -2296, -59, -31, -4, 0, 0, 0, 0, 0, 0, 0, 0
40736434, 1262, -13966, -1827, -8275, 3981, -193, -2273, -35, -36, -6, 0, 0, 0, 0, 0, 0, 0, 0
40758489, 1272, -13974, -1826, -8261, 3994, -180, -2242, 24, -56, 4, 0, 0, 0, 0, 0, 0, 0, 0
40780961, 1283, -13982, -1828, -8244, 4002, -137, -2189, 53, -102, 11, 0, 0, 0, 0, 0, 0, 0, 0
40789129, 1283, -13982, -1828, -8244, 4002, -137, -2189, 53, -102, 11, 61, 41, 60, 42, 58, 61, 134, 54
40789956, 1283, -13982, -1828, -8244, 4002, -137, -2189, 53, -102, 11, 61, 41, 60, 42, 58, 61, 134, 54
40796103, 1294, -13997, -1825, -8218, 3981, -163, -2160, 36, -182, 40, 61, 41, 60, 42, 58, 61, 134, 54
40811610, 1294, -13997, -1825, -8218, 3981, -163, -2160, 36, -182, 40, 52, 41, 50, 100, 57, 71, 109, 46
40812433, 1294, -13997, -1825, -8218, 3981, -163, -2160, 36, -182, 40, 52, 41, 50, 100, 57, 71, 109, 46
40818584, 1306, -14026, -1806, -8171, 4006, -218, -2208, -2, -313, 114, 52, 41, 50, 100, 57, 71, 109, 46
40842319, 1306, -14026, -1806, -8171, 4006, -218, -2208, -2, -313, 114, 46, 39, 49, 103, 52, 72, 93, 46
40843138, 1306, -14026, -1806, -8171, 4006, -218, -2208, -2, -313, 114, 46, 39, 49, 103, 52, 72, 93, 46
40844070, 1338, -14070, -1790, -8094, 4022, -233, -2243, 108, -499, 185, 46, 39, 49, 103, 52, 72, 93, 46
40851178, 1338, -14070, -1790, -8094, 4022, -233, -2243, 108, -499, 185, 50, 38, 59, 197, 47, 101, 98, 50
40852176, 1338, -14070, -1790, -8094, 4022, -233, -2243, 108, -499, 185, 50, 38, 59, 197, 47, 101, 98, 50
40852816, 1338, -14070, -1790, -8094, 4022, -233, -2243, 108, -499, 185, 50, 38, 59, 197, 47, 101, 98, 50
40853621, 1338, -14070, -1790, -8094, 4022, -233, -2243, 108, -499, 185, 50, 38, 59, 197, 47, 101, 98, 50
40858676, 1338, -14070, -1790, -8094, 4022, -233, -2243, 108, -499, 185, 50, 38, 59, 197, 47, 101, 98, 50
40859486, 1338, -14070, -1790, -8094, 4022, -233, -2243, 108, -499, 185, 50, 38, 59, 197, 47, 101, 98, 50
40860279, 1338, -14070, -1790, -8094, 4022, -233, -2243, 108, -499, 185, 50, 38, 59, 197, 47, 101, 98, 50
40861077, 1338, -14070, -1790, -8094, 4022, -233, -2243, 108, -499, 185, 50, 38, 59, 197, 47, 101, 98, 50
40873709, 1385, -14126, -1771, -7991, 3987, -252, -2302, 190, -644, 270, 50, 38, 59, 197, 47, 101, 98, 50
40874541, 1385, -14126, -1771, -7991, 3987, -252, -2302, 190, -644, 270, 43, 88, 66, 259, 44, 109, 108, 74
40875413, 1385, -14126, -1771, -7991, 3987, -252, -2302, 190, -644, 270, 43, 88, 66, 259, 44, 109, 108, 74
40876102, 1385, -14126, -1771, -7991, 3987, -252, -2302, 190, -644, 270, 43, 88, 66, 259, 44, 109, 108, 74
40881123, 1385, -14126, -1771, -7991, 3987, -252, -2302, 190, -644, 270, 43, 88, 66, 259, 44, 109, 108, 74
40881918, 1385, -14126, -1771, -7991, 3987, -252, -2302, 190, -644, 270, 43, 88, 66, 259, 44, 109, 108, 74
40882734, 1385, -14126, -1771, -7991, 3987, -252, -2302, 190, -644, 270, 43, 88, 66, 259, 44, 109, 108, 74
40883551, 1385, -14126, -1771, -7991, 3987, -252, -2302, 190, -644, 270, 43, 88, 66, 259, 44, 109, 108, 74
40886631, 1385, -14126, -1771, -7991, 3987, -252, -2302, 190, -644, 270, 43, 88, 66, 259, 44, 109, 108, 74
40887578, 1463, -14193, -1745, -7863, 4025, -256, -2297, 345, -830, 436, 43, 88, 66, 259, 44, 109, 108, 74
40896193, 1463, -14193, -1745, -7863, 4025, -256, -2297, 345, -830, 436, 47, 106, 96, 289, 44, 127, 147, 121
40897005, 1463, -14193, -1745, -7863, 4025, -256, -2297, 345, -830, 436, 47, 106, 96, 289, 44, 127, 147, 121
40897813, 1463, -14193, -1745, -7863, 4025, -256, -2297, 345, -830, 436, 47, 106, 96, 289, 44, 127, 147, 121
40898634, 1463, -14193, -1745, -7863, 4025, -256, -2297, 345, -830, 436, 47, 106, 96, 289, 44, 127, 147, 121
40903633, 1463, -14193, -1745, -7863, 4025, -256, -2297, 345, -830, 436, 47, 106, 96, 289, 44, 127, 147, 121
40904493, 1463, -14193, -1745, -7863, 4025, -256, -2297, 345, -830, 436, 47, 106, 96, 289, 44, 127, 147, 121
40905261, 1463, -14193, -1745, -7863, 4025, -256, -2297, 345, -830, 436, 47, 106, 96, 289, 44, 127, 147, 121
40906084, 1463, -14193, -1745, -7863, 4025, -256, -2297, 345, -830, 436, 47, 106, 96, 289, 44, 127, 147, 121
40911227, 1529, -14281, -1679, -7705, 4063, -236, -2357, 210, -1054, 672, 47, 106, 96, 289, 44, 127, 147, 121
40912043, 1529, -14281, -1679, -7705, 4063, -236, -2357, 210, -1054, 672, 53, 158, 112, 295, 49, 130, 156, 140
40912844, 1529, -14281, -1679, -7705, 4063, -236, -2357, 210, -1054, 672, 53, 158, 112, 295, 49, 130, 156, 140
40913655, 1529, -14281, -1679, -7705, 4063, -236, -2357, 210, -1054, 672, 53, 158, 112, 295, 49, 130, 156, 140
40918617, 1529, -14281, -1679, -7705, 4063, -236, -2357, 210, -1054, 672, 53, 158, 112, 295, 49, 130, 156, 140
40919409, 1529, -14281, -1679, -7705, 4063, -236, -2357, 210, -1054, 672, 53, 158, 112, 295, 49, 130, 156, 140
40920248, 1529, -14281, -1679, -7705, 4063, -236, -2357, 210, -1054, 672, 53, 158, 112, 295, 49, 130, 156, 140
40921046, 1529, -14281, -1679, -7705, 4063, -236, -2357, 210, -1054, 672, 53, 158, 112, 295, 49, 130, 156, 140
40924138, 1529, -14281, -1679, -7705, 4063, -236, -2357, 210, -1054, 672, 53, 158, 112, 295, 49, 130, 156, 140
40925087, 1600, -14387, -1584, -7510, 4061, -330, -2417, 160, -1303, 848, 53, 158, 112, 295, 49, 130, 156, 140
40933685, 1600, -14387, -1584, -7510, 4061, -330, -2417, 160, -1303, 848, 90, 177, 118, 298, 49, 142, 194, 151
40934494, 1600, -14387, -1584, -7510, 4061, -330, -2417, 160, -1303, 848, 90, 177, 118, 298, 49, 142, 194, 151
40935304, 1600, -14387, -1584, -7510, 4061, -330, -2417, 160, -1303, 848, 90, 177, 118, 298, 49, 142, 194, 151
40936136, 1600, -14387, -1584, -7510, 4061, -330, -2417, 160, -1303, 848, 90, 177, 118, 298, 49, 142, 194, 151
40948602, 1600, -14387, -1584, -7510, 4061, -330, -2417, 160, -1303, 848, 90, 177, 118, 298, 49, 142, 194, 151
40949443, 1600, -14387, -1584, -7510, 4061, -330, -2417, 160, -1303, 848, 90, 177, 118, 298, 49, 142, 194, 151
40950259, 1600, -14387, -1584, -7510, 4061, -330, -2417, 160, -1303, 848, 90, 177, 118, 298, 49, 142, 194, 151
40951067, 1600, -14387, -1584, -7510, 4061, -330, -2417, 160, -1303, 848, 90, 177, 118, 298, 49, 142, 194, 151
40956266, 1679, -14530, -1450, -7240, 4052, -588, -2591, 102, -1623, 1078, 90, 177, 118, 298, 49, 142, 194, 151
40957058, 1679, -14530, -1450, -7240, 4052, -588, -2591, 102, -1623, 1078, 135, 204, 130, 254, 48, 131, 250, 176
40957884, 1679, -14530, -1450, -7240, 4052, -588, -2591, 102, -1623, 1078, 135, 204, 130, 254, 48, 131, 250, 176
40958690, 1679, -14530, -1450, -7240, 4052, -588, -2591, 102, -1623, 1078, 135, 204, 130, 254, 48, 131, 250, 176
40963588, 1679, -14530, -1450, -7240, 4052, -588, -2591, 102, -1623, 1078, 135, 204, 130, 254, 48, 131, 250, 176
40964408, 1679, -14530, -1450, -7240, 4052, -588, -2591, 102, -1623, 1078, 135, 204, 130, 254, 48, 131, 250, 176
40965222, 1679, -14530, -1450, -7240, 4052, -588, -2591, 102, -1623, 1078, 135, 204, 130, 254, 48, 131, 250, 176
40966035, 1679, -14530, -1450, -7240, 4052, -588, -2591, 102, -1623, 1078, 135, 204, 130, 254, 48, 131, 250, 176
40971109, 1679, -14530, -1450, -7240, 4052, -588, -2591, 102, -1623, 1078, 135, 204, 130, 254, 48, 131, 250, 176
40972036, 1809, -14692, -1309, -6901, 3958, -852, -2653, 353, -1992, 1275, 135, 204, 130, 254, 48, 131, 250, 176
40972860, 1809, -14692, -1309, -6901, 3958, -852, -2653, 353, -1992, 1275, 217, 295, 152, 201, 55, 125, 278, 214
40973663, 1809, -14692, -1309, -6901, 3958, -852, -2653, 353, -1992, 1275, 217, 295, 152, 201, 55, 125, 278, 214
40978659, 1809, -14692, -1309, -6901, 3958, -852, -2653, 353, -1992, 1275, 217, 295, 152, 201, 55, 125, 278, 214
40979487, 1809, -14692, -1309, -6901, 3958, -852, -2653, 353, -1992, 1275, 217, 295, 152, 201, 55, 125, 278, 214
40980299, 1809, -14692, -1309, -6901, 3958, -852, -2653, 353, -1992, 1275, 217, 295, 152, 201, 55, 125, 278, 214
40981108, 1809, -14692, -1309, -6901, 3958, -852, -2653, 353, -1992, 1275, 217, 295, 152, 201, 55, 125, 278, 214
40986104, 1809, -14692, -1309, -6901, 3958, -852, -2653, 353, -1992, 1275, 217, 295, 152, 201, 55, 125, 278, 214
40986943, 1809, -14692, -1309, -6901, 3958, -852, -2653, 353, -1992, 1275, 217, 295, 152, 201, 55, 125, 278, 214
40987756, 1809, -14692, -1309, -6901, 3958, -852, -2653, 353, -1992, 1275, 217, 295, 152, 201, 55, 125, 278, 214
40988553, 1809, -14692, -1309, -6901, 3958, -852, -2653, 353, -1992, 1275, 217, 295, 152, 201, 55, 125, 278, 214
40993636, 1809, -14692, -1309, -6901, 3958, -852, -2653, 353, -1992, 1275, 217, 295, 152, 201, 55, 125, 278, 214
40994562, 2016, -14855, -1181, -6506, 3879, -1028, -2843, 785, -2260, 1431, 217, 295, 152, 201, 55, 125, 278, 214
40995415, 2016, -14855, -1181, -6506, 3879, -1028, -2843, 785, -2260, 1431, 282, 400, 181, 158, 55, 111, 278, 208
40996194, 2016, -14855, -1181, -6506, 3879, -1028, -2843, 785, -2260, 1431, 282, 400, 181, 158, 55, 111, 278, 208
41001212, 2016, -14855, -1181, -6506, 3879, -1028, -2843, 785, -2260, 1431, 282, 400, 181, 158, 55, 111, 278, 208
41002009, 2016, -14855, -1181, -6506, 3879, -1028, -2843, 785, -2260, 1431, 282, 400, 181, 158, 55, 111, 278, 208
41002837, 2016, -14855, -1181, -6506, 3879, -1028, -2843, 785, -2260, 1431, 282, 400, 181, 158, 55, 111, 278, 208
41003658, 2016, -14855, -1181, -6506, 3879, -1028, -2843, 785, -2260, 1431, 282, 400, 181, 158, 55, 111, 278, 208
41008612, 2016, -14855, -1181, -6506, 3879, -1028, -2843, 785, -2260, 1431, 282, 400, 181, 158, 55, 111, 278, 208
41009408, 2016, -14855, -1181, -6506, 3879, -1028, -2843, 785, -2260, 1431, 282, 400, 181, 158, 55, 111, 278, 208
41010225, 2016, -14855, -1181, -6506, 3879, -1028, -2843, 785, -2260, 1431, 282, 400, 181, 158, 55, 111, 278, 208
41011035, 2016, -14855, -1181, -6506, 3879, -1028, -2843, 785, -2260, 1431, 282, 400, 181, 158, 55, 111, 278, 208
41016113, 2016, -14855, -1181, -6506, 3879, -1028, -2843, 785, -2260, 1431, 282, 400, 181, 158, 55, 111, 278, 208
41017067, 2252, -15016, -1053, -6066, 3785, -994, -2991, 967, -2477, 1551, 282, 400, 181, 158, 55, 111, 278, 208
41017864, 2252, -15016, -1053, -6066, 3785, -994, -2991, 967, -2477, 1551, 356, 465, 239, 124, 57, 142, 274, 203
41018689, 2252, -15016, -1053, -6066, 3785, -994, -2991, 967, -2477, 1551, 356, 465, 239, 124, 57, 142, 274, 203
41023687, 2252, -15016, -1053, -6066, 3785, -994, -2991, 967, -2477, 1551, 356, 465, 239, 124, 57, 142, 274, 203
41024515, 2252, -15016, -1053, -6066, 3785, -994, -2991, 967, -2477, 1551, 356, 465, 239, 124, 57, 142, 274, 203
41025326, 2252, -15016, -1053, -6066, 3785, -994, -2991, 967, -2477, 1551, 356, 465, 239, 124, 57, 142, 274, 203
41026134, 2252, -15016, -1053, -6066, 3785, -994, -2991, 967, -2477, 1551, 356, 465, 239, 124, 57, 142, 274, 203
41031069, 2252, -15016, -1053, -6066, 3785, -994, -2991, 967, -2477, 1551, 356, 465, 239, 124, 57, 142, 274, 203
41031883, 2252, -15016, -1053, -6066, 3785, -994, -2991, 967, -2477, 1551, 356, 465, 239, 124, 57, 142, 274, 203
41032711, 2252, -15016, -1053, -6066, 3785, -994, -2991, 967, -2477, 1551, 356, 465, 239, 124, 57, 142, 274, 203
41033534, 2252, -15016, -1053, -6066, 3785, -994, -2991, 967, -2477, 1551, 356, 465, 239, 124, 57, 142, 274, 203
41038638, 2252, -15016, -1053, -6066, 3785, -994, -2991, 967, -2477, 1551, 356, 465, 239, 124, 57, 142, 274, 203
41039591, 2492, -15171, -937, -5585, 3619, -967, -3053, 1054, -2700, 1553, 356, 465, 239, 124, 57, 142, 274, 203
41040411, 2492, -15171, -937, -5585, 3619, -967, -3053, 1054, -2700, 1553, 427, 536, 321, 116, 61, 140, 254, 219
41041236, 2492, -15171, -937, -5585, 3619, -967, -3053, 1054, -2700, 1553, 427, 536, 321, 116, 61, 140, 254, 219
41046244, 2492, -15171, -937, -5585, 3619, -967, -3053, 1054, -2700, 1553, 427, 536, 321, 116, 61, 140, 254, 219
41047042, 2492, -15171, -937, -5585, 3619, -967, -3053, 1054, -2700, 1553, 427, 536, 321, 116, 61, 140, 254, 219
41047863, 2492, -15171, -937, -5585, 3619, -967, -3053, 1054, -2700, 1553, 427, 536, 321, 116, 61, 140, 254, 219
41048667, 2492, -15171, -937, -5585, 3619, -967, -3053, 1054, -2700, 1553, 427, 536, 321, 116, 61, 140, 254, 219
41053622, 2492, -15171, -937, -5585, 3619, -967, -3053, 1054, -2700, 1553, 427, 536, 321, 116, 61, 140, 254, 219
41054436, 2492, -15171, -937, -5585, 3619, -967, -3053, 1054, -2700, 1553, 427, 536, 321, 116, 61, 140, 254, 219
41055248, 2492, -15171, -937, -5585, 3619, -967, -3053, 1054, -2700, 1553, 427, 536, 321, 116, 61, 140, 254, 219
41056047, 2492, -15171, -937, -5585, 3619, -967, -3053, 1054, -2700, 1553, 427, 536, 321, 116, 61, 140, 254, 219
41061145, 2492, -15171, -937, -5585, 3619, -967, -3053, 1054, -2700, 1553, 427, 536, 321, 116, 61, 140, 254, 219
41062067, 2726, -15316, -834, -5075, 3501, -900, -3175, 1086, -2859, 1522, 427, 536, 321, 116, 61, 140, 254, 219
41062896, 2726, -15316, -834, -5075, 3501, -900, -3175, 1086, -2859, 1522, 516, 587, 391, 106, 63, 149, 209, 242
41063713, 2726, -15316, -834, -5075, 3501, -900, -3175, 1086, -2859, 1522, 516, 587, 391, 106, 63, 149, 209, 242
41068712, 2726, -15316, -834, -5075, 3501, -900, -3175, 1086, -2859, 1522, 516, 587, 391, 106, 63, 149, 209, 242
41069510, 2726, -15316, -834, -5075, 3501, -900, -3175, 1086, -2859, 1522, 516, 587, 391, 106, 63, 149, 209, 242
41070411, 2726, -15316, -834, -5075, 3501, -900, -3175, 1086, -2859, 1522, 516, 587, 391, 106, 63, 149, 209, 242
41071105, 2726, -15316, -834, -5075, 3501, -900, -3175, 1086, -2859, 1522, 516, 587, 391, 106, 63, 149, 209, 242
41076106, 2726, -15316, -834, -5075, 3501, -900, -3175, 1086, -2859, 1522, 516, 587, 391, 106, 63, 149, 209, 242
41076909, 2726, -15316, -834, -5075, 3501, -900, -3175, 1086, -2859, 1522, 516, 587, 391, 106, 63, 149, 209, 242
41077733, 2726, -15316, -834, -5075, 3501, -900, -3175, 1086, -2859, 1522, 516, 587, 391, 106, 63, 149, 209, 242
41078531, 2726, -15316, -834, -5075, 3501, -900, -3175, 1086, -2859, 1522, 516, 587, 391, 106, 63, 149, 209, 242
41083619, 2726, -15316, -834, -5075, 3501, -900, -3175, 1086, -2859, 1522, 516, 587, 391, 106, 63, 149, 209, 242
41084537, 2955, -15439, -745, -4561, 3473, -897, -3166, 1115, -2892, 1459, 516, 587, 391, 106, 63, 149, 209, 242
41085397, 2955, -15439, -745, -4561, 3473, -897, -3166, 1115, -2892, 1459, 535, 565, 394, 85, 59, 155, 169, 207
41086195, 2955, -15439, -745, -4561, 3473, -897, -3166, 1115, -2892, 1459, 535, 565, 394, 85, 59, 155, 169, 207
41091175, 2955, -15439, -745, -4561, 3473, -897, -3166, 1115, -2892, 1459, 535, 565, 394, 85, 59, 155, 169, 207
41091963, 2955, -15439, -745, -4561, 3473, -897, -3166, 1115, -2892, 1459, 535, 565, 394, 85, 59, 155, 169, 207
41092804, 2955, -15439, -745, -4561, 3473, -897, -3166, 1115, -2892, 1459, 535, 565, 394, 85, 59, 155, 169, 207
41093623, 2955, -15439, -745, -4561, 3473, -897, -3166, 1115, -2892, 1459, 535, 565, 394, 85, 59, 155, 169, 207
41098600, 2955, -15439, -745, -4561, 3473, -897, -3166, 1115, -2892, 1459, 535, 565, 394, 85, 59, 155, 169, 207
41099403, 2955, -15439, -745, -4561, 3473, -897, -3166, 1115, -2892, 1459, 535, 565, 394, 85, 59, 155, 169, 207
41100191, 2955, -15439, -745, -4561, 3473, -897, -3166, 1115, -2892, 1459, 535, 565, 394, 85, 59, 155, 169, 207
41100999, 2955, -15439, -745, -4561, 3473, -897, -3166, 1115, -2892, 1459, 535, 565, 394, 85, 59, 155, 169, 207
41106141, 2955, -15439, -745, -4561, 3473, -897, -3166, 1115, -2892, 1459, 535, 565, 394, 85, 59, 155, 169, 207
41107092, 3170, -15540, -666, -4056, 3428, -773, -3250, 1105, -2848, 1398, 535, 565, 394, 85, 59, 155, 169, 207
41107894, 3170, -15540, -666, -4056, 3428, -773, -3250, 1105, -2848, 1398, 570, 541, 396, 95, 74, 157, 137, 204
41108709, 3170, -15540, -666, -4056, 3428, -773, -3250, 1105, -2848, 1398, 570, 541, 396, 95, 74, 157, 137, 204
41113707, 3170, -15540, -666, -4056, 3428, -773, -3250, 1105, -2848, 1398, 570, 541, 396, 95, 74, 157, 137, 204
41114534, 3170, -15540, -666, -4056, 3428, -773, -3250, 1105, -2848, 1398, 570, 541, 396, 95, 74, 157, 137, 204
41115408, 3170, -15540, -666, -4056, 3428, -773, -3250, 1105, -2848, 1398, 570, 541, 396, 95, 74, 157, 137, 204
41116163, 3170, -15540, -666, -4056, 3428, -773, -3250, 1105, -2848, 1398, 570, 541, 396, 95, 74, 157, 137, 204
41121100, 3170, -15540, -666, -4056, 3428, -773, -3250, 1105, -2848, 1398, 570, 541, 396, 95, 74, 157, 137, 204
41121919, 3170, -15540, -666, -4056, 3428, -773, -3250, 1105, -2848, 1398, 570, 541, 396, 95, 74, 157, 137, 204
41122732, 3170, -15540, -666, -4056, 3428, -773, -3250, 1105, -2848, 1398, 570, 541, 396, 95, 74, 157, 137, 204
41123552, 3170, -15540, -666, -4056, 3428, -773, -3250, 1105, -2848, 1398, 570, 541, 396, 95, 74, 157, 137, 204
41128628, 3170, -15540, -666, -4056, 3428, -773, -3250, 1105, -2848, 1398, 570, 541, 396, 95, 74, 157, 137, 204
41129561, 3348, -15627, -611, -3561, 3388, -881, -3194, 947, -2843, 1213, 570, 541, 396, 95, 74, 157, 137, 204
41130408, 3348, -15627, -611, -3561, 3388, -881, -3194, 947, -2843, 1213, 536, 485, 416, 113, 93, 129, 145, 202
41131192, 3348, -15627, -611, -3561, 3388, -881, -3194, 947, -2843, 1213, 536, 485, 416, 113, 93, 129, 145, 202
41136198, 3348, -15627, -611, -3561, 3388, -881, -3194, 947, -2843, 1213, 536, 485, 416, 113, 93, 129, 145, 202
41137013, 3348, -15627, -611, -3561, 3388, -881, -3194, 947, -2843, 1213, 536, 485, 416, 113, 93, 129, 145, 202
41137832, 3348, -15627, -611, -3561, 3388, -881, -3194, 947, -2843, 1213, 536, 485, 416, 113, 93, 129, 145, 202
41138637, 3348, -15627, -611, -3561, 3388, -881, -3194, 947, -2843, 1213, 536, 485, 416, 113, 93, 129, 145, 202
41143590, 3348, -15627, -611, -3561, 3388, -881, -3194, 947, -2843, 1213, 536, 485, 416, 113, 93, 129, 145, 202
41144408, 3348, -15627, -611, -3561, 3388, -881, -3194, 947, -2843, 1213, 536, 485, 416, 113, 93, 129, 145, 202
41145209, 3348, -15627, -611, -3561, 3388, -881, -3194, 947, -2843, 1213, 536, 485, 416, 113, 93, 129, 145, 202
41146027, 3348, -15627, -611, -3561, 3388, -881, -3194, 947, -2843, 1213, 536, 485, 416, 113, 93, 129, 145, 202
41151102, 3348, -15627, -611, -3561, 3388, -881, -3194, 947, -2843, 1213, 536, 485, 416, 113, 93, 129, 145, 202
41152048, 3510, -15691, -569, -3098, 3419, -870, -3124, 906, -2700, 1106, 536, 485, 416, 113, 93, 129, 145, 202
41152854, 3510, -15691, -569, -3098, 3419, -870, -3124, 906, -2700, 1106, 541, 412, 397, 133, 96, 141, 224, 191
41153650, 3510, -15691, -569, -3098, 3419, -870, -3124, 906, -2700, 1106, 541, 412, 397, 133, 96, 141, 224, 191
41158658, 3510, -15691, -569, -3098, 3419, -870, -3124, 906, -2700, 1106, 541, 412, 397, 133, 96, 141, 224, 191
41159478, 3510, -15691, -569, -3098, 3419, -870, -3124, 906, -2700, 1106, 541, 412, 397, 133, 96, 141, 224, 191
41160288, 3510, -15691, -569, -3098, 3419, -870, -3124, 906, -2700, 1106, 541, 412, 397, 133, 96, 141, 224, 191
41161101, 3510, -15691, -569, -3098, 3419, -870, -3124, 906, -2700, 1106, 541, 412, 397, 133, 96, 141, 224, 191
41166132, 3510, -15691, -569, -3098, 3419, -870, -3124, 906, -2700, 1106, 541, 412, 397, 133, 96, 141, 224, 191
41166930, 3510, -15691, -569, -3098, 3419, -870, -3124, 906, -2700, 1106, 541, 412, 397, 133, 96, 141, 224, 191
41167750, 3510, -15691, -569, -3098, 3419, -870, -3124, 906, -2700, 1106, 541, 412, 397, 133, 96, 141, 224, 191
41168557, 3510, -15691, -569, -3098, 3419, -870, -3124, 906, -2700, 1106, 541, 412, 397, 133, 96, 141, 224, 191
41173628, 3510, -15691, -569, -3098, 3419, -870, -3124, 906, -2700, 1106, 541, 412, 397, 133, 96, 141, 224, 191
41174559, 3666, -15732, -556, -2683, 3460, -973, -3042, 912, -2485, 894, 541, 412, 397, 133, 96, 141, 224, 191
41175410, 3666, -15732, -556, -2683, 3460, -973, -3042, 912, -2485, 894, 458, 363, 341, 140, 113, 132, 306, 145
41176214, 3666, -15732, -556, -2683, 3460, -973, -3042, 912, -2485, 894, 458, 363, 341, 140, 113, 132, 306, 145
41181203, 3666, -15732, -556, -2683, 3460, -973, -3042, 912, -2485, 894, 458, 363, 341, 140, 113, 132, 306, 145
41182030, 3666, -15732, -556, -2683, 3460, -973, -3042, 912, -2485, 894, 458, 363, 341, 140, 113, 132, 306, 145
41182833, 3666, -15732, -556, -2683, 3460, -973, -3042, 912, -2485, 894, 458, 363, 341, 140, 113, 132, 306, 145
41183654, 3666, -15732, -556, -2683, 3460, -973, -3042, 912, -2485, 894, 458, 363, 341, 140, 113, 132, 306, 145
41188606, 3666, -15732, -556, -2683, 3460, -973, -3042, 912, -2485, 894, 458, 363, 341, 140, 113, 132, 306, 145
41189402, 3666, -15732, -556, -2683, 3460, -973, -3042, 912, -2485, 894, 458, 363, 341, 140, 113, 132, 306, 145
41190235, 3666, -15732, -556, -2683, 3460, -973, -3042, 912, -2485, 894, 458, 363, 341, 140, 113, 132, 306, 145
41191034, 3666, -15732, -556, -2683, 3460, -973, -3042, 912, -2485, 894, 458, 363, 341, 140, 113, 132, 306, 145
41196103, 3666, -15732, -556, -2683, 3460, -973, -3042, 912, -2485, 894, 458, 363, 341, 140, 113, 132, 306, 145
41197055, 3821, -15761, -556, -2266, 3577, -1107, -2968, 876, -2237, 665, 458, 363, 341, 140, 113, 132, 306, 145
41197864, 3821, -15761, -556, -2266, 3577, -1107, -2968, 876, -2237, 665, 421, 427, 337, 148, 168, 130, 333, 149
41198680, 3821, -15761, -556, -2266, 3577, -1107, -2968, 876, -2237, 665, 421, 427, 337, 148, 168, 130, 333, 149
41203681, 3821, -15761, -556, -2266, 3577, -1107, -2968, 876, -2237, 665, 421, 427, 337, 148, 168, 130, 333, 149
41204503, 3821, -15761, -556, -2266, 3577, -1107, -2968, 876, -2237, 665, 421, 427, 337, 148, 168, 130, 333, 149
41205313, 3821, -15761, -556, -2266, 3577, -1107, -2968, 876, -2237, 665, 421, 427, 337, 148, 168, 130, 333, 149
41206131, 3821, -15761, -556, -2266, 3577, -1107, -2968, 876, -2237, 665, 421, 427, 337, 148, 168, 130, 333, 149
41211082, 3821, -15761, -556, -2266, 3577, -1107, -2968, 876, -2237, 665, 421, 427, 337, 148, 168, 130, 333, 149
41211884, 3821, -15761, -556, -2266, 3577, -1107, -2968, 876, -2237, 665, 421, 427, 337, 148, 168, 130, 333, 149
41212707, 3821, -15761, -556, -2266, 3577, -1107, -2968, 876, -2237, 665, 421, 427, 337, 148, 168, 130, 333, 149
41213534, 3821, -15761, -556, -2266, 3577, -1107, -2968, 876, -2237, 665, 421, 427, 337, 148, 168, 130, 333, 149
41218659, 3821, -15761, -556, -2266, 3577, -1107, -2968, 876, -2237, 665, 421, 427, 337, 148, 168, 130, 333, 149
41219584, 3975, -15769, -558, -1918, 3863, -1198, -2952, 888, -1856, 568, 421, 427, 337, 148, 168, 130, 333, 149
41220409, 3975, -15769, -558, -1918, 3863, -1198, -2952, 888, -1856, 568, 431, 510, 337, 143, 176, 167, 334, 146
41221213, 3975, -15769, -558, -1918, 3863, -1198, -2952, 888, -1856, 568, 431, 510, 337, 143, 176, 167, 334, 146
41226232, 3975, -15769, -558, -1918, 3863, -1198, -2952, 888, -1856, 568, 431, 510, 337, 143, 176, 167, 334, 146
41227029, 3975, -15769, -558, -1918, 3863, -1198, -2952, 888, -1856, 568, 431, 510, 337, 143, 176, 167, 334, 146
41227875, 3975, -15769, -558, -1918, 3863, -1198, -2952, 888, -1856, 568, 431, 510, 337, 143, 176, 167, 334, 146
41228683, 3975, -15769, -558, -1918, 3863, -1198, -2952, 888, -1856, 568, 431, 510, 337, 143, 176, 167, 334, 146
41233608, 3975, -15769, -558, -1918, 3863, -1198, -2952, 888, -1856, 568, 431, 510, 337, 143, 176, 167, 334, 146
41234430, 3975, -15769, -558, -1918, 3863, -1198, -2952, 888, -1856, 568, 431, 510, 337, 143, 176, 167, 334, 146
41235234, 3975, -15769, -558, -1918, 3863, -1198, -2952, 888, -1856, 568, 431, 510, 337, 143, 176, 167, 334, 146
41236054, 3975, -15769, -558, -1918, 3863, -1198, -2952, 888, -1856, 568, 431, 510, 337, 143, 176, 167, 334, 146
41241132, 3975, -15769, -558, -1918, 3863, -1198, -2952, 888, -1856, 568, 431, 510, 337, 143, 176, 167, 334, 146
41242056, 4136, -15757, -522, -1668, 4167, -1368, -2705, 903, -1260, 636, 431, 510, 337, 143, 176, 167, 334, 146
41242884, 4136, -15757, -522, -1668, 4167, -1368, -2705, 903, -1260, 636, 483, 573, 330, 130, 208, 255, 346, 156
41243703, 4136, -15757, -522, -1668, 4167, -1368, -2705, 903, -1260, 636, 483, 573, 330, 130, 208, 255, 346, 156
41248719, 4136, -15757, -522, -1668, 4167, -1368, -2705, 903, -1260, 636, 483, 573, 330, 130, 208, 255, 346, 156
41249502, 4136, -15757, -522, -1668, 4167, -1368, -2705, 903, -1260, 636, 483, 573, 330, 130, 208, 255, 346, 156
41250416, 4136, -15757, -522, -1668, 4167, -1368, -2705, 903, -1260, 636, 483, 573, 330, 130, 208, 255, 346, 156
41251106, 4136, -15757, -522, -1668, 4167, -1368, -2705, 903, -1260, 636, 483, 573, 330, 130, 208, 255, 346, 156
41256121, 4136, -15757, -522, -1668, 4167, -1368, -2705, 903, -1260, 636, 483, 573, 330, 130, 208, 255, 346, 156
41256907, 4136, -15757, -522, -1668, 4167, -1368, -2705, 903, -1260, 636, 483, 573, 330, 130, 208, 255, 346, 156
41257717, 4136, -15757, -522, -1668, 4167, -1368, -2705, 903, -1260, 636, 483, 573, 330, 130, 208, 255, 346, 156
41258610, 4136, -15757, -522, -1668, 4167, -1368, -2705, 903, -1260, 636, 483, 573, 330, 130, 208, 255, 346, 156
41263616, 4136, -15757, -522, -1668, 4167, -1368, -2705, 903, -1260, 636, 483, 573, 330, 130, 208, 255, 346, 156
41264538, 4362, -15712, -373, -1555, 4394, -1492, -2479, 1218, -328, 1080, 483, 573, 330, 130, 208, 255, 346, 156
41265414, 4362, -15712, -373, -1555, 4394, -1492, -2479, 1218, -328, 1080, 414, 610, 336, 127, 210, 325, 301, 148
41266174, 4362, -15712, -373, -1555, 4394, -1492, -2479, 1218, -328, 1080, 414, 610, 336, 127, 210, 325, 301, 148
41271189, 4362, -15712, -373, -1555, 4394, -1492, -2479, 1218, -328, 1080, 414, 610, 336, 127, 210, 325, 301, 148
41272014, 4362, -15712, -373, -1555, 4394, -1492, -2479, 1218, -328, 1080, 414, 610, 336, 127, 210, 325, 301, 148
41272811, 4362, -15712, -373, -1555, 4394, -1492, -2479, 1218, -328, 1080, 414, 610, 336, 127, 210, 325, 301, 148
41273637, 4362, -15712, -373, -1555, 4394, -1492, -2479, 1218, -328, 1080, 414, 610, 336, 127, 210, 325, 301, 148
41278566, 4362, -15712, -373, -1555, 4394, -1492, -2479, 1218, -328, 1080, 414, 610, 336, 127, 210, 325, 301, 148
41279412, 4362, -15712, -373, -1555, 4394, -1492, -2479, 1218, -328, 1080, 414, 610, 336, 127, 210, 325, 301, 148
41280203, 4362, -15712, -373, -1555, 4394, -1492, -2479, 1218, -328, 1080, 414, 610, 336, 127, 210, 325, 301, 148
41281005, 4362, -15712, -373, -1555, 4394, -1492, -2479, 1218, -328, 1080, 414, 610, 336, 127, 210, 325, 301, 148
41286132, 4362, -15712, -373, -1555, 4394, -1492, -2479, 1218, -328, 1080, 414, 610, 336, 127, 210, 325, 301, 148
41287087, 4666, -15616, 3, -1674, 4537, -986, -2531, 1557, 1287, 1987, 414, 610, 336, 127, 210, 325, 301, 148
41287903, 4666, -15616, 3, -1674, 4537, -986, -2531, 1557, 1287, 1987, 411, 595, 425, 131, 215, 581, 207, 155
41288698, 4666, -15616, 3, -1674, 4537, -986, -2531, 1557, 1287, 1987, 411, 595, 425, 131, 215, 581, 207, 155
41293714, 4666, -15616, 3, -1674, 4537, -986, -2531, 1557, 1287, 1987, 411, 595, 425, 131, 215, 581, 207, 155
41294540, 4666, -15616, 3, -1674, 4537, -986, -2531, 1557, 1287, 1987, 411, 595, 425, 131, 215, 581, 207, 155
41295407, 4666, -15616, 3, -1674, 4537, -986, -2531, 1557, 1287, 1987, 411, 595, 425, 131, 215, 581, 207, 155
41296157, 4666, -15616, 3, -1674, 4537, -986, -2531, 1557, 1287, 1987, 411, 595, 425, 131, 215, 581, 207, 155
41301103, 4666, -15616, 3, -1674, 4537, -986, -2531, 1557, 1287, 1987, 411, 595, 425, 131, 215, 581, 207, 155
41301932, 4666, -15616, 3, -1674, 4537, -986, -2531, 1557, 1287, 1987, 411, 595, 425, 131, 215, 581, 207, 155
41302727, 4666, -15616, 3, -1674, 4537, -986, -2531, 1557, 1287, 1987, 411, 595, 425, 131, 215, 581, 207, 155
41303548, 4666, -15616, 3, -1674, 4537, -986, -2531, 1557, 1287, 1987, 411, 595, 425, 131, 215, 581, 207, 155
41308627, 4666, -15616, 3, -1674, 4537, -986, -2531, 1557, 1287, 1987, 411, 595, 425, 131, 215, 581, 207, 155
41309560, 4832, -15503, 678, -2072, 4466, -309, -2347, 681, 3265, 3064, 411, 595, 425, 131, 215, 581, 207, 155
41310406, 4832, -15503, 678, -2072, 4466, -309, -2347, 681, 3265, 3064, 407, 553, 447, 138, 196, 757, 182, 159
41311195, 4832, -15503, 678, -2072, 4466, -309, -2347, 681, 3265, 3064, 407, 553, 447, 138, 196, 757, 182, 159
41316207, 4832, -15503, 678, -2072, 4466, -309, -2347, 681, 3265, 3064, 407, 553, 447, 138, 196, 757, 182, 159
41317008, 4832, -15503, 678, -2072, 4466, -309, -2347, 681, 3265, 3064, 407, 553, 447, 138, 196, 757, 182, 159
41317858, 4832, -15503, 678, -2072, 4466, -309, -2347, 681, 3265, 3064, 407, 553, 447, 138, 196, 757, 182, 159
41318640, 4832, -15503, 678, -2072, 4466, -309, -2347, 681, 3265, 3064, 407, 553, 447, 138, 196, 757, 182, 159
41323581, 4832, -15503, 678, -2072, 4466, -309, -2347, 681, 3265, 3064, 407, 553, 447, 138, 196, 757, 182, 159
41324404, 4832, -15503, 678, -2072, 4466, -309, -2347, 681, 3265, 3064, 407, 553, 447, 138, 196, 757, 182, 159
41325215, 4832, -15503, 678, -2072, 4466, -309, -2347, 681, 3265, 3064, 407, 553, 447, 138, 196, 757, 182, 159
41326027, 4832, -15503, 678, -2072, 4466, -309, -2347, 681, 3265, 3064, 407, 553, 447, 138, 196, 757, 182, 159
41331104, 4832, -15503, 678, -2072, 4466, -309, -2347, 681, 3265, 3064, 407, 553, 447, 138, 196, 757, 182, 159
41332033, 4823, -15314, 1648, -2818, 3749, 529, -3180, -248, 5703, 3953, 407, 553, 447, 138, 196, 757, 182, 159
41332857, 4823, -15314, 1648, -2818, 3749, 529, -3180, -248, 5703, 3953, 302, 453, 439, 143, 199, 855, 189, 166
41333656, 4823, -15314, 1648, -2818, 3749, 529, -3180, -248, 5703, 3953, 302, 453, 439, 143, 199, 855, 189, 166
41338684, 4823, -15314, 1648, -2818, 3749, 529, -3180, -248, 5703, 3953, 302, 453, 439, 143, 199, 855, 189, 166
41339484, 4823, -15314, 1648, -2818, 3749, 529, -3180, -248, 5703, 3953, 302, 453, 439, 143, 199, 855, 189, 166
41340314, 4823, -15314, 1648, -2818, 3749, 529, -3180, -248, 5703, 3953, 302, 453, 439, 143, 199, 855, 189, 166
41341135, 4823, -15314, 1648, -2818, 3749, 529, -3180, -248, 5703, 3953, 302, 453, 439, 143, 199, 855, 189, 166
41346082, 4823, -15314, 1648, -2818, 3749, 529, -3180, -248, 5703, 3953, 302, 453, 439, 143, 199, 855, 189, 166
41346884, 4823, -15314, 1648, -2818, 3749, 529, -3180, -248, 5703, 3953, 302, 453, 439, 143, 199, 855, 189, 166
41347702, 4823, -15314, 1648, -2818, 3749, 529, -3180, -248, 5703, 3953, 302, 453, 439, 143, 199, 855, 189, 166
41348507, 4823, -15314, 1648, -2818, 3749, 529, -3180, -248, 5703, 3953, 302, 453, 439, 143, 199, 855, 189, 166
41353629, 4823, -15314, 1648, -2818, 3749, 529, -3180, -248, 5703, 3953, 302, 453, 439, 143, 199, 855, 189, 166
41354584, 4509, -15004, 2942, -3789, 1931, 928, -3871, -1843, 7722, 5069, 302, 453, 439, 143, 199, 855, 189, 166
41355406, 4509, -15004, 2942, -3789, 1931, 928, -3871, -1843, 7722, 5069, 292, 445, 398, 144, 233, 946, 169, 171
41356208, 4509, -15004, 2942, -3789, 1931, 928, -3871, -1843, 7722, 5069, 292, 445, 398, 144, 233, 946, 169, 171
41361204, 4509, -15004, 2942, -3789, 1931, 928, -3871, -1843, 7722, 5069, 292, 445, 398, 144, 233, 946, 169, 171
41362028, 4509, -15004, 2942, -3789, 1931, 928, -3871, -1843, 7722, 5069, 292, 445, 398, 144, 233, 946, 169, 171
41362825, 4509, -15004, 2942, -3789, 1931, 928, -3871, -1843, 7722, 5069, 292, 445, 398, 144, 233, 946, 169, 171
41363651, 4509, -15004, 2942, -3789, 1931, 928, -3871, -1843, 7722, 5069, 292, 445, 398, 144, 233, 946, 169, 171
41368603, 4509, -15004, 2942, -3789, 1931, 928, -3871, -1843, 7722, 5069, 292, 445, 398, 144, 233, 946, 169, 171
41369427, 4509, -15004, 2942, -3789, 1931, 928, -3871, -1843, 7722, 5069, 292, 445, 398, 144, 233, 946, 169, 171
41370238, 4509, -15004, 2942, -3789, 1931, 928, -3871, -1843, 7722, 5069, 292, 445, 398, 144, 233, 946, 169, 171
41371049, 4509, -15004, 2942, -3789, 1931, 928, -3871, -1843, 7722, 5069, 292, 445, 398, 144, 233, 946, 169, 171
41376109, 4509, -15004, 2942, -3789, 1931, 928, -3871, -1843, 7722, 5069, 292, 445, 398, 144, 233, 946, 169, 171
41377057, 3963, -14476, 4492, -4797, -179, 853, -4101, -2998, 8849, 6260, 292, 445, 398, 144, 233, 946, 169, 171
41377877, 3963, -14476, 4492, -4797, -179, 853, -4101, -2998, 8849, 6260, 326, 413, 400, 146, 256, 988, 242, 180
41378678, 3963, -14476, 4492, -4797, -179, 853, -4101, -2998, 8849, 6260, 326, 413, 400, 146, 256, 988, 242, 180
41383684, 3963, -14476, 4492, -4797, -179, 853, -4101, -2998, 8849, 6260, 326, 413, 400, 146, 256, 988, 242, 180
41384508, 3963, -14476, 4492, -4797, -179, 853, -4101, -2998, 8849, 6260, 326, 413, 400, 146, 256, 988, 242, 180
41385315, 3963, -14476, 4492, -4797, -179, 853, -4101, -2998, 8849, 6260, 326, 413, 400, 146, 256, 988, 242, 180
41386131, 3963, -14476, 4492, -4797, -179, 853, -4101, -2998, 8849, 6260, 326, 413, 400, 146, 256, 988, 242, 180
41391086, 3963, -14476, 4492, -4797, -179, 853, -4101, -2998, 8849, 6260, 326, 413, 400, 146, 256, 988, 242, 180
41391899, 3963, -14476, 4492, -4797, -179, 853, -4101, -2998, 8849, 6260, 326, 413, 400, 146, 256, 988, 242, 180
41392702, 3963, -14476, 4492, -4797, -179, 853, -4101, -2998, 8849, 6260, 326, 413, 400, 146, 256, 988, 242, 180
41393527, 3963, -14476, 4492, -4797, -179, 853, -4101, -2998, 8849, 6260, 326, 413, 400, 146, 256, 988, 242, 180
41398582, 3963, -14476, 4492, -4797, -179, 853, -4101, -2998, 8849, 6260, 326, 413, 400, 146, 256, 988, 242, 180
41399532, 3312, -13610, 6126, -5891, -958, -554, -4352, -3071, 10134, 6921, 326, 413, 400, 146, 256, 988, 242, 180
41400403, 3312, -13610, 6126, -5891, -958, -554, -4352, -3071, 10134, 6921, 643, 542, 316, 164, 288, 960, 320, 277
41401165, 3312, -13610, 6126, -5891, -958, -554, -4352, -3071, 10134, 6921, 643, 542, 316, 164, 288, 960, 320, 277
41406181, 3312, -13610, 6126, -5891, -958, -554, -4352, -3071, 10134, 6921, 643, 542, 316, 164, 288, 960, 320, 277
41406983, 3312, -13610, 6126, -5891, -958, -554, -4352, -3071, 10134, 6921, 643, 542, 316, 164, 288, 960, 320, 277
41407824, 3312, -13610, 6126, -5891, -958, -554, -4352, -3071, 10134, 6921, 643, 542, 316, 164, 288, 960, 320, 277
41408605, 3312, -13610, 6126, -5891, -958, -554, -4352, -3071, 10134, 6921, 643, 542, 316, 164, 288, 960, 320, 277
41413634, 3312, -13610, 6126, -5891, -958, -554, -4352, -3071, 10134, 6921, 643, 542, 316, 164, 288, 960, 320, 277
41414434, 3312, -13610, 6126, -5891, -958, -554, -4352, -3071, 10134, 6921, 643, 542, 316, 164, 288, 960, 320, 277
41415243, 3312, -13610, 6126, -5891, -958, -554, -4352, -3071, 10134, 6921, 643, 542, 316, 164, 288, 960, 320, 277
41416059, 3312, -13610, 6126, -5891, -958, -554, -4352, -3071, 10134, 6921, 643, 542, 316, 164, 288, 960, 320, 277
41421131, 3312, -13610, 6126, -5891, -958, -554, -4352, -3071, 10134, 6921, 643, 542, 316, 164, 288, 960, 320, 277
41422081, 2370, -12484, 7825, -6763, 1428, -1162, -2641, -4632, 10390, 7477, 643, 542, 316, 164, 288, 960, 320, 277
41422884, 2370, -12484, 7825, -6763, 1428, -1162, -2641, -4632, 10390, 7477, 738, 598, 300, 255, 380, 893, 568, 638
41423708, 2370, -12484, 7825, -6763, 1428, -1162, -2641, -4632, 10390, 7477, 738, 598, 300, 255, 380, 893, 568, 638
41428705, 2370, -12484, 7825, -6763, 1428, -1162, -2641, -4632, 10390, 7477, 738, 598, 300, 255, 380, 893, 568, 638
41429531, 2370, -12484, 7825, -6763, 1428, -1162, -2641, -4632, 10390, 7477, 738, 598, 300, 255, 380, 893, 568, 638
41430402, 2370, -12484, 7825, -6763, 1428, -1162, -2641, -4632, 10390, 7477, 738, 598, 300, 255, 380, 893, 568, 638
41431091, 2370, -12484, 7825, -6763, 1428, -1162, -2641, -4632, 10390, 7477, 738, 598, 300, 255, 380, 893, 568, 638
41436102, 2370, -12484, 7825, -6763, 1428, -1162, -2641, -4632, 10390, 7477, 738, 598, 300, 255, 380, 893, 568, 638
41436905, 2370, -12484, 7825, -6763, 1428, -1162, -2641, -4632, 10390, 7477, 738, 598, 300, 255, 380, 893, 568, 638
41437732, 2370, -12484, 7825, -6763, 1428, -1162, -2641, -4632, 10390, 7477, 738, 598, 300, 255, 380, 893, 568, 638
41438530, 2370, -12484, 7825, -6763, 1428, -1162, -2641, -4632, 10390, 7477, 738, 598, 300, 255, 380, 893, 568, 638
41443609, 2370, -12484, 7825, -6763, 1428, -1162, -2641, -4632, 10390, 7477, 738, 598, 300, 255, 380, 893, 568, 638
41444554, 1265, -11305, 9459, -7040, 3861, -1917, -3471, -6859, 8261, 7415, 738, 598, 300, 255, 380, 893, 568, 638
41445407, 1265, -11305, 9459, -7040, 3861, -1917, -3471, -6859, 8261, 7415, 764, 687, 329, 268, 414, 910, 801, 934
41446186, 1265, -11305, 9459, -7040, 3861, -1917, -3471, -6859, 8261, 7415, 764, 687, 329, 268, 414, 910, 801, 934
41451180, 1265, -11305, 9459, -7040, 3861, -1917, -3471, -6859, 8261, 7415, 764, 687, 329, 268, 414, 910, 801, 934
41452006, 1265, -11305, 9459, -7040, 3861, -1917, -3471, -6859, 8261, 7415, 764, 687, 329, 268, 414, 910, 801, 934
41452840, 1265, -11305, 9459, -7040, 3861, -1917, -3471, -6859, 8261, 7415, 764, 687, 329, 268, 414, 910, 801, 934
41453645, 1265, -11305, 9459, -7040, 3861, -1917, -3471, -6859, 8261, 7415, 764, 687, 329, 268, 414, 910, 801, 934
41458587, 1265, -11305, 9459, -7040, 3861, -1917, -3471, -6859, 8261, 7415, 764, 687, 329, 268, 414, 910, 801, 934
41459408, 1265, -11305, 9459, -7040, 3861, -1917, -3471, -6859, 8261, 7415, 764, 687, 329, 268, 414, 910, 801, 934
41460218, 1265, -11305, 9459, -7040, 3861, -1917, -3471, -6859, 8261, 7415, 764, 687, 329, 268, 414, 910, 801, 934
41461033, 1265, -11305, 9459, -7040, 3861, -1917, -3471, -6859, 8261, 7415, 764, 687, 329, 268, 414, 910, 801, 934
41466166, 1265, -11305, 9459, -7040, 3861, -1917, -3471, -6859, 8261, 7415, 764, 687, 329, 268, 414, 910, 801, 934
41467092, 467, -10310, 10665, -6942, 4463, -6694, -1803, -5899, 5147, 6029, 764, 687, 329, 268, 414, 910, 801, 934
41467899, 467, -10310, 10665, -6942, 4463, -6694, -1803, -5899, 5147, 6029, 868, 697, 346, 271, 405, 865, 844, 945
41468712, 467, -10310, 10665, -6942, 4463, -6694, -1803, -5899, 5147, 6029, 868, 697, 346, 271, 405, 865, 844, 945
41473737, 467, -10310, 10665, -6942, 4463, -6694, -1803, -5899, 5147, 6029, 868, 697, 346, 271, 405, 865, 844, 945
41474540, 467, -10310, 10665, -6942, 4463, -6694, -1803, -5899, 5147, 6029, 868, 697, 346, 271, 405, 865, 844, 945
41475409, 467, -10310, 10665, -6942, 4463, -6694, -1803, -5899, 5147, 6029, 868, 697, 346, 271, 405, 865, 844, 945
41476143, 467, -10310, 10665, -6942, 4463, -6694, -1803, -5899, 5147, 6029, 868, 697, 346, 271, 405, 865, 844, 945
41481102, 467, -10310, 10665, -6942, 4463, -6694, -1803, -5899, 5147, 6029, 868, 697, 346, 271, 405, 865, 844, 945
41481942, 467, -10310, 10665, -6942, 4463, -6694, -1803, -5899, 5147, 6029, 868, 697, 346, 271, 405, 865, 844, 945
41482736, 467, -10310, 10665, -6942, 4463, -6694, -1803, -5899, 5147, 6029, 868, 697, 346, 271, 405, 865, 844, 945
41483558, 467, -10310, 10665, -6942, 4463, -6694, -1803, -5899, 5147, 6029, 868, 697, 346, 271, 405, 865, 844, 945
41488632, 467, -10310, 10665, -6942, 4463, -6694, -1803, -5899, 5147, 6029, 868, 697, 346, 271, 405, 865, 844, 945
41489559, 340, -9979, 10920, -7035, 3395, -5611, -1709, -657, 1612, 1786, 868, 697, 346, 271, 405, 865, 844, 945
41490403, 340, -9979, 10920, -7035, 3395, -5611, -1709, -657, 1612, 1786, 961, 700, 321, 262, 558, 795, 845, 987
41491186, 340, -9979, 10920, -7035, 3395, -5611, -1709, -657, 1612, 1786, 961, 700, 321, 262, 558, 795, 845, 987
41496226, 340, -9979, 10920, -7035, 3395, -5611, -1709, -657, 1612, 1786, 961, 700, 321, 262, 558, 795, 845, 987
41497006, 340, -9979, 10920, -7035, 3395, -5611, -1709, -657, 1612, 1786, 961, 700, 321, 262, 558, 795, 845, 987
41497832, 340, -9979, 10920, -7035, 3395, -5611, -1709, -657, 1612, 1786, 961, 700, 321, 262, 558, 795, 845, 987
41498626, 340, -9979, 10920, -7035, 3395, -5611, -1709, -657, 1612, 1786, 961, 700, 321, 262, 558, 795, 845, 987
41503583, 340, -9979, 10920, -7035, 3395, -5611, -1709, -657, 1612, 1786, 961, 700, 321, 262, 558, 795, 845, 987
41504402, 340, -9979, 10920, -7035, 3395, -5611, -1709, -657, 1612, 1786, 961, 700, 321, 262, 558, 795, 845, 987
41505215, 340, -9979, 10920, -7035, 3395, -5611, -1709, -657, 1612, 1786, 961, 700, 321, 262, 558, 795, 845, 987
41506032, 340, -9979, 10920, -7035, 3395, -5611, -1709, -657, 1612, 1786, 961, 700, 321, 262, 558, 795, 845, 987
41511117, 340, -9979, 10920, -7035, 3395, -5611, -1709, -657, 1612, 1786, 961, 700, 321, 262, 558, 795, 845, 987
41512032, 635, -10083, 10470, -7532, 2757, -2482, -2689, 3967, 262, -1208, 961, 700, 321, 262, 558, 795, 845, 987
41512910, 635, -10083, 10470, -7532, 2757, -2482, -2689, 3967, 262, -1208, 819, 612, 318, 261, 623, 745, 831, 971
41513678, 635, -10083, 10470, -7532, 2757, -2482, -2689, 3967, 262, -1208, 819, 612, 318, 261, 623, 745, 831, 971
41518683, 635, -10083, 10470, -7532, 2757, -2482, -2689, 3967, 262, -1208, 819, 612, 318, 261, 623, 745, 831, 971
41519477, 635, -10083, 10470, -7532, 2757, -2482, -2689, 3967, 262, -1208, 819, 612, 318, 261, 623, 745, 831, 971
41520292, 635, -10083, 10470, -7532, 2757, -2482, -2689, 3967, 262, -1208, 819, 612, 318, 261, 623, 745, 831, 971
41521131, 635, -10083, 10470, -7532, 2757, -2482, -2689, 3967, 262, -1208, 819, 612, 318, 261, 623, 745, 831, 971
41526074, 635, -10083, 10470, -7532, 2757, -2482, -2689, 3967, 262, -1208, 819, 612, 318, 261, 623, 745, 831, 971
41526879, 635, -10083, 10470, -7532, 2757, -2482, -2689, 3967, 262, -1208, 819, 612, 318, 261, 623, 745, 831, 971
41527698, 635, -10083, 10470, -7532, 2757, -2482, -2689, 3967, 262, -1208, 819, 612, 318, 261, 623, 745, 831, 971
41528507, 635, -10083, 10470, -7532, 2757, -2482, -2689, 3967, 262, -1208, 819, 612, 318, 261, 623, 745, 831, 971
41532964, 635, -10083, 10470, -7532, 2757, -2482, -2689, 3967, 262, -1208, 819, 612, 318, 261, 623, 745, 831, 971
41533914, 1203, -10219, 9853, -8092, 2269, 911, -5455, 5525, -588, -1274, 819, 612, 318, 261, 623, 745, 831, 971
41548710, 1203, -10219, 9853, -8092, 2269, 911, -5455, 5525, -588, -1274, 760, 546, 301, 185, 662, 669, 696, 786
41549533, 1203, -10219, 9853, -8092, 2269, 911, -5455, 5525, -588, -1274, 760, 546, 301, 185, 662, 669, 696, 786
41550408, 1203, -10219, 9853, -8092, 2269, 911, -5455, 5525, -588, -1274, 760, 546, 301, 185, 662, 669, 696, 786
41551104, 1203, -10219, 9853, -8092, 2269, 911, -5455, 5525, -588, -1274, 760, 546, 301, 185, 662, 669, 696, 786
41556113, 1203, -10219, 9853, -8092, 2269, 911, -5455, 5525, -588, -1274, 760, 546, 301, 185, 662, 669, 696, 786
41556910, 1203, -10219, 9853, -8092, 2269, 911, -5455, 5525, -588, -1274, 760, 546, 301, 185, 662, 669, 696, 786
41557735, 1203, -10219, 9853, -8092, 2269, 911, -5455, 5525, -588, -1274, 760, 546, 301, 185, 662, 669, 696, 786
41558541, 1203, -10219, 9853, -8092, 2269, 911, -5455, 5525, -588, -1274, 760, 546, 301, 185, 662, 669, 696, 786
41563608, 1203, -10219, 9853, -8092, 2269, 911, -5455, 5525, -588, -1274, 760, 546, 301, 185, 662, 669, 696, 786
41564560, 1579, -10272, 9532, -8341, 3145, 3010, -5526, 3016, -678, -362, 760, 546, 301, 185, 662, 669, 696, 786
41565407, 1579, -10272, 9532, -8341, 3145, 3010, -5526, 3016, -678, -362, 847, 426, 262, 162, 658, 507, 424, 436
41566165, 1579, -10272, 9532, -8341, 3145, 3010, -5526, 3016, -678, -362, 847, 426, 262, 162, 658, 507, 424, 436
41571177, 1579, -10272, 9532, -8341, 3145, 3010, -5526, 3016, -678, -362, 847, 426, 262, 162, 658, 507, 424, 436
41572007, 1579, -10272, 9532, -8341, 3145, 3010, -5526, 3016, -678, -362, 847, 426, 262, 162, 658, 507, 424, 436
41572807, 1579, -10272, 9532, -8341, 3145, 3010, -5526, 3016, -678, -362, 847, 426, 262, 162, 658, 507, 424, 436
41573629, 1579, -10272, 9532, -8341, 3145, 3010, -5526, 3016, -678, -362, 847, 426, 262, 162, 658, 507, 424, 436
41578578, 1579, -10272, 9532, -8341, 3145, 3010, -5526, 3016, -678, -362, 847, 426, 262, 162, 658, 507, 424, 436
41579410, 1579, -10272, 9532, -8341, 3145, 3010, -5526, 3016, -678, -362, 847, 426, 262, 162, 658, 507, 424, 436
41580212, 1579, -10272, 9532, -8341, 3145, 3010, -5526, 3016, -678, -362, 847, 426, 262, 162, 658, 507, 424, 436
41581031, 1579, -10272, 9532, -8341, 3145, 3010, -5526, 3016, -678, -362, 847, 426, 262, 162, 658, 507, 424, 436
41586158, 1579, -10272, 9532, -8341, 3145, 3010, -5526, 3016, -678, -362, 847, 426, 262, 162, 658, 507, 424, 436
41587086, 1573, -10210, 9665, -8264, 2550, 1518, -4568, -617, 0, 690, 847, 426, 262, 162, 658, 507, 424, 436
41587905, 1573, -10210, 9665, -8264, 2550, 1518, -4568, -617, 0, 690, 738, 437, 236, 153, 647, 379, 335, 413
41588704, 1573, -10210, 9665, -8264, 2550, 1518, -4568, -617, 0, 690, 738, 437, 236, 153, 647, 379, 335, 413
41593734, 1573, -10210, 9665, -8264, 2550, 1518, -4568, -617, 0, 690, 738, 437, 236, 153, 647, 379, 335, 413
41594533, 1573, -10210, 9665, -8264, 2550, 1518, -4568, -617, 0, 690, 738, 437, 236, 153, 647, 379, 335, 413
41595403, 1573, -10210, 9665, -8264, 2550, 1518, -4568, -617, 0, 690, 738, 437, 236, 153, 647, 379, 335, 413
41596169, 1573, -10210, 9665, -8264, 2550, 1518, -4568, -617, 0, 690, 738, 437, 236, 153, 647, 379, 335, 413
41608602, 1573, -10210, 9665, -8264, 2550, 1518, -4568, -617, 0, 690, 738, 437, 236, 153, 647, 379, 335, 413
41609403, 1573, -10210, 9665, -8264, 2550, 1518, -4568, -617, 0, 690, 738, 437, 236, 153, 647, 379, 335, 413
41610235, 1573, -10210, 9665, -8264, 2550, 1518, -4568, -617, 0, 690, 738, 437, 236, 153, 647, 379, 335, 413
41611054, 1573, -10210, 9665, -8264, 2550, 1518, -4568, -617, 0, 690, 738, 437, 236, 153, 647, 379, 335, 413
41616107, 1573, -10210, 9665, -8264, 2550, 1518, -4568, -617, 0, 690, 738, 437, 236, 153, 647, 379, 335, 413
41617056, 1331, -10143, 9975, -8019, 2147, -844, -3120, -2254, 372, 893, 738, 437, 236, 153, 647, 379, 335, 413
41617853, 1331, -10143, 9975, -8019, 2147, -844, -3120, -2254, 372, 893, 602, 418, 188, 152, 509, 393, 286, 294
41618682, 1331, -10143, 9975, -8019, 2147, -844, -3120, -2254, 372, 893, 602, 418, 188, 152, 509, 393, 286, 294
41623683, 1331, -10143, 9975, -8019, 2147, -844, -3120, -2254, 372, 893, 602, 418, 188, 152, 509, 393, 286, 294
41624509, 1331, -10143, 9975, -8019, 2147, -844, -3120, -2254, 372, 893, 602, 418, 188, 152, 509, 393, 286, 294
41625312, 1331, -10143, 9975, -8019, 2147, -844, -3120, -2254, 372, 893, 602, 418, 188, 152, 509, 393, 286, 294
41626132, 1331, -10143, 9975, -8019, 2147, -844, -3120, -2254, 372, 893, 602, 418, 188, 152, 509, 393, 286, 294
41631084, 1331, -10143, 9975, -8019, 2147, -844, -3120, -2254, 372, 893, 602, 418, 188, 152, 509, 393, 286, 294
41631883, 1331, -10143, 9975, -8019, 2147, -844, -3120, -2254, 372, 893, 602, 418, 188, 152, 509, 393, 286, 294
41632719, 1331, -10143, 9975, -8019, 2147, -844, -3120, -2254, 372, 893, 602, 418, 188, 152, 509, 393, 286, 294
41633529, 1331, -10143, 9975, -8019, 2147, -844, -3120, -2254, 372, 893, 602, 418, 188, 152, 509, 393, 286, 294
41638586, 1331, -10143, 9975, -8019, 2147, -844, -3120, -2254, 372, 893, 602, 418, 188, 152, 509, 393, 286, 294
41639535, 1147, -10070, 10178, -7882, 1935, -2469, -2135, -1606, 452, 518, 602, 418, 188, 152, 509, 393, 286, 294
41640406, 1147, -10070, 10178, -7882, 1935, -2469, -2135, -1606, 452, 518, 562, 396, 141, 124, 401, 286, 246, 266
41641110, 1147, -10070, 10178, -7882, 1935, -2469, -2135, -1606, 452, 518, 562, 396, 141, 124, 401, 286, 246, 266
41653660, 1147, -10070, 10178, -7882, 1935, -2469, -2135, -1606, 452, 518, 562, 396, 141, 124, 401, 286, 246, 266
41654480, 1147, -10070, 10178, -7882, 1935, -2469, -2135, -1606, 452, 518, 562, 396, 141, 124, 401, 286, 246, 266
41655289, 1147, -10070, 10178, -7882, 1935, -2469, -2135, -1606, 452, 518, 562, 396, 141, 124, 401, 286, 246, 266
41656108, 1147, -10070, 10178, -7882, 1935, -2469, -2135, -1606, 452, 518, 562, 396, 141, 124, 401, 286, 246, 266
41661102, 1147, -10070, 10178, -7882, 1935, -2469, -2135, -1606, 452, 518, 562, 396, 141, 124, 401, 286, 246, 266
41661919, 1147, -10070, 10178, -7882, 1935, -2469, -2135, -1606, 452, 518, 562, 396, 141, 124, 401, 286, 246, 266
41662775, 1147, -10070, 10178, -7882, 1935, -2469, -2135, -1606, 452, 518, 562, 396, 141, 124, 401, 286, 246, 266
41663560, 1147, -10070, 10178, -7882, 1935, -2469, -2135, -1606, 452, 518, 562, 396, 141, 124, 401, 286, 246, 266
41667133, 1147, -10070, 10178, -7882, 1935, -2469, -2135, -1606, 452, 518, 525, 381, 125, 87, 220, 324, 195, 250
41667932, 1147, -10070, 10178, -7882, 1935, -2469, -2135, -1606, 452, 518, 525, 381, 125, 87, 220, 324, 195, 250
41676140, 1147, -10070, 10178, -7882, 1935, -2469, -2135, -1606, 452, 518, 525, 381, 125, 87, 220, 324, 195, 250
41676939, 1147, -10070, 10178, -7882, 1935, -2469, -2135, -1606, 452, 518, 525, 381, 125, 87, 220, 324, 195, 250
41677741, 1147, -10070, 10178, -7882, 1935, -2469, -2135, -1606, 452, 518, 525, 381, 125, 87, 220, 324, 195, 250
41678550, 1147, -10070, 10178, -7882, 1935, -2469, -2135, -1606, 452, 518, 525, 381, 125, 87, 220, 324, 195, 250
41683637, 1147, -10070, 10178, -7882, 1935, -2469, -2135, -1606, 452, 518, 525, 381, 125, 87, 220, 324, 195, 250
41684452, 1147, -10070, 10178, -7882, 1935, -2469, -2135, -1606, 452, 518, 525, 381, 125, 87, 220, 324, 195, 250
41685260, 1147, -10070, 10178, -7882, 1935, -2469, -2135, -1606, 452, 518, 525, 381, 125, 87, 220, 324, 195, 250
41686211, 1086, -10204, 10010, -7934, 2274, -1453, -2910, 1168, -17, -505, 525, 381, 125, 87, 220, 324, 195, 250
41691205, 1086, -10204, 10010, -7934, 2274, -1453, -2910, 1168, -17, -505, 314, 353, 102, 79, 160, 315, 156, 135
41692033, 1086, -10204, 10010, -7934, 2274, -1453, -2910, 1168, -17, -505, 314, 353, 102, 79, 160, 315, 156, 135
41692829, 1086, -10204, 10010, -7934, 2274, -1453, -2910, 1168, -17, -505, 314, 353, 102, 79, 160, 315, 156, 135
41693652, 1086, -10204, 10010, -7934, 2274, -1453, -2910, 1168, -17, -505, 314, 353, 102, 79, 160, 315, 156, 135
41698609, 1086, -10204, 10010, -7934, 2274, -1453, -2910, 1168, -17, -505, 314, 353, 102, 79, 160, 315, 156, 135
41699402, 1086, -10204, 10010, -7934, 2274, -1453, -2910, 1168, -17, -505, 314, 353, 102, 79, 160, 315, 156, 135
41700235, 1086, -10204, 10010, -7934, 2274, -1453, -2910, 1168, -17, -505, 314, 353, 102, 79, 160, 315, 156, 135
41701058, 1086, -10204, 10010, -7934, 2274, -1453, -2910, 1168, -17, -505, 314, 353, 102, 79, 160, 315, 156, 135
41713588, 1086, -10204, 10010, -7934, 2274, -1453, -2910, 1168, -17, -505, 314, 353, 102, 79, 160, 315, 156, 135
41714530, 1040, -10367, 9857, -7920, 2559, -837, -3285, 1115, -174, -507, 314, 353, 102, 79, 160, 315, 156, 135
41715399, 1040, -10367, 9857, -7920, 2559, -837, -3285, 1115, -174, -507, 275, 326, 98, 81, 140, 304, 141, 114
41716090, 1040, -10367, 9857, -7920, 2559, -837, -3285, 1115, -174, -507, 275, 326, 98, 81, 140, 304, 141, 114
41721149, 1040, -10367, 9857, -7920, 2559, -837, -3285, 1115, -174, -507, 275, 326, 98, 81, 140, 304, 141, 114
41721980, 1040, -10367, 9857, -7920, 2559, -837, -3285, 1115, -174, -507, 275, 326, 98, 81, 140, 304, 141, 114
41722804, 1040, -10367, 9857, -7920, 2559, -837, -3285, 1115, -174, -507, 275, 326, 98, 81, 140, 304, 141, 114
41723605, 1040, -10367, 9857, -7920, 2559, -837, -3285, 1115, -174, -507, 275, 326, 98, 81, 140, 304, 141, 114
41728603, 1040, -10367, 9857, -7920, 2559, -837, -3285, 1115, -174, -507, 275, 326, 98, 81, 140, 304, 141, 114
41729435, 1040, -10367, 9857, -7920, 2559, -837, -3285, 1115, -174, -507, 275, 326, 98, 81, 140, 304, 141, 114
41730246, 1040, -10367, 9857, -7920, 2559, -837, -3285, 1115, -174, -507, 275, 326, 98, 81, 140, 304, 141, 114
41731049, 1040, -10367, 9857, -7920, 2559, -837, -3285, 1115, -174, -507, 275, 326, 98, 81, 140, 304, 141, 114
41736131, 1040, -10367, 9857, -7920, 2559, -837, -3285, 1115, -174, -507, 275, 326, 98, 81, 140, 304, 141, 114
41737051, 950, -10516, 9776, -7836, 2565, -782, -3300, 523, -197, -307, 275, 326, 98, 81, 140, 304, 141, 114
41737878, 950, -10516, 9776, -7836, 2565, -782, -3300, 523, -197, -307, 265, 341, 94, 77, 136, 277, 133, 96
41738713, 950, -10516, 9776, -7836, 2565, -782, -3300, 523, -197, -307, 265, 341, 94, 77, 136, 277, 133, 96
41743674, 950, -10516, 9776, -7836, 2565, -782, -3300, 523, -197, -307, 265, 341, 94, 77, 136, 277, 133, 96
41744497, 950, -10516, 9776, -7836, 2565, -782, -3300, 523, -197, -307, 265, 341, 94, 77, 136, 277, 133, 96
41745322, 950, -10516, 9776, -7836, 2565, -782, -3300, 523, -197, -307, 265, 341, 94, 77, 136, 277, 133, 96
41751087, 950, -10516, 9776, -7836, 2565, -782, -3300, 523, -197, -307, 265, 341, 94, 77, 136, 277, 133, 96
41751908, 950, -10516, 9776, -7836, 2565, -782, -3300, 523, -197, -307, 265, 341, 94, 77, 136, 277, 133, 96
41752729, 950, -10516, 9776, -7836, 2565, -782, -3300, 523, -197, -307, 265, 341, 94, 77, 136, 277, 133, 96
41753529, 950, -10516, 9776, -7836, 2565, -782, -3300, 523, -197, -307, 265, 341, 94, 77, 136, 277, 133, 96
41758611, 950, -10516, 9776, -7836, 2565, -782, -3300, 523, -197, -307, 265, 341, 94, 77, 136, 277, 133, 96
41759404, 950, -10516, 9776, -7836, 2565, -782, -3300, 523, -197, -307, 265, 341, 94, 77, 136, 277, 133, 96
41760406, 826, -10625, 9761, -7720, 2413, -1008, -3129, -40, -80, -178, 265, 341, 94, 77, 136, 277, 133, 96
41761200, 826, -10625, 9761, -7720, 2413, -1008, -3129, -40, -80, -178, 234, 349, 83, 70, 137, 239, 123, 85