Timestamp, Orientation x, Orientation y, Orientation z, Orientation w, Acceleration x, Acceleration y, Acceleration z, Rotation x, Rotation y, Rotation z, EMG 0, EMG 1, EMG 2, EMG 3, EMG 4, EMG 5, EMG 6, EMG 7
83043380, 1895, -15565, 1211, -4596, 2458, -996, -3432, -124, -15, -30, 0, 0, 0, 0, 0, 0, 0, 0
83050831, 1880, -15559, 1207, -4622, 2461, -1085, -3391, -61, 12, -19, 0, 0, 0, 0, 0, 0, 0, 0
83065822, 1867, -15553, 1202, -4650, 2464, -1038, -3424, -25, 36, -10, 0, 0, 0, 0, 0, 0, 0, 0
83088377, 1857, -15547, 1198, -4676, 2470, -1034, -3430, -6, 35, 0, 0, 0, 0, 0, 0, 0, 0, 0
83112143, 1841, -15544, 1195, -4692, 2474, -1029, -3465, -48, -13, 2, 0, 0, 0, 0, 0, 0, 0, 0
83112963, 1841, -15544, 1195, -4692, 2474, -1029, -3465, -48, -13, 2, 179, 397, 110, 56, 141, 209, 107, 120
83113757, 1841, -15544, 1195, -4692, 2474, -1029, -3465, -48, -13, 2, 179, 397, 110, 56, 141, 209, 107, 120
83125814, 1828, -15542, 1199, -4703, 2471, -1070, -3440, -62, -32, 28, 179, 397, 110, 56, 141, 209, 107, 120
83133969, 1828, -15542, 1199, -4703, 2471, -1070, -3440, -62, -32, 28, 211, 482, 102, 49, 135, 160, 105, 105
83134792, 1828, -15542, 1199, -4703, 2471, -1070, -3440, -62, -32, 28, 211, 482, 102, 49, 135, 160, 105, 105
83148370, 1817, -15539, 1202, -4715, 2465, -1050, -3432, -47, -28, 34, 211, 482, 102, 49, 135, 160, 105, 105
83156468, 1817, -15539, 1202, -4715, 2465, -1050, -3432, -47, -28, 34, 222, 561, 101, 52, 141, 160, 95, 104
83157276, 1817, -15539, 1202, -4715, 2465, -1050, -3432, -47, -28, 34, 222, 561, 101, 52, 141, 160, 95, 104
83172171, 1808, -15536, 1205, -4730, 2486, -1047, -3414, -41, -21, 29, 222, 561, 101, 52, 141, 160, 95, 104
83172982, 1808, -15536, 1205, -4730, 2486, -1047, -3414, -41, -21, 29, 234, 563, 93, 54, 131, 200, 88, 95
83173803, 1808, -15536, 1205, -4730, 2486, -1047, -3414, -41, -21, 29, 234, 563, 93, 54, 131, 200, 88, 95
83185854, 1795, -15532, 1207, -4746, 2477, -1043, -3433, -51, -3, 18, 234, 563, 93, 54, 131, 200, 88, 95
83193955, 1795, -15532, 1207, -4746, 2477, -1043, -3433, -51, -3, 18, 232, 553, 89, 49, 125, 187, 76, 101
83194773, 1795, -15532, 1207, -4746, 2477, -1043, -3433, -51, -3, 18, 232, 553, 89, 49, 125, 187, 76, 101
83217166, 1784, -15530, 1207, -4758, 2470, -1052, -3407, -54, -28, 9, 232, 553, 89, 49, 125, 187, 76, 101
83217980, 1784, -15530, 1207, -4758, 2470, -1052, -3407, -54, -28, 9, 211, 562, 91, 50, 104, 180, 74, 115
83218777, 1784, -15530, 1207, -4758, 2470, -1052, -3407, -54, -28, 9, 211, 562, 91, 50, 104, 180, 74, 115
83233589, 1780, -15527, 1207, -4768, 2466, -1064, -3410, -19, -36, 9, 211, 562, 91, 50, 104, 180, 74, 115
83234407, 1895, -15565, 1211, -4596, 2458, -996, -3432, -124, -15, -30, 211, 562, 91, 50, 104, 180, 74, 115
83235230, 1880, -15559, 1207, -4622, 2461, -1085, -3391, -61, 12, -19, 211, 562, 91, 50, 104, 180, 74, 115
83236052, 1867, -15553, 1202, -4650, 2464, -1038, -3424, -25, 36, -10, 211, 562, 91, 50, 104, 180, 74, 115
83241033, 1857, -15547, 1198, -4676, 2470, -1034, -3430, -6, 35, 0, 211, 562, 91, 50, 104, 180, 74, 115
83241853, 1841, -15544, 1195, -4692, 2474, -1029, -3465, -48, -13, 2, 211, 562, 91, 50, 104, 180, 74, 115
83242678, 1841, -15544, 1195, -4692, 2474, -1029, -3465, -48, -13, 2, 179, 397, 110, 56, 141, 209, 107, 120
83243473, 1841, -15544, 1195, -4692, 2474, -1029, -3465, -48, -13, 2, 179, 397, 110, 56, 141, 209, 107, 120
83248510, 1841, -15544, 1195, -4692, 2474, -1029, -3465, -48, -13, 2, 211, 482, 102, 49, 135, 160, 105, 105
83249356, 1841, -15544, 1195, -4692, 2474, -1029, -3465, -48, -13, 2, 211, 482, 102, 49, 135, 160, 105, 105
83250155, 1841, -15544, 1195, -4692, 2474, -1029, -3465, -48, -13, 2, 211, 482, 102, 49, 135, 160, 105, 105
83250957, 1841, -15544, 1195, -4692, 2474, -1029, -3465, -48, -13, 2, 211, 482, 102, 49, 135, 160, 105, 105
83255976, 1841, -15544, 1195, -4692, 2474, -1029, -3465, -48, -13, 2, 211, 482, 102, 49, 135, 160, 105, 105
83256735, 1841, -15544, 1195, -4692, 2474, -1029, -3465, -48, -13, 2, 211, 482, 102, 49, 135, 160, 105, 105
83257535, 1841, -15544, 1195, -4692, 2474, -1029, -3465, -48, -13, 2, 211, 482, 102, 49, 135, 160, 105, 105
83258362, 1841, -15544, 1195, -4692, 2474, -1029, -3465, -48, -13, 2, 211, 482, 102, 49, 135, 160, 105, 105
83263509, 1841, -15544, 1195, -4692, 2474, -1029, -3465, -48, -13, 2, 211, 482, 102, 49, 135, 160, 105, 105
83264436, 1817, -15539, 1202, -4715, 2465, -1050, -3432, -47, -28, 34, 211, 482, 102, 49, 135, 160, 105, 105
83265255, 1817, -15539, 1202, -4715, 2465, -1050, -3432, -47, -28, 34, 222, 561, 101, 52, 141, 160, 95, 104
83266076, 1817, -15539, 1202, -4715, 2465, -1050, -3432, -47, -28, 34, 222, 561, 101, 52, 141, 160, 95, 104
83271094, 1817, -15539, 1202, -4715, 2465, -1050, -3432, -47, -28, 34, 222, 561, 101, 52, 141, 160, 95, 104
83271879, 1817, -15539, 1202, -4715, 2465, -1050, -3432, -47, -28, 34, 222, 561, 101, 52, 141, 160, 95, 104
83272693, 1817, -15539, 1202, -4715, 2465, -1050, -3432, -47, -28, 34, 222, 561, 101, 52, 141, 160, 95, 104
83273531, 1817, -15539, 1202, -4715, 2465, -1050, -3432, -47, -28, 34, 222, 561, 101, 52, 141, 160, 95, 104
83278525, 1817, -15539, 1202, -4715, 2465, -1050, -3432, -47, -28, 34, 222, 561, 101, 52, 141, 160, 95, 104
83279280, 1817, -15539, 1202, -4715, 2465, -1050, -3432, -47, -28, 34, 222, 561, 101, 52, 141, 160, 95, 104
83280084, 1817, -15539, 1202, -4715, 2465, -1050, -3432, -47, -28, 34, 222, 561, 101, 52, 141, 160, 95, 104
83280880, 1817, -15539, 1202, -4715, 2465, -1050, -3432, -47, -28, 34, 222, 561, 101, 52, 141, 160, 95, 104
83285988, 1817, -15539, 1202, -4715, 2465, -1050, -3432, -47, -28, 34, 222, 561, 101, 52, 141, 160, 95, 104
83286909, 1808, -15536, 1205, -4730, 2486, -1047, -3414, -41, -21, 29, 222, 561, 101, 52, 141, 160, 95, 104
83287709, 1808, -15536, 1205, -4730, 2486, -1047, -3414, -41, -21, 29, 234, 563, 93, 54, 131, 200, 88, 95
83288554, 1808, -15536, 1205, -4730, 2486, -1047, -3414, -41, -21, 29, 234, 563, 93, 54, 131, 200, 88, 95
83293554, 1808, -15536, 1205, -4730, 2486, -1047, -3414, -41, -21, 29, 234, 563, 93, 54, 131, 200, 88, 95
83294378, 1808, -15536, 1205, -4730, 2486, -1047, -3414, -41, -21, 29, 234, 563, 93, 54, 131, 200, 88, 95
83295171, 1808, -15536, 1205, -4730, 2486, -1047, -3414, -41, -21, 29, 234, 563, 93, 54, 131, 200, 88, 95
83295994, 1808, -15536, 1205, -4730, 2486, -1047, -3414, -41, -21, 29, 234, 563, 93, 54, 131, 200, 88, 95
83300958, 1808, -15536, 1205, -4730, 2486, -1047, -3414, -41, -21, 29, 234, 563, 93, 54, 131, 200, 88, 95
83301753, 1808, -15536, 1205, -4730, 2486, -1047, -3414, -41, -21, 29, 234, 563, 93, 54, 131, 200, 88, 95
83302580, 1808, -15536, 1205, -4730, 2486, -1047, -3414, -41, -21, 29, 234, 563, 93, 54, 131, 200, 88, 95
83303400, 1808, -15536, 1205, -4730, 2486, -1047, -3414, -41, -21, 29, 234, 563, 93, 54, 131, 200, 88, 95
83308449, 1808, -15536, 1205, -4730, 2486, -1047, -3414, -41, -21, 29, 234, 563, 93, 54, 131, 200, 88, 95
83309399, 1795, -15532, 1207, -4746, 2477, -1043, -3433, -51, -3, 18, 234, 563, 93, 54, 131, 200, 88, 95
83310197, 1795, -15532, 1207, -4746, 2477, -1043, -3433, -51, -3, 18, 232, 553, 89, 49, 125, 187, 76, 101
83311031, 1795, -15532, 1207, -4746, 2477, -1043, -3433, -51, -3, 18, 232, 553, 89, 49, 125, 187, 76, 101
83316033, 1795, -15532, 1207, -4746, 2477, -1043, -3433, -51, -3, 18, 232, 553, 89, 49, 125, 187, 76, 101
83316837, 1795, -15532, 1207, -4746, 2477, -1043, -3433, -51, -3, 18, 232, 553, 89, 49, 125, 187, 76, 101
83317635, 1795, -15532, 1207, -4746, 2477, -1043, -3433, -51, -3, 18, 232, 553, 89, 49, 125, 187, 76, 101
83318465, 1795, -15532, 1207, -4746, 2477, -1043, -3433, -51, -3, 18, 232, 553, 89, 49, 125, 187, 76, 101
83323460, 1795, -15532, 1207, -4746, 2477, -1043, -3433, -51, -3, 18, 232, 553, 89, 49, 125, 187, 76, 101
83324281, 1795, -15532, 1207, -4746, 2477, -1043, -3433, -51, -3, 18, 232, 553, 89, 49, 125, 187, 76, 101
83325082, 1795, -15532, 1207, -4746, 2477, -1043, -3433, -51, -3, 18, 232, 553, 89, 49, 125, 187, 76, 101
83325906, 1795, -15532, 1207, -4746, 2477, -1043, -3433, -51, -3, 18, 232, 553, 89, 49, 125, 187, 76, 101
83330998, 1795, -15532, 1207, -4746, 2477, -1043, -3433, -51, -3, 18, 232, 553, 89, 49, 125, 187, 76, 101
83331924, 1784, -15530, 1207, -4758, 2470, -1052, -3407, -54, -28, 9, 232, 553, 89, 49, 125, 187, 76, 101
83332742, 1784, -15530, 1207, -4758, 2470, -1052, -3407, -54, -28, 9, 211, 562, 91, 50, 104, 180, 74, 115
83333539, 1784, -15530, 1207, -4758, 2470, -1052, -3407, -54, -28, 9, 211, 562, 91, 50, 104, 180, 74, 115
83338569, 1784, -15530, 1207, -4758, 2470, -1052, -3407, -54, -28, 9, 211, 562, 91, 50, 104, 180, 74, 115
83339368, 1784, -15530, 1207, -4758, 2470, -1052, -3407, -54, -28, 9, 211, 562, 91, 50, 104, 180, 74, 115
83340181, 1784, -15530, 1207, -4758, 2470, -1052, -3407, -54, -28, 9, 211, 562, 91, 50, 104, 180, 74, 115
83341046, 1784, -15530, 1207, -4758, 2470, -1052, -3407, -54, -28, 9, 211, 562, 91, 50, 104, 180, 74, 115
83345953, 1784, -15530, 1207, -4758, 2470, -1052, -3407, -54, -28, 9, 211, 562, 91, 50, 104, 180, 74, 115
83346780, 1784, -15530, 1207, -4758, 2470, -1052, -3407, -54, -28, 9, 211, 562, 91, 50, 104, 180, 74, 115
83347580, 1784, -15530, 1207, -4758, 2470, -1052, -3407, -54, -28, 9, 211, 562, 91, 50, 104, 180, 74, 115
83348408, 1784, -15530, 1207, -4758, 2470, -1052, -3407, -54, -28, 9, 211, 562, 91, 50, 104, 180, 74, 115
83353475, 1784, -15530, 1207, -4758, 2470, -1052, -3407, -54, -28, 9, 211, 562, 91, 50, 104, 180, 74, 115
83354394, 1780, -15527, 1207, -4768, 2466, -1064, -3410, -19, -36, 9, 211, 562, 91, 50, 104, 180, 74, 115
83355215, 1780, -15527, 1207, -4768, 2466, -1064, -3410, -19, -36, 9, 182, 493, 90, 56, 102, 192, 71, 122
83356054, 1780, -15527, 1207, -4768, 2466, -1064, -3410, -19, -36, 9, 182, 493, 90, 56, 102, 192, 71, 122
83361052, 1780, -15527, 1207, -4768, 2466, -1064, -3410, -19, -36, 9, 182, 493, 90, 56, 102, 192, 71, 122
83361851, 1780, -15527, 1207, -4768, 2466, -1064, -3410, -19, -36, 9, 182, 493, 90, 56, 102, 192, 71, 122
83362656, 1780, -15527, 1207, -4768, 2466, -1064, -3410, -19, -36, 9, 182, 493, 90, 56, 102, 192, 71, 122
83363464, 1780, -15527, 1207, -4768, 2466, -1064, -3410, -19, -36, 9, 182, 493, 90, 56, 102, 192, 71, 122
83368461, 1780, -15527, 1207, -4768, 2466, -1064, -3410, -19, -36, 9, 182, 493, 90, 56, 102, 192, 71, 122
83369246, 1780, -15527, 1207, -4768, 2466, -1064, -3410, -19, -36, 9, 182, 493, 90, 56, 102, 192, 71, 122
83370063, 1780, -15527, 1207, -4768, 2466, -1064, -3410, -19, -36, 9, 182, 493, 90, 56, 102, 192, 71, 122
83370896, 1780, -15527, 1207, -4768, 2466, -1064, -3410, -19, -36, 9, 182, 493, 90, 56, 102, 192, 71, 122
83376000, 1780, -15527, 1207, -4768, 2466, -1064, -3410, -19, -36, 9, 182, 493, 90, 56, 102, 192, 71, 122
83377066, 1775, -15525, 1202, -4778, 2456, -1029, -3413, -5, -27, -4, 182, 493, 90, 56, 102, 192, 71, 122
83377731, 1775, -15525, 1202, -4778, 2456, -1029, -3413, -5, -27, -4, 192, 453, 85, 64, 99, 214, 62, 126
83378561, 1775, -15525, 1202, -4778, 2456, -1029, -3413, -5, -27, -4, 192, 453, 85, 64, 99, 214, 62, 126
83383630, 1775, -15525, 1202, -4778, 2456, -1029, -3413, -5, -27, -4, 192, 453, 85, 64, 99, 214, 62, 126
83384394, 1775, -15525, 1202, -4778, 2456, -1029, -3413, -5, -27, -4, 192, 453, 85, 64, 99, 214, 62, 126
83385204, 1775, -15525, 1202, -4778, 2456, -1029, -3413, -5, -27, -4, 192, 453, 85, 64, 99, 214, 62, 126
83386053, 1775, -15525, 1202, -4778, 2456, -1029, -3413, -5, -27, -4, 192, 453, 85, 64, 99, 214, 62, 126
83390979, 1775, -15525, 1202, -4778, 2456, -1029, -3413, -5, -27, -4, 192, 453, 85, 64, 99, 214, 62, 126
83391780, 1775, -15525, 1202, -4778, 2456, -1029, -3413, -5, -27, -4, 192, 453, 85, 64, 99, 214, 62, 126
83392602, 1775, -15525, 1202, -4778, 2456, -1029, -3413, -5, -27, -4, 192, 453, 85, 64, 99, 214, 62, 126
83393465, 1775, -15525, 1202, -4778, 2456, -1029, -3413, -5, -27, -4, 192, 453, 85, 64, 99, 214, 62, 126
83398470, 1775, -15525, 1202, -4778, 2456, -1029, -3413, -5, -27, -4, 192, 453, 85, 64, 99, 214, 62, 126
83399461, 1767, -15523, 1197, -4790, 2460, -1020, -3416, -19, -15, -15, 192, 453, 85, 64, 99, 214, 62, 126
83400225, 1767, -15523, 1197, -4790, 2460, -1020, -3416, -19, -15, -15, 211, 490, 82, 62, 96, 178, 64, 135
83401039, 1767, -15523, 1197, -4790, 2460, -1020, -3416, -19, -15, -15, 211, 490, 82, 62, 96, 178, 64, 135
83406048, 1767, -15523, 1197, -4790, 2460, -1020, -3416, -19, -15, -15, 211, 490, 82, 62, 96, 178, 64, 135
83406869, 1767, -15523, 1197, -4790, 2460, -1020, -3416, -19, -15, -15, 211, 490, 82, 62, 96, 178, 64, 135
83407691, 1767, -15523, 1197, -4790, 2460, -1020, -3416, -19, -15, -15, 211, 490, 82, 62, 96, 178, 64, 135
83408502, 1767, -15523, 1197, -4790, 2460, -1020, -3416, -19, -15, -15, 211, 490, 82, 62, 96, 178, 64, 135
83413481, 1767, -15523, 1197, -4790, 2460, -1020, -3416, -19, -15, -15, 211, 490, 82, 62, 96, 178, 64, 135
83414282, 1767, -15523, 1197, -4790, 2460, -1020, -3416, -19, -15, -15, 211, 490, 82, 62, 96, 178, 64, 135
83415083, 1767, -15523, 1197, -4790, 2460, -1020, -3416, -19, -15, -15, 211, 490, 82, 62, 96, 178, 64, 135
83415905, 1767, -15523, 1197, -4790, 2460, -1020, -3416, -19, -15, -15, 211, 490, 82, 62, 96, 178, 64, 135
83420969, 1767, -15523, 1197, -4790, 2460, -1020, -3416, -19, -15, -15, 211, 490, 82, 62, 96, 178, 64, 135
83421907, 1757, -15520, 1193, -4802, 2473, -1025, -3439, -27, -9, -14, 211, 490, 82, 62, 96, 178, 64, 135
83422734, 1757, -15520, 1193, -4802, 2473, -1025, -3439, -27, -9, -14, 226, 476, 84, 66, 104, 181, 63, 145
83423527, 1757, -15520, 1193, -4802, 2473, -1025, -3439, -27, -9, -14, 226, 476, 84, 66, 104, 181, 63, 145
83428555, 1757, -15520, 1193, -4802, 2473, -1025, -3439, -27, -9, -14, 226, 476, 84, 66, 104, 181, 63, 145
83429366, 1757, -15520, 1193, -4802, 2473, -1025, -3439, -27, -9, -14, 226, 476, 84, 66, 104, 181, 63, 145
83430226, 1757, -15520, 1193, -4802, 2473, -1025, -3439, -27, -9, -14, 226, 476, 84, 66, 104, 181, 63, 145
83430990, 1757, -15520, 1193, -4802, 2473, -1025, -3439, -27, -9, -14, 226, 476, 84, 66, 104, 181, 63, 145
83435923, 1757, -15520, 1193, -4802, 2473, -1025, -3439, -27, -9, -14, 226, 476, 84, 66, 104, 181, 63, 145
83436735, 1757, -15520, 1193, -4802, 2473, -1025, -3439, -27, -9, -14, 226, 476, 84, 66, 104, 181, 63, 145
83437539, 1757, -15520, 1193, -4802, 2473, -1025, -3439, -27, -9, -14, 226, 476, 84, 66, 104, 181, 63, 145
83438366, 1757, -15520, 1193, -4802, 2473, -1025, -3439, -27, -9, -14, 226, 476, 84, 66, 104, 181, 63, 145
83443506, 1757, -15520, 1193, -4802, 2473, -1025, -3439, -27, -9, -14, 226, 476, 84, 66, 104, 181, 63, 145
83444426, 1747, -15518, 1190, -4815, 2472, -1028, -3431, -32, -4, -8, 226, 476, 84, 66, 104, 181, 63, 145
83445263, 1747, -15518, 1190, -4815, 2472, -1028, -3431, -32, -4, -8, 227, 445, 87, 64, 113, 190, 61, 150
83446091, 1747, -15518, 1190, -4815, 2472, -1028, -3431, -32, -4, -8, 227, 445, 87, 64, 113, 190, 61, 150
83451090, 1747, -15518, 1190, -4815, 2472, -1028, -3431, -32, -4, -8, 227, 445, 87, 64, 113, 190, 61, 150
83451856, 1747, -15518, 1190, -4815, 2472, -1028, -3431, -32, -4, -8, 227, 445, 87, 64, 113, 190, 61, 150
83452697, 1747, -15518, 1190, -4815, 2472, -1028, -3431, -32, -4, -8, 227, 445, 87, 64, 113, 190, 61, 150
83453515, 1747, -15518, 1190, -4815, 2472, -1028, -3431, -32, -4, -8, 227, 445, 87, 64, 113, 190, 61, 150
83458466, 1747, -15518, 1190, -4815, 2472, -1028, -3431, -32, -4, -8, 227, 445, 87, 64, 113, 190, 61, 150
83459268, 1747, -15518, 1190, -4815, 2472, -1028, -3431, -32, -4, -8, 227, 445, 87, 64, 113, 190, 61, 150
83460090, 1747, -15518, 1190, -4815, 2472, -1028, -3431, -32, -4, -8, 227, 445, 87, 64, 113, 190, 61, 150
83460884, 1747, -15518, 1190, -4815, 2472, -1028, -3431, -32, -4, -8, 227, 445, 87, 64, 113, 190, 61, 150
83465965, 1747, -15518, 1190, -4815, 2472, -1028, -3431, -32, -4, -8, 227, 445, 87, 64, 113, 190, 61, 150
83466905, 1736, -15515, 1188, -4828, 2466, -1023, -3429, -42, 8, -9, 227, 445, 87, 64, 113, 190, 61, 150
83467701, 1736, -15515, 1188, -4828, 2466, -1023, -3429, -42, 8, -9, 222, 446, 80, 65, 137, 187, 57, 147
83468529, 1736, -15515, 1188, -4828, 2466, -1023, -3429, -42, 8, -9, 222, 446, 80, 65, 137, 187, 57, 147
83473532, 1736, -15515, 1188, -4828, 2466, -1023, -3429, -42, 8, -9, 222, 446, 80, 65, 137, 187, 57, 147
83474357, 1736, -15515, 1188, -4828, 2466, -1023, -3429, -42, 8, -9, 222, 446, 80, 65, 137, 187, 57, 147
83475171, 1736, -15515, 1188, -4828, 2466, -1023, -3429, -42, 8, -9, 222, 446, 80, 65, 137, 187, 57, 147
83475984, 1736, -15515, 1188, -4828, 2466, -1023, -3429, -42, 8, -9, 222, 446, 80, 65, 137, 187, 57, 147
83480944, 1736, -15515, 1188, -4828, 2466, -1023, -3429, -42, 8, -9, 222, 446, 80, 65, 137, 187, 57, 147
83481730, 1736, -15515, 1188, -4828, 2466, -1023, -3429, -42, 8, -9, 222, 446, 80, 65, 137, 187, 57, 147
83482563, 1736, -15515, 1188, -4828, 2466, -1023, -3429, -42, 8, -9, 222, 446, 80, 65, 137, 187, 57, 147
83483383, 1736, -15515, 1188, -4828, 2466, -1023, -3429, -42, 8, -9, 222, 446, 80, 65, 137, 187, 57, 147
83496057, 1736, -15515, 1188, -4828, 2466, -1023, -3429, -42, 8, -9, 222, 446, 80, 65, 137, 187, 57, 147
83496918, 1726, -15513, 1187, -4839, 2475, -1034, -3427, -48, -7, -11, 222, 446, 80, 65, 137, 187, 57, 147
83497752, 1726, -15513, 1187, -4839, 2475, -1034, -3427, -48, -7, -11, 207, 457, 85, 65, 137, 164, 56, 136
83498557, 1726, -15513, 1187, -4839, 2475, -1034, -3427, -48, -7, -11, 207, 457, 85, 65, 137, 164, 56, 136
83503582, 1726, -15513, 1187, -4839, 2475, -1034, -3427, -48, -7, -11, 207, 457, 85, 65, 137, 164, 56, 136
83504391, 1726, -15513, 1187, -4839, 2475, -1034, -3427, -48, -7, -11, 207, 457, 85, 65, 137, 164, 56, 136
83505198, 1726, -15513, 1187, -4839, 2475, -1034, -3427, -48, -7, -11, 207, 457, 85, 65, 137, 164, 56, 136
83505997, 1726, -15513, 1187, -4839, 2475, -1034, -3427, -48, -7, -11, 207, 457, 85, 65, 137, 164, 56, 136
83510989, 1726, -15513, 1187, -4839, 2475, -1034, -3427, -48, -7, -11, 207, 457, 85, 65, 137, 164, 56, 136
83511776, 1726, -15513, 1187, -4839, 2475, -1034, -3427, -48, -7, -11, 207, 457, 85, 65, 137, 164, 56, 136
83512603, 1726, -15513, 1187, -4839, 2475, -1034, -3427, -48, -7, -11, 207, 457, 85, 65, 137, 164, 56, 136
83513401, 1726, -15513, 1187, -4839, 2475, -1034, -3427, -48, -7, -11, 207, 457, 85, 65, 137, 164, 56, 136
83518481, 1726, -15513, 1187, -4839, 2475, -1034, -3427, -48, -7, -11, 207, 457, 85, 65, 137, 164, 56, 136
83519403, 1718, -15510, 1185, -4851, 2472, -1040, -3438, -34, 8, -12, 207, 457, 85, 65, 137, 164, 56, 136
83520218, 1718, -15510, 1185, -4851, 2472, -1040, -3438, -34, 8, -12, 193, 439, 86, 68, 137, 159, 54, 136
83521056, 1718, -15510, 1185, -4851, 2472, -1040, -3438, -34, 8, -12, 193, 439, 86, 68, 137, 159, 54, 136
83526060, 1718, -15510, 1185, -4851, 2472, -1040, -3438, -34, 8, -12, 193, 439, 86, 68, 137, 159, 54, 136
83526854, 1718, -15510, 1185, -4851, 2472, -1040, -3438, -34, 8, -12, 193, 439, 86, 68, 137, 159, 54, 136
83527664, 1718, -15510, 1185, -4851, 2472, -1040, -3438, -34, 8, -12, 193, 439, 86, 68, 137, 159, 54, 136
83528499, 1718, -15510, 1185, -4851, 2472, -1040, -3438, -34, 8, -12, 193, 439, 86, 68, 137, 159, 54, 136
83533467, 1718, -15510, 1185, -4851, 2472, -1040, -3438, -34, 8, -12, 193, 439, 86, 68, 137, 159, 54, 136
83534260, 1718, -15510, 1185, -4851, 2472, -1040, -3438, -34, 8, -12, 193, 439, 86, 68, 137, 159, 54, 136
83535082, 1718, -15510, 1185, -4851, 2472, -1040, -3438, -34, 8, -12, 193, 439, 86, 68, 137, 159, 54, 136
83535878, 1718, -15510, 1185, -4851, 2472, -1040, -3438, -34, 8, -12, 193, 439, 86, 68, 137, 159, 54, 136
83540955, 1718, -15510, 1185, -4851, 2472, -1040, -3438, -34, 8, -12, 193, 439, 86, 68, 137, 159, 54, 136
83541904, 1710, -15508, 1182, -4861, 2466, -1027, -3447, -30, 5, -15, 193, 439, 86, 68, 137, 159, 54, 136
83542702, 1710, -15508, 1182, -4861, 2466, -1027, -3447, -30, 5, -15, 172, 442, 86, 65, 132, 162, 56, 121
83543522, 1710, -15508, 1182, -4861, 2466, -1027, -3447, -30, 5, -15, 172, 442, 86, 65, 132, 162, 56, 121
83548587, 1710, -15508, 1182, -4861, 2466, -1027, -3447, -30, 5, -15, 172, 442, 86, 65, 132, 162, 56, 121
83549400, 1710, -15508, 1182, -4861, 2466, -1027, -3447, -30, 5, -15, 172, 442, 86, 65, 132, 162, 56, 121
83550219, 1710, -15508, 1182, -4861, 2466, -1027, -3447, -30, 5, -15, 172, 442, 86, 65, 132, 162, 56, 121
83551027, 1710, -15508, 1182, -4861, 2466, -1027, -3447, -30, 5, -15, 172, 442, 86, 65, 132, 162, 56, 121
83555979, 1710, -15508, 1182, -4861, 2466, -1027, -3447, -30, 5, -15, 172, 442, 86, 65, 132, 162, 56, 121
83556801, 1710, -15508, 1182, -4861, 2466, -1027, -3447, -30, 5, -15, 172, 442, 86, 65, 132, 162, 56, 121
83557599, 1710, -15508, 1182, -4861, 2466, -1027, -3447, -30, 5, -15, 172, 442, 86, 65, 132, 162, 56, 121
83558436, 1710, -15508, 1182, -4861, 2466, -1027, -3447, -30, 5, -15, 172, 442, 86, 65, 132, 162, 56, 121
83563523, 1710, -15508, 1182, -4861, 2466, -1027, -3447, -30, 5, -15, 172, 442, 86, 65, 132, 162, 56, 121
83564429, 1697, -15507, 1181, -4868, 2472, -1020, -3446, -60, -12, -11, 172, 442, 86, 65, 132, 162, 56, 121
83565242, 1697, -15507, 1181, -4868, 2472, -1020, -3446, -60, -12, -11, 152, 410, 83, 77, 141, 144, 61, 127
83566043, 1697, -15507, 1181, -4868, 2472, -1020, -3446, -60, -12, -11, 152, 410, 83, 77, 141, 144, 61, 127
83571058, 1697, -15507, 1181, -4868, 2472, -1020, -3446, -60, -12, -11, 152, 410, 83, 77, 141, 144, 61, 127
83571865, 1697, -15507, 1181, -4868, 2472, -1020, -3446, -60, -12, -11, 152, 410, 83, 77, 141, 144, 61, 127
83572693, 1697, -15507, 1181, -4868, 2472, -1020, -3446, -60, -12, -11, 152, 410, 83, 77, 141, 144, 61, 127
83573489, 1697, -15507, 1181, -4868, 2472, -1020, -3446, -60, -12, -11, 152, 410, 83, 77, 141, 144, 61, 127
83578447, 1697, -15507, 1181, -4868, 2472, -1020, -3446, -60, -12, -11, 152, 410, 83, 77, 141, 144, 61, 127
83579285, 1697, -15507, 1181, -4868, 2472, -1020, -3446, -60, -12, -11, 152, 410, 83, 77, 141, 144, 61, 127
83580127, 1697, -15507, 1181, -4868, 2472, -1020, -3446, -60, -12, -11, 152, 410, 83, 77, 141, 144, 61, 127
83580899, 1697, -15507, 1181, -4868, 2472, -1020, -3446, -60, -12, -11, 152, 410, 83, 77, 141, 144, 61, 127
83585980, 1697, -15507, 1181, -4868, 2472, -1020, -3446, -60, -12, -11, 152, 410, 83, 77, 141, 144, 61, 127
83586902, 1687, -15506, 1181, -4876, 2473, -1035, -3428, -62, -13, -11, 152, 410, 83, 77, 141, 144, 61, 127
83587727, 1687, -15506, 1181, -4876, 2473, -1035, -3428, -62, -13, -11, 175, 484, 83, 72, 119, 152, 65, 132
83588528, 1687, -15506, 1181, -4876, 2473, -1035, -3428, -62, -13, -11, 175, 484, 83, 72, 119, 152, 65, 132
83593549, 1687, -15506, 1181, -4876, 2473, -1035, -3428, -62, -13, -11, 175, 484, 83, 72, 119, 152, 65, 132
83594376, 1687, -15506, 1181, -4876, 2473, -1035, -3428, -62, -13, -11, 175, 484, 83, 72, 119, 152, 65, 132
83595154, 1687, -15506, 1181, -4876, 2473, -1035, -3428, -62, -13, -11, 175, 484, 83, 72, 119, 152, 65, 132
83595977, 1687, -15506, 1181, -4876, 2473, -1035, -3428, -62, -13, -11, 175, 484, 83, 72, 119, 152, 65, 132
83600931, 1687, -15506, 1181, -4876, 2473, -1035, -3428, -62, -13, -11, 175, 484, 83, 72, 119, 152, 65, 132
83601752, 1687, -15506, 1181, -4876, 2473, -1035, -3428, -62, -13, -11, 175, 484, 83, 72, 119, 152, 65, 132
83602577, 1687, -15506, 1181, -4876, 2473, -1035, -3428, -62, -13, -11, 175, 484, 83, 72, 119, 152, 65, 132
83603380, 1687, -15506, 1181, -4876, 2473, -1035, -3428, -62, -13, -11, 175, 484, 83, 72, 119, 152, 65, 132
83608500, 1687, -15506, 1181, -4876, 2473, -1035, -3428, -62, -13, -11, 175, 484, 83, 72, 119, 152, 65, 132
83609447, 1678, -15506, 1178, -4880, 2457, -1016, -3455, -36, -21, -19, 175, 484, 83, 72, 119, 152, 65, 132
83610242, 1678, -15506, 1178, -4880, 2457, -1016, -3455, -36, -21, -19, 188, 469, 74, 65, 110, 137, 62, 140
83611065, 1678, -15506, 1178, -4880, 2457, -1016, -3455, -36, -21, -19, 188, 469, 74, 65, 110, 137, 62, 140
83616083, 1678, -15506, 1178, -4880, 2457, -1016, -3455, -36, -21, -19, 188, 469, 74, 65, 110, 137, 62, 140
83616972, 1678, -15506, 1178, -4880, 2457, -1016, -3455, -36, -21, -19, 188, 469, 74, 65, 110, 137, 62, 140
83617706, 1678, -15506, 1178, -4880, 2457, -1016, -3455, -36, -21, -19, 188, 469, 74, 65, 110, 137, 62, 140
83618528, 1678, -15506, 1178, -4880, 2457, -1016, -3455, -36, -21, -19, 188, 469, 74, 65, 110, 137, 62, 140
83623485, 1678, -15506, 1178, -4880, 2457, -1016, -3455, -36, -21, -19, 188, 469, 74, 65, 110, 137, 62, 140
83624257, 1678, -15506, 1178, -4880, 2457, -1016, -3455, -36, -21, -19, 188, 469, 74, 65, 110, 137, 62, 140
83625086, 1678, -15506, 1178, -4880, 2457, -1016, -3455, -36, -21, -19, 188, 469, 74, 65, 110, 137, 62, 140
83625925, 1678, -15506, 1178, -4880, 2457, -1016, -3455, -36, -21, -19, 188, 469, 74, 65, 110, 137, 62, 140
83631088, 1678, -15506, 1178, -4880, 2457, -1016, -3455, -36, -21, -19, 188, 469, 74, 65, 110, 137, 62, 140
83631964, 1661, -15507, 1176, -4883, 2465, -984, -3462, -75, -18, -22, 188, 469, 74, 65, 110, 137, 62, 140
83632722, 1661, -15507, 1176, -4883, 2465, -984, -3462, -75, -18, -22, 193, 418, 70, 63, 108, 130, 61, 139
83633547, 1661, -15507, 1176, -4883, 2465, -984, -3462, -75, -18, -22, 193, 418, 70, 63, 108, 130, 61, 139
83638551, 1661, -15507, 1176, -4883, 2465, -984, -3462, -75, -18, -22, 193, 418, 70, 63, 108, 130, 61, 139
83639371, 1661, -15507, 1176, -4883, 2465, -984, -3462, -75, -18, -22, 193, 418, 70, 63, 108, 130, 61, 139
83640180, 1661, -15507, 1176, -4883, 2465, -984, -3462, -75, -18, -22, 193, 418, 70, 63, 108, 130, 61, 139
83640997, 1661, -15507, 1176, -4883, 2465, -984, -3462, -75, -18, -22, 193, 418, 70, 63, 108, 130, 61, 139
83645937, 1661, -15507, 1176, -4883, 2465, -984, -3462, -75, -18, -22, 193, 418, 70, 63, 108, 130, 61, 139
83646817, 1661, -15507, 1176, -4883, 2465, -984, -3462, -75, -18, -22, 193, 418, 70, 63, 108, 130, 61, 139
83647576, 1661, -15507, 1176, -4883, 2465, -984, -3462, -75, -18, -22, 193, 418, 70, 63, 108, 130, 61, 139
83648397, 1661, -15507, 1176, -4883, 2465, -984, -3462, -75, -18, -22, 193, 418, 70, 63, 108, 130, 61, 139
83653444, 1661, -15507, 1176, -4883, 2465, -984, -3462, -75, -18, -22, 193, 418, 70, 63, 108, 130, 61, 139
83654412, 1643, -15506, 1181, -4890, 2466, -1020, -3454, -104, 5, 3, 193, 418, 70, 63, 108, 130, 61, 139
83655198, 1643, -15506, 1181, -4890, 2466, -1020, -3454, -104, 5, 3, 182, 416, 73, 63, 103, 212, 65, 136
83656025, 1643, -15506, 1181, -4890, 2466, -1020, -3454, -104, 5, 3, 182, 416, 73, 63, 103, 212, 65, 136
83668533, 1643, -15506, 1181, -4890, 2466, -1020, -3454, -104, 5, 3, 182, 416, 73, 63, 103, 212, 65, 136
83669375, 1643, -15506, 1181, -4890, 2466, -1020, -3454, -104, 5, 3, 182, 416, 73, 63, 103, 212, 65, 136
83670165, 1643, -15506, 1181, -4890, 2466, -1020, -3454, -104, 5, 3, 182, 416, 73, 63, 103, 212, 65, 136
83670971, 1643, -15506, 1181, -4890, 2466, -1020, -3454, -104, 5, 3, 182, 416, 73, 63, 103, 212, 65, 136
83675943, 1643, -15506, 1181, -4890, 2466, -1020, -3454, -104, 5, 3, 182, 416, 73, 63, 103, 212, 65, 136
83676745, 1643, -15506, 1181, -4890, 2466, -1020, -3454, -104, 5, 3, 182, 416, 73, 63, 103, 212, 65, 136
83677547, 1643, -15506, 1181, -4890, 2466, -1020, -3454, -104, 5, 3, 182, 416, 73, 63, 103, 212, 65, 136
83678380, 1643, -15506, 1181, -4890, 2466, -1020, -3454, -104, 5, 3, 182, 416, 73, 63, 103, 212, 65, 136
83683569, 1643, -15506, 1181, -4890, 2466, -1020, -3454, -104, 5, 3, 188, 480, 77, 58, 73, 379, 60, 114
83684369, 1643, -15506, 1181, -4890, 2466, -1020, -3454, -104, 5, 3, 188, 480, 77, 58, 73, 379, 60, 114
83685174, 1643, -15506, 1181, -4890, 2466, -1020, -3454, -104, 5, 3, 188, 480, 77, 58, 73, 379, 60, 114
83686002, 1643, -15506, 1181, -4890, 2466, -1020, -3454, -104, 5, 3, 188, 480, 77, 58, 73, 379, 60, 114
83690949, 1643, -15506, 1181, -4890, 2466, -1020, -3454, -104, 5, 3, 188, 480, 77, 58, 73, 379, 60, 114
83691744, 1643, -15506, 1181, -4890, 2466, -1020, -3454, -104, 5, 3, 188, 480, 77, 58, 73, 379, 60, 114
83692566, 1643, -15506, 1181, -4890, 2466, -1020, -3454, -104, 5, 3, 188, 480, 77, 58, 73, 379, 60, 114
83693392, 1643, -15506, 1181, -4890, 2466, -1020, -3454, -104, 5, 3, 188, 480, 77, 58, 73, 379, 60, 114
83698457, 1643, -15506, 1181, -4890, 2466, -1020, -3454, -104, 5, 3, 188, 480, 77, 58, 73, 379, 60, 114
83699408, 1633, -15500, 1208, -4906, 2456, -969, -3413, -63, 4, 65, 188, 480, 77, 58, 73, 379, 60, 114
83700203, 1633, -15500, 1208, -4906, 2456, -969, -3413, -63, 4, 65, 183, 632, 100, 79, 63, 445, 70, 111
83701016, 1633, -15500, 1208, -4906, 2456, -969, -3413, -63, 4, 65, 183, 632, 100, 79, 63, 445, 70, 111
83706043, 1633, -15500, 1208, -4906, 2456, -969, -3413, -63, 4, 65, 183, 632, 100, 79, 63, 445, 70, 111
83706835, 1633, -15500, 1208, -4906, 2456, -969, -3413, -63, 4, 65, 183, 632, 100, 79, 63, 445, 70, 111
83707656, 1633, -15500, 1208, -4906, 2456, -969, -3413, -63, 4, 65, 183, 632, 100, 79, 63, 445, 70, 111
83708477, 1633, -15500, 1208, -4906, 2456, -969, -3413, -63, 4, 65, 183, 632, 100, 79, 63, 445, 70, 111
83713489, 1633, -15500, 1208, -4906, 2456, -969, -3413, -63, 4, 65, 183, 632, 100, 79, 63, 445, 70, 111
83714380, 1633, -15500, 1208, -4906, 2456, -969, -3413, -63, 4, 65, 183, 632, 100, 79, 63, 445, 70, 111
83715067, 1633, -15500, 1208, -4906, 2456, -969, -3413, -63, 4, 65, 183, 632, 100, 79, 63, 445, 70, 111
83715956, 1633, -15500, 1208, -4906, 2456, -969, -3413, -63, 4, 65, 183, 632, 100, 79, 63, 445, 70, 111
83720982, 1633, -15500, 1208, -4906, 2456, -969, -3413, -63, 4, 65, 183, 632, 100, 79, 63, 445, 70, 111
83721923, 1591, -15507, 1212, -4898, 2399, -959, -3517, -215, -31, -35, 183, 632, 100, 79, 63, 445, 70, 111
83722731, 1591, -15507, 1212, -4898, 2399, -959, -3517, -215, -31, -35, 214, 640, 138, 131, 81, 493, 75, 159
83723527, 1591, -15507, 1212, -4898, 2399, -959, -3517, -215, -31, -35, 214, 640, 138, 131, 81, 493, 75, 159
83728577, 1591, -15507, 1212, -4898, 2399, -959, -3517, -215, -31, -35, 214, 640, 138, 131, 81, 493, 75, 159
83729380, 1591, -15507, 1212, -4898, 2399, -959, -3517, -215, -31, -35, 214, 640, 138, 131, 81, 493, 75, 159
83730185, 1591, -15507, 1212, -4898, 2399, -959, -3517, -215, -31, -35, 214, 640, 138, 131, 81, 493, 75, 159
83730996, 1591, -15507, 1212, -4898, 2399, -959, -3517, -215, -31, -35, 214, 640, 138, 131, 81, 493, 75, 159
83735967, 1591, -15507, 1212, -4898, 2399, -959, -3517, -215, -31, -35, 214, 640, 138, 131, 81, 493, 75, 159
83736780, 1591, -15507, 1212, -4898, 2399, -959, -3517, -215, -31, -35, 214, 640, 138, 131, 81, 493, 75, 159
83737574, 1591, -15507, 1212, -4898, 2399, -959, -3517, -215, -31, -35, 214, 640, 138, 131, 81, 493, 75, 159
83738400, 1591, -15507, 1212, -4898, 2399, -959, -3517, -215, -31, -35, 214, 640, 138, 131, 81, 493, 75, 159
83743475, 1591, -15507, 1212, -4898, 2399, -959, -3517, -215, -31, -35, 214, 640, 138, 131, 81, 493, 75, 159
83744407, 1547, -15522, 1205, -4866, 2446, -975, -3487, -253, -209, -97, 214, 640, 138, 131, 81, 493, 75, 159
83745221, 1547, -15522, 1205, -4866, 2446, -975, -3487, -253, -209, -97, 341, 787, 161, 144, 112, 511, 84, 179
83746027, 1547, -15522, 1205, -4866, 2446, -975, -3487, -253, -209, -97, 341, 787, 161, 144, 112, 511, 84, 179
83751018, 1547, -15522, 1205, -4866, 2446, -975, -3487, -253, -209, -97, 341, 787, 161, 144, 112, 511, 84, 179
83751832, 1547, -15522, 1205, -4866, 2446, -975, -3487, -253, -209, -97, 341, 787, 161, 144, 112, 511, 84, 179
83752680, 1547, -15522, 1205, -4866, 2446, -975, -3487, -253, -209, -97, 341, 787, 161, 144, 112, 511, 84, 179
83753480, 1547, -15522, 1205, -4866, 2446, -975, -3487, -253, -209, -97, 341, 787, 161, 144, 112, 511, 84, 179
83758425, 1547, -15522, 1205, -4866, 2446, -975, -3487, -253, -209, -97, 341, 787, 161, 144, 112, 511, 84, 179
83759244, 1547, -15522, 1205, -4866, 2446, -975, -3487, -253, -209, -97, 341, 787, 161, 144, 112, 511, 84, 179
83760080, 1547, -15522, 1205, -4866, 2446, -975, -3487, -253, -209, -97, 341, 787, 161, 144, 112, 511, 84, 179
83760900, 1547, -15522, 1205, -4866, 2446, -975, -3487, -253, -209, -97, 341, 787, 161, 144, 112, 511, 84, 179
83765111, 1547, -15522, 1205, -4866, 2446, -975, -3487, -253, -209, -97, 341, 787, 161, 144, 112, 511, 84, 179
83766030, 1541, -15524, 1192, -4865, 2415, -1006, -3447, -38, -46, -87, 341, 787, 161, 144, 112, 511, 84, 179
83773574, 1541, -15524, 1192, -4865, 2415, -1006, -3447, -38, -46, -87, 346, 861, 175, 159, 127, 493, 92, 208
83774395, 1541, -15524, 1192, -4865, 2415, -1006, -3447, -38, -46, -87, 346, 861, 175, 159, 127, 493, 92, 208
83775181, 1541, -15524, 1192, -4865, 2415, -1006, -3447, -38, -46, -87, 346, 861, 175, 159, 127, 493, 92, 208
83776015, 1541, -15524, 1192, -4865, 2415, -1006, -3447, -38, -46, -87, 346, 861, 175, 159, 127, 493, 92, 208
83778751, 1541, -15524, 1192, -4865, 2415, -1006, -3447, -38, -46, -87, 346, 861, 175, 159, 127, 493, 92, 208
83788484, 1541, -15524, 1192, -4865, 2415, -1006, -3447, -38, -46, -87, 346, 861, 175, 159, 127, 493, 92, 208
83789272, 1541, -15524, 1192, -4865, 2415, -1006, -3447, -38, -46, -87, 346, 861, 175, 159, 127, 493, 92, 208
83790090, 1541, -15524, 1192, -4865, 2415, -1006, -3447, -38, -46, -87, 346, 861, 175, 159, 127, 493, 92, 208
83790916, 1541, -15524, 1192, -4865, 2415, -1006, -3447, -38, -46, -87, 346, 861, 175, 159, 127, 493, 92, 208
83796102, 1551, -15514, 1190, -4894, 2463, -976, -3401, 62, 106, -1, 346, 861, 175, 159, 127, 493, 92, 208
83796914, 1551, -15514, 1190, -4894, 2463, -976, -3401, 62, 106, -1, 373, 911, 192, 166, 154, 403, 100, 218
83797731, 1551, -15514, 1190, -4894, 2463, -976, -3401, 62, 106, -1, 373, 911, 192, 166, 154, 403, 100, 218
83798552, 1551, -15514, 1190, -4894, 2463, -976, -3401, 62, 106, -1, 373, 911, 192, 166, 154, 403, 100, 218
83803450, 1551, -15514, 1190, -4894, 2463, -976, -3401, 62, 106, -1, 373, 911, 192, 166, 154, 403, 100, 218
83804254, 1551, -15514, 1190, -4894, 2463, -976, -3401, 62, 106, -1, 373, 911, 192, 166, 154, 403, 100, 218
83805072, 1551, -15514, 1190, -4894, 2463, -976, -3401, 62, 106, -1, 373, 911, 192, 166, 154, 403, 100, 218
83805882, 1551, -15514, 1190, -4894, 2463, -976, -3401, 62, 106, -1, 373, 911, 192, 166, 154, 403, 100, 218
83810988, 1551, -15514, 1190, -4894, 2463, -976, -3401, 62, 106, -1, 373, 911, 192, 166, 154, 403, 100, 218
83811950, 1572, -15504, 1173, -4922, 2435, -960, -3482, 161, 133, -56, 373, 911, 192, 166, 154, 403, 100, 218
83812752, 1572, -15504, 1173, -4922, 2435, -960, -3482, 161, 133, -56, 374, 860, 185, 208, 171, 377, 107, 221
83813581, 1572, -15504, 1173, -4922, 2435, -960, -3482, 161, 133, -56, 374, 860, 185, 208, 171, 377, 107, 221
83818526, 1572, -15504, 1173, -4922, 2435, -960, -3482, 161, 133, -56, 374, 860, 185, 208, 171, 377, 107, 221
83819379, 1572, -15504, 1173, -4922, 2435, -960, -3482, 161, 133, -56, 374, 860, 185, 208, 171, 377, 107, 221
83820168, 1572, -15504, 1173, -4922, 2435, -960, -3482, 161, 133, -56, 374, 860, 185, 208, 171, 377, 107, 221
83820973, 1572, -15504, 1173, -4922, 2435, -960, -3482, 161, 133, -56, 374, 860, 185, 208, 171, 377, 107, 221
83825959, 1572, -15504, 1173, -4922, 2435, -960, -3482, 161, 133, -56, 374, 860, 185, 208, 171, 377, 107, 221
83826815, 1572, -15504, 1173, -4922, 2435, -960, -3482, 161, 133, -56, 374, 860, 185, 208, 171, 377, 107, 221
83827607, 1572, -15504, 1173, -4922, 2435, -960, -3482, 161, 133, -56, 374, 860, 185, 208, 171, 377, 107, 221
83828453, 1572, -15504, 1173, -4922, 2435, -960, -3482, 161, 133, -56, 374, 860, 185, 208, 171, 377, 107, 221
83833513, 1572, -15504, 1173, -4922, 2435, -960, -3482, 161, 133, -56, 374, 860, 185, 208, 171, 377, 107, 221
83834436, 1552, -15506, 1147, -4928, 2505, -877, -3456, -26, -25, -138, 374, 860, 185, 208, 171, 377, 107, 221
83835236, 1552, -15506, 1147, -4928, 2505, -877, -3456, -26, -25, -138, 360, 850, 166, 237, 185, 331, 112, 244
83836060, 1552, -15506, 1147, -4928, 2505, -877, -3456, -26, -25, -138, 360, 850, 166, 237, 185, 331, 112, 244
83841051, 1552, -15506, 1147, -4928, 2505, -877, -3456, -26, -25, -138, 360, 850, 166, 237, 185, 331, 112, 244
83841876, 1552, -15506, 1147, -4928, 2505, -877, -3456, -26, -25, -138, 360, 850, 166, 237, 185, 331, 112, 244
83842701, 1552, -15506, 1147, -4928, 2505, -877, -3456, -26, -25, -138, 360, 850, 166, 237, 185, 331, 112, 244
83843503, 1552, -15506, 1147, -4928, 2505, -877, -3456, -26, -25, -138, 360, 850, 166, 237, 185, 331, 112, 244
83848469, 1552, -15506, 1147, -4928, 2505, -877, -3456, -26, -25, -138, 360, 850, 166, 237, 185, 331, 112, 244
83849394, 1552, -15506, 1147, -4928, 2505, -877, -3456, -26, -25, -138, 360, 850, 166, 237, 185, 331, 112, 244
83850077, 1552, -15506, 1147, -4928, 2505, -877, -3456, -26, -25, -138, 360, 850, 166, 237, 185, 331, 112, 244
83850915, 1552, -15506, 1147, -4928, 2505, -877, -3456, -26, -25, -138, 360, 850, 166, 237, 185, 331, 112, 244
83855965, 1552, -15506, 1147, -4928, 2505, -877, -3456, -26, -25, -138, 360, 850, 166, 237, 185, 331, 112, 244
83856902, 1547, -15502, 1131, -4947, 2547, -1007, -3454, -12, 38, -103, 360, 850, 166, 237, 185, 331, 112, 244
83857725, 1547, -15502, 1131, -4947, 2547, -1007, -3454, -12, 38, -103, 301, 879, 206, 238, 182, 307, 120, 244
83858525, 1547, -15502, 1131, -4947, 2547, -1007, -3454, -12, 38, -103, 301, 879, 206, 238, 182, 307, 120, 244
83863548, 1547, -15502, 1131, -4947, 2547, -1007, -3454, -12, 38, -103, 301, 879, 206, 238, 182, 307, 120, 244
83864376, 1547, -15502, 1131, -4947, 2547, -1007, -3454, -12, 38, -103, 301, 879, 206, 238, 182, 307, 120, 244
83865178, 1547, -15502, 1131, -4947, 2547, -1007, -3454, -12, 38, -103, 301, 879, 206, 238, 182, 307, 120, 244
83865980, 1547, -15502, 1131, -4947, 2547, -1007, -3454, -12, 38, -103, 301, 879, 206, 238, 182, 307, 120, 244
83878475, 1547, -15502, 1131, -4947, 2547, -1007, -3454, -12, 38, -103, 301, 879, 206, 238, 182, 307, 120, 244
83879259, 1547, -15502, 1131, -4947, 2547, -1007, -3454, -12, 38, -103, 301, 879, 206, 238, 182, 307, 120, 244
83880109, 1547, -15502, 1131, -4947, 2547, -1007, -3454, -12, 38, -103, 301, 879, 206, 238, 182, 307, 120, 244
83880928, 1547, -15502, 1131, -4947, 2547, -1007, -3454, -12, 38, -103, 301, 879, 206, 238, 182, 307, 120, 244
83886002, 1547, -15502, 1131, -4947, 2547, -1007, -3454, -12, 38, -103, 301, 879, 206, 238, 182, 307, 120, 244
83886919, 1576, -15489, 1126, -4978, 2543, -1090, -3430, 122, 112, -14, 301, 879, 206, 238, 182, 307, 120, 244
83887730, 1576, -15489, 1126, -4978, 2543, -1090, -3430, 122, 112, -14, 345, 945, 219, 233, 184, 313, 115, 229
83888546, 1576, -15489, 1126, -4978, 2543, -1090, -3430, 122, 112, -14, 345, 945, 219, 233, 184, 313, 115, 229
83893543, 1576, -15489, 1126, -4978, 2543, -1090, -3430, 122, 112, -14, 345, 945, 219, 233, 184, 313, 115, 229
83894370, 1576, -15489, 1126, -4978, 2543, -1090, -3430, 122, 112, -14, 345, 945, 219, 233, 184, 313, 115, 229
83895160, 1576, -15489, 1126, -4978, 2543, -1090, -3430, 122, 112, -14, 345, 945, 219, 233, 184, 313, 115, 229
83895987, 1576, -15489, 1126, -4978, 2543, -1090, -3430, 122, 112, -14, 345, 945, 219, 233, 184, 313, 115, 229
83900983, 1576, -15489, 1126, -4978, 2543, -1090, -3430, 122, 112, -14, 345, 945, 219, 233, 184, 313, 115, 229
83901754, 1576, -15489, 1126, -4978, 2543, -1090, -3430, 122, 112, -14, 345, 945, 219, 233, 184, 313, 115, 229
83902581, 1576, -15489, 1126, -4978, 2543, -1090, -3430, 122, 112, -14, 345, 945, 219, 233, 184, 313, 115, 229
83903404, 1576, -15489, 1126, -4978, 2543, -1090, -3430, 122, 112, -14, 345, 945, 219, 233, 184, 313, 115, 229
83908450, 1576, -15489, 1126, -4978, 2543, -1090, -3430, 122, 112, -14, 345, 945, 219, 233, 184, 313, 115, 229
83909400, 1619, -15479, 1121, -4997, 2489, -1021, -3509, 243, 98, 36, 345, 945, 219, 233, 184, 313, 115, 229
83910215, 1619, -15479, 1121, -4997, 2489, -1021, -3509, 243, 98, 36, 327, 949, 214, 237, 233, 299, 110, 244
83911032, 1619, -15479, 1121, -4997, 2489, -1021, -3509, 243, 98, 36, 327, 949, 214, 237, 233, 299, 110, 244
83916018, 1619, -15479, 1121, -4997, 2489, -1021, -3509, 243, 98, 36, 327, 949, 214, 237, 233, 299, 110, 244
83916846, 1619, -15479, 1121, -4997, 2489, -1021, -3509, 243, 98, 36, 327, 949, 214, 237, 233, 299, 110, 244
83917645, 1619, -15479, 1121, -4997, 2489, -1021, -3509, 243, 98, 36, 327, 949, 214, 237, 233, 299, 110, 244
83918475, 1619, -15479, 1121, -4997, 2489, -1021, -3509, 243, 98, 36, 327, 949, 214, 237, 233, 299, 110, 244
83923469, 1619, -15479, 1121, -4997, 2489, -1021, -3509, 243, 98, 36, 327, 949, 214, 237, 233, 299, 110, 244
83924370, 1619, -15479, 1121, -4997, 2489, -1021, -3509, 243, 98, 36, 327, 949, 214, 237, 233, 299, 110, 244
83925049, 1619, -15479, 1121, -4997, 2489, -1021, -3509, 243, 98, 36, 327, 949, 214, 237, 233, 299, 110, 244
83925919, 1619, -15479, 1121, -4997, 2489, -1021, -3509, 243, 98, 36, 327, 949, 214, 237, 233, 299, 110, 244
83931008, 1619, -15479, 1121, -4997, 2489, -1021, -3509, 243, 98, 36, 327, 949, 214, 237, 233, 299, 110, 244
83931919, 1647, -15475, 1112, -5002, 2476, -1003, -3526, 180, 25, 5, 327, 949, 214, 237, 233, 299, 110, 244
83932742, 1647, -15475, 1112, -5002, 2476, -1003, -3526, 180, 25, 5, 347, 968, 217, 198, 255, 304, 107, 247
83933549, 1647, -15475, 1112, -5002, 2476, -1003, -3526, 180, 25, 5, 347, 968, 217, 198, 255, 304, 107, 247
83946083, 1647, -15475, 1112, -5002, 2476, -1003, -3526, 180, 25, 5, 347, 968, 217, 198, 255, 304, 107, 247
83946879, 1647, -15475, 1112, -5002, 2476, -1003, -3526, 180, 25, 5, 347, 968, 217, 198, 255, 304, 107, 247
83947701, 1647, -15475, 1112, -5002, 2476, -1003, -3526, 180, 25, 5, 347, 968, 217, 198, 255, 304, 107, 247
83948499, 1647, -15475, 1112, -5002, 2476, -1003, -3526, 180, 25, 5, 347, 968, 217, 198, 255, 304, 107, 247
83953449, 1647, -15475, 1112, -5002, 2476, -1003, -3526, 180, 25, 5, 347, 968, 217, 198, 255, 304, 107, 247
83954254, 1647, -15475, 1112, -5002, 2476, -1003, -3526, 180, 25, 5, 347, 968, 217, 198, 255, 304, 107, 247
83955099, 1647, -15475, 1112, -5002, 2476, -1003, -3526, 180, 25, 5, 347, 968, 217, 198, 255, 304, 107, 247
83955891, 1647, -15475, 1112, -5002, 2476, -1003, -3526, 180, 25, 5, 347, 968, 217, 198, 255, 304, 107, 247
83961069, 1647, -15475, 1112, -5002, 2476, -1003, -3526, 180, 25, 5, 354, 1042, 223, 130, 266, 332, 108, 195
83961908, 1647, -15475, 1112, -5002, 2476, -1003, -3526, 180, 25, 5, 354, 1042, 223, 130, 266, 332, 108, 195
83962704, 1647, -15475, 1112, -5002, 2476, -1003, -3526, 180, 25, 5, 354, 1042, 223, 130, 266, 332, 108, 195
83963538, 1647, -15475, 1112, -5002, 2476, -1003, -3526, 180, 25, 5, 354, 1042, 223, 130, 266, 332, 108, 195
83968470, 1647, -15475, 1112, -5002, 2476, -1003, -3526, 180, 25, 5, 354, 1042, 223, 130, 266, 332, 108, 195
83969279, 1647, -15475, 1112, -5002, 2476, -1003, -3526, 180, 25, 5, 354, 1042, 223, 130, 266, 332, 108, 195
83970096, 1647, -15475, 1112, -5002, 2476, -1003, -3526, 180, 25, 5, 354, 1042, 223, 130, 266, 332, 108, 195
83970918, 1647, -15475, 1112, -5002, 2476, -1003, -3526, 180, 25, 5, 354, 1042, 223, 130, 266, 332, 108, 195
83975971, 1647, -15475, 1112, -5002, 2476, -1003, -3526, 180, 25, 5, 354, 1042, 223, 130, 266, 332, 108, 195
83976925, 1658, -15475, 1105, -5001, 2465, -1040, -3474, 14, -5, -16, 354, 1042, 223, 130, 266, 332, 108, 195
83977719, 1658, -15475, 1105, -5001, 2465, -1040, -3474, 14, -5, -16, 330, 960, 170, 165, 270, 340, 104, 173
83978539, 1658, -15475, 1105, -5001, 2465, -1040, -3474, 14, -5, -16, 330, 960, 170, 165, 270, 340, 104, 173
83983547, 1658, -15475, 1105, -5001, 2465, -1040, -3474, 14, -5, -16, 330, 960, 170, 165, 270, 340, 104, 173
83984373, 1658, -15475, 1105, -5001, 2465, -1040, -3474, 14, -5, -16, 330, 960, 170, 165, 270, 340, 104, 173
83985181, 1658, -15475, 1105, -5001, 2465, -1040, -3474, 14, -5, -16, 330, 960, 170, 165, 270, 340, 104, 173
83985981, 1658, -15475, 1105, -5001, 2465, -1040, -3474, 14, -5, -16, 330, 960, 170, 165, 270, 340, 104, 173
83990953, 1658, -15475, 1105, -5001, 2465, -1040, -3474, 14, -5, -16, 330, 960, 170, 165, 270, 340, 104, 173
83991769, 1658, -15475, 1105, -5001, 2465, -1040, -3474, 14, -5, -16, 330, 960, 170, 165, 270, 340, 104, 173
83992571, 1658, -15475, 1105, -5001, 2465, -1040, -3474, 14, -5, -16, 330, 960, 170, 165, 270, 340, 104, 173
83993397, 1658, -15475, 1105, -5001, 2465, -1040, -3474, 14, -5, -16, 330, 960, 170, 165, 270, 340, 104, 173
83998455, 1658, -15475, 1105, -5001, 2465, -1040, -3474, 14, -5, -16, 330, 960, 170, 165, 270, 340, 104, 173
83999401, 1662, -15473, 1109, -5003, 2485, -1050, -3439, -1, -6, 18, 330, 960, 170, 165, 270, 340, 104, 173
84000218, 1662, -15473, 1109, -5003, 2485, -1050, -3439, -1, -6, 18, 291, 901, 154, 169, 270, 336, 107, 184
84001018, 1662, -15473, 1109, -5003, 2485, -1050, -3439, -1, -6, 18, 291, 901, 154, 169, 270, 336, 107, 184
84006019, 1662, -15473, 1109, -5003, 2485, -1050, -3439, -1, -6, 18, 291, 901, 154, 169, 270, 336, 107, 184
84006849, 1662, -15473, 1109, -5003, 2485, -1050, -3439, -1, -6, 18, 291, 901, 154, 169, 270, 336, 107, 184
84007662, 1662, -15473, 1109, -5003, 2485, -1050, -3439, -1, -6, 18, 291, 901, 154, 169, 270, 336, 107, 184
84008468, 1662, -15473, 1109, -5003, 2485, -1050, -3439, -1, -6, 18, 291, 901, 154, 169, 270, 336, 107, 184
84013444, 1662, -15473, 1109, -5003, 2485, -1050, -3439, -1, -6, 18, 291, 901, 154, 169, 270, 336, 107, 184
84014226, 1662, -15473, 1109, -5003, 2485, -1050, -3439, -1, -6, 18, 291, 901, 154, 169, 270, 336, 107, 184
84015048, 1662, -15473, 1109, -5003, 2485, -1050, -3439, -1, -6, 18, 291, 901, 154, 169, 270, 336, 107, 184
84015869, 1662, -15473, 1109, -5003, 2485, -1050, -3439, -1, -6, 18, 291, 901, 154, 169, 270, 336, 107, 184
84021017, 1662, -15473, 1109, -5003, 2485, -1050, -3439, -1, -6, 18, 291, 901, 154, 169, 270, 336, 107, 184
84021923, 1675, -15473, 1115, -5000, 2469, -1051, -3453, 40, -25, 50, 291, 901, 154, 169, 270, 336, 107, 184
84022750, 1675, -15473, 1115, -5000, 2469, -1051, -3453, 40, -25, 50, 303, 937, 139, 156, 229, 333, 129, 171
84023567, 1675, -15473, 1115, -5000, 2469, -1051, -3453, 40, -25, 50, 303, 937, 139, 156, 229, 333, 129, 171
84028557, 1675, -15473, 1115, -5000, 2469, -1051, -3453, 40, -25, 50, 303, 937, 139, 156, 229, 333, 129, 171
84029356, 1675, -15473, 1115, -5000, 2469, -1051, -3453, 40, -25, 50, 303, 937, 139, 156, 229, 333, 129, 171
84030189, 1675, -15473, 1115, -5000, 2469, -1051, -3453, 40, -25, 50, 303, 937, 139, 156, 229, 333, 129, 171
84031007, 1675, -15473, 1115, -5000, 2469, -1051, -3453, 40, -25, 50, 303, 937, 139, 156, 229, 333, 129, 171
84035973, 1675, -15473, 1115, -5000, 2469, -1051, -3453, 40, -25, 50, 303, 937, 139, 156, 229, 333, 129, 171
84036781, 1675, -15473, 1115, -5000, 2469, -1051, -3453, 40, -25, 50, 303, 937, 139, 156, 229, 333, 129, 171
84037595, 1675, -15473, 1115, -5000, 2469, -1051, -3453, 40, -25, 50, 303, 937, 139, 156, 229, 333, 129, 171
84038400, 1675, -15473, 1115, -5000, 2469, -1051, -3453, 40, -25, 50, 303, 937, 139, 156, 229, 333, 129, 171
84051167, 1675, -15473, 1115, -5000, 2469, -1051, -3453, 40, -25, 50, 303, 937, 139, 156, 229, 333, 129, 171
84051895, 1681, -15474, 1118, -4992, 2470, -1006, -3464, 35, -55, 36, 303, 937, 139, 156, 229, 333, 129, 171
84052705, 1681, -15474, 1118, -4992, 2470, -1006, -3464, 35, -55, 36, 276, 954, 132, 160, 199, 302, 123, 165
84053573, 1681, -15474, 1118, -4992, 2470, -1006, -3464, 35, -55, 36, 276, 954, 132, 160, 199, 302, 123, 165
84058532, 1681, -15474, 1118, -4992, 2470, -1006, -3464, 35, -55, 36, 276, 954, 132, 160, 199, 302, 123, 165
84059364, 1681, -15474, 1118, -4992, 2470, -1006, -3464, 35, -55, 36, 276, 954, 132, 160, 199, 302, 123, 165
84060226, 1681, -15474, 1118, -4992, 2470, -1006, -3464, 35, -55, 36, 276, 954, 132, 160, 199, 302, 123, 165
84060992, 1681, -15474, 1118, -4992, 2470, -1006, -3464, 35, -55, 36, 276, 954, 132, 160, 199, 302, 123, 165
84065970, 1681, -15474, 1118, -4992, 2470, -1006, -3464, 35, -55, 36, 276, 954, 132, 160, 199, 302, 123, 165
84066783, 1681, -15474, 1118, -4992, 2470, -1006, -3464, 35, -55, 36, 276, 954, 132, 160, 199, 302, 123, 165
84067586, 1681, -15474, 1118, -4992, 2470, -1006, -3464, 35, -55, 36, 276, 954, 132, 160, 199, 302, 123, 165
84068407, 1681, -15474, 1118, -4992, 2470, -1006, -3464, 35, -55, 36, 276, 954, 132, 160, 199, 302, 123, 165
84073483, 1681, -15474, 1118, -4992, 2470, -1006, -3464, 35, -55, 36, 276, 954, 132, 160, 199, 302, 123, 165
84074410, 1679, -15477, 1122, -4985, 2471, -997, -3433, -16, -63, 37, 276, 954, 132, 160, 199, 302, 123, 165
84075261, 1679, -15477, 1122, -4985, 2471, -997, -3433, -16, -63, 37, 262, 918, 139, 156, 185, 333, 122, 161
84076056, 1679, -15477, 1122, -4985, 2471, -997, -3433, -16, -63, 37, 262, 918, 139, 156, 185, 333, 122, 161
84081114, 1679, -15477, 1122, -4985, 2471, -997, -3433, -16, -63, 37, 262, 918, 139, 156, 185, 333, 122, 161
84081877, 1679, -15477, 1122, -4985, 2471, -997, -3433, -16, -63, 37, 262, 918, 139, 156, 185, 333, 122, 161
84082714, 1679, -15477, 1122, -4985, 2471, -997, -3433, -16, -63, 37, 262, 918, 139, 156, 185, 333, 122, 161
84083502, 1679, -15477, 1122, -4985, 2471, -997, -3433, -16, -63, 37, 262, 918, 139, 156, 185, 333, 122, 161
84088447, 1679, -15477, 1122, -4985, 2471, -997, -3433, -16, -63, 37, 262, 918, 139, 156, 185, 333, 122, 161
84089265, 1679, -15477, 1122, -4985, 2471, -997, -3433, -16, -63, 37, 262, 918, 139, 156, 185, 333, 122, 161
84090095, 1679, -15477, 1122, -4985, 2471, -997, -3433, -16, -63, 37, 262, 918, 139, 156, 185, 333, 122, 161
84090945, 1679, -15477, 1122, -4985, 2471, -997, -3433, -16, -63, 37, 262, 918, 139, 156, 185, 333, 122, 161
84095983, 1679, -15477, 1122, -4985, 2471, -997, -3433, -16, -63, 37, 262, 918, 139, 156, 185, 333, 122, 161
84096892, 1676, -15477, 1128, -4985, 2472, -1033, -3411, -33, -25, 29, 262, 918, 139, 156, 185, 333, 122, 161
84097712, 1676, -15477, 1128, -4985, 2472, -1033, -3411, -33, -25, 29, 306, 931, 153, 108, 194, 357, 120, 183
84098534, 1676, -15477, 1128, -4985, 2472, -1033, -3411, -33, -25, 29, 306, 931, 153, 108, 194, 357, 120, 183
84103557, 1676, -15477, 1128, -4985, 2472, -1033, -3411, -33, -25, 29, 306, 931, 153, 108, 194, 357, 120, 183
84104372, 1676, -15477, 1128, -4985, 2472, -1033, -3411, -33, -25, 29, 306, 931, 153, 108, 194, 357, 120, 183
84105189, 1676, -15477, 1128, -4985, 2472, -1033, -3411, -33, -25, 29, 306, 931, 153, 108, 194, 357, 120, 183
84106002, 1676, -15477, 1128, -4985, 2472, -1033, -3411, -33, -25, 29, 306, 931, 153, 108, 194, 357, 120, 183
84108723, 1676, -15477, 1128, -4985, 2472, -1033, -3411, -33, -25, 29, 306, 931, 153, 108, 194, 357, 120, 183
84118494, 1676, -15477, 1128, -4985, 2472, -1033, -3411, -33, -25, 29, 306, 931, 153, 108, 194, 357, 120, 183
84119358, 1676, -15477, 1128, -4985, 2472, -1033, -3411, -33, -25, 29, 306, 931, 153, 108, 194, 357, 120, 183
84120057, 1676, -15477, 1128, -4985, 2472, -1033, -3411, -33, -25, 29, 306, 931, 153, 108, 194, 357, 120, 183
84120932, 1676, -15477, 1128, -4985, 2472, -1033, -3411, -33, -25, 29, 306, 931, 153, 108, 194, 357, 120, 183
84126077, 1678, -15475, 1134, -4988, 2476, -1028, -3422, -1, -2, 35, 306, 931, 153, 108, 194, 357, 120, 183
84126867, 1678, -15475, 1134, -4988, 2476, -1028, -3422, -1, -2, 35, 345, 905, 162, 96, 190, 372, 122, 175
84127689, 1678, -15475, 1134, -4988, 2476, -1028, -3422, -1, -2, 35, 345, 905, 162, 96, 190, 372, 122, 175
84128506, 1678, -15475, 1134, -4988, 2476, -1028, -3422, -1, -2, 35, 345, 905, 162, 96, 190, 372, 122, 175
84133479, 1678, -15475, 1134, -4988, 2476, -1028, -3422, -1, -2, 35, 345, 905, 162, 96, 190, 372, 122, 175
84134273, 1678, -15475, 1134, -4988, 2476, -1028, -3422, -1, -2, 35, 345, 905, 162, 96, 190, 372, 122, 175
84135103, 1678, -15475, 1134, -4988, 2476, -1028, -3422, -1, -2, 35, 345, 905, 162, 96, 190, 372, 122, 175
84135895, 1678, -15475, 1134, -4988, 2476, -1028, -3422, -1, -2, 35, 345, 905, 162, 96, 190, 372, 122, 175
84140956, 1678, -15475, 1134, -4988, 2476, -1028, -3422, -1, -2, 35, 345, 905, 162, 96, 190, 372, 122, 175
84141906, 1680, -15473, 1135, -4992, 2483, -985, -3438, 23, -1, 27, 345, 905, 162, 96, 190, 372, 122, 175
84142704, 1680, -15473, 1135, -4992, 2483, -985, -3438, 23, -1, 27, 344, 913, 174, 95, 176, 368, 107, 151
84143531, 1680, -15473, 1135, -4992, 2483, -985, -3438, 23, -1, 27, 344, 913, 174, 95, 176, 368, 107, 151
84148540, 1680, -15473, 1135, -4992, 2483, -985, -3438, 23, -1, 27, 344, 913, 174, 95, 176, 368, 107, 151
84149365, 1680, -15473, 1135, -4992, 2483, -985, -3438, 23, -1, 27, 344, 913, 174, 95, 176, 368, 107, 151
84150159, 1680, -15473, 1135, -4992, 2483, -985, -3438, 23, -1, 27, 344, 913, 174, 95, 176, 368, 107, 151
84150987, 1680, -15473, 1135, -4992, 2483, -985, -3438, 23, -1, 27, 344, 913, 174, 95, 176, 368, 107, 151
84155932, 1680, -15473, 1135, -4992, 2483, -985, -3438, 23, -1, 27, 344, 913, 174, 95, 176, 368, 107, 151
84156727, 1680, -15473, 1135, -4992, 2483, -985, -3438, 23, -1, 27, 344, 913, 174, 95, 176, 368, 107, 151
84157556, 1680, -15473, 1135, -4992, 2483, -985, -3438, 23, -1, 27, 344, 913, 174, 95, 176, 368, 107, 151
84158383, 1680, -15473, 1135, -4992, 2483, -985, -3438, 23, -1, 27, 344, 913, 174, 95, 176, 368, 107, 151
84163435, 1680, -15473, 1135, -4992, 2483, -985, -3438, 23, -1, 27, 344, 913, 174, 95, 176, 368, 107, 151
84164386, 1673, -15473, 1138, -4993, 2495, -999, -3446, -28, -15, 18, 344, 913, 174, 95, 176, 368, 107, 151
84165200, 1673, -15473, 1138, -4993, 2495, -999, -3446, -28, -15, 18, 346, 819, 184, 96, 168, 335, 106, 144
84166022, 1673, -15473, 1138, -4993, 2495, -999, -3446, -28, -15, 18, 346, 819, 184, 96, 168, 335, 106, 144
84171050, 1673, -15473, 1138, -4993, 2495, -999, -3446, -28, -15, 18, 346, 819, 184, 96, 168, 335, 106, 144
84171864, 1673, -15473, 1138, -4993, 2495, -999, -3446, -28, -15, 18, 346, 819, 184, 96, 168, 335, 106, 144
84172641, 1673, -15473, 1138, -4993, 2495, -999, -3446, -28, -15, 18, 346, 819, 184, 96, 168, 335, 106, 144
84173473, 1673, -15473, 1138, -4993, 2495, -999, -3446, -28, -15, 18, 346, 819, 184, 96, 168, 335, 106, 144
84178484, 1673, -15473, 1138, -4993, 2495, -999, -3446, -28, -15, 18, 346, 819, 184, 96, 168, 335, 106, 144
84179364, 1673, -15473, 1138, -4993, 2495, -999, -3446, -28, -15, 18, 346, 819, 184, 96, 168, 335, 106, 144
84180037, 1673, -15473, 1138, -4993, 2495, -999, -3446, -28, -15, 18, 346, 819, 184, 96, 168, 335, 106, 144
84180915, 1673, -15473, 1138, -4993, 2495, -999, -3446, -28, -15, 18, 346, 819, 184, 96, 168, 335, 106, 144
84185998, 1673, -15473, 1138, -4993, 2495, -999, -3446, -28, -15, 18, 346, 819, 184, 96, 168, 335, 106, 144
84186920, 1664, -15474, 1145, -4992, 2484, -1012, -3446, -60, -21, 26, 346, 819, 184, 96, 168, 335, 106, 144
84187745, 1664, -15474, 1145, -4992, 2484, -1012, -3446, -60, -21, 26, 348, 796, 170, 104, 149, 285, 110, 173
84188541, 1664, -15474, 1145, -4992, 2484, -1012, -3446, -60, -21, 26, 348, 796, 170, 104, 149, 285, 110, 173
84193574, 1664, -15474, 1145, -4992, 2484, -1012, -3446, -60, -21, 26, 348, 796, 170, 104, 149, 285, 110, 173
84194365, 1664, -15474, 1145, -4992, 2484, -1012, -3446, -60, -21, 26, 348, 796, 170, 104, 149, 285, 110, 173
84195186, 1664, -15474, 1145, -4992, 2484, -1012, -3446, -60, -21, 26, 348, 796, 170, 104, 149, 285, 110, 173
84195982, 1664, -15474, 1145, -4992, 2484, -1012, -3446, -60, -21, 26, 348, 796, 170, 104, 149, 285, 110, 173
84200950, 1664, -15474, 1145, -4992, 2484, -1012, -3446, -60, -21, 26, 348, 796, 170, 104, 149, 285, 110, 173
84201779, 1664, -15474, 1145, -4992, 2484, -1012, -3446, -60, -21, 26, 348, 796, 170, 104, 149, 285, 110, 173
84202598, 1664, -15474, 1145, -4992, 2484, -1012, -3446, -60, -21, 26, 348, 796, 170, 104, 149, 285, 110, 173
84203395, 1664, -15474, 1145, -4992, 2484, -1012, -3446, -60, -21, 26, 348, 796, 170, 104, 149, 285, 110, 173
84208475, 1664, -15474, 1145, -4992, 2484, -1012, -3446, -60, -21, 26, 348, 796, 170, 104, 149, 285, 110, 173
84209399, 1663, -15473, 1152, -4995, 2481, -1052, -3434, -31, -4, 32, 348, 796, 170, 104, 149, 285, 110, 173
84210209, 1663, -15473, 1152, -4995, 2481, -1052, -3434, -31, -4, 32, 306, 916, 166, 103, 121, 255, 103, 177
84211018, 1663, -15473, 1152, -4995, 2481, -1052, -3434, -31, -4, 32, 306, 916, 166, 103, 121, 255, 103, 177
84223549, 1663, -15473, 1152, -4995, 2481, -1052, -3434, -31, -4, 32, 306, 916, 166, 103, 121, 255, 103, 177
84224370, 1663, -15473, 1152, -4995, 2481, -1052, -3434, -31, -4, 32, 306, 916, 166, 103, 121, 255, 103, 177
84225178, 1663, -15473, 1152, -4995, 2481, -1052, -3434, -31, -4, 32, 306, 916, 166, 103, 121, 255, 103, 177
84225996, 1663, -15473, 1152, -4995, 2481, -1052, -3434, -31, -4, 32, 306, 916, 166, 103, 121, 255, 103, 177
84230937, 1663, -15473, 1152, -4995, 2481, -1052, -3434, -31, -4, 32, 306, 916, 166, 103, 121, 255, 103, 177
84231773, 1663, -15473, 1152, -4995, 2481, -1052, -3434, -31, -4, 32, 306, 916, 166, 103, 121, 255, 103, 177
84232573, 1663, -15473, 1152, -4995, 2481, -1052, -3434, -31, -4, 32, 306, 916, 166, 103, 121, 255, 103, 177
84233373, 1663, -15473, 1152, -4995, 2481, -1052, -3434, -31, -4, 32, 306, 916, 166, 103, 121, 255, 103, 177
84238549, 1663, -15473, 1152, -4995, 2481, -1052, -3434, -31, -4, 32, 267, 882, 149, 100, 112, 205, 93, 160
84239364, 1663, -15473, 1152, -4995, 2481, -1052, -3434, -31, -4, 32, 267, 882, 149, 100, 112, 205, 93, 160
84240184, 1663, -15473, 1152, -4995, 2481, -1052, -3434, -31, -4, 32, 267, 882, 149, 100, 112, 205, 93, 160
84240987, 1663, -15473, 1152, -4995, 2481, -1052, -3434, -31, -4, 32, 267, 882, 149, 100, 112, 205, 93, 160
84245948, 1663, -15473, 1152, -4995, 2481, -1052, -3434, -31, -4, 32, 267, 882, 149, 100, 112, 205, 93, 160
84246822, 1663, -15473, 1152, -4995, 2481, -1052, -3434, -31, -4, 32, 267, 882, 149, 100, 112, 205, 93, 160
84247598, 1663, -15473, 1152, -4995, 2481, -1052, -3434, -31, -4, 32, 267, 882, 149, 100, 112, 205, 93, 160
84248425, 1663, -15473, 1152, -4995, 2481, -1052, -3434, -31, -4, 32, 267, 882, 149, 100, 112, 205, 93, 160
84253488, 1663, -15473, 1152, -4995, 2481, -1052, -3434, -31, -4, 32, 267, 882, 149, 100, 112, 205, 93, 160
84254386, 1667, -15471, 1157, -4999, 2450, -994, -3456, -15, -1, 3, 267, 882, 149, 100, 112, 205, 93, 160
84255230, 1667, -15471, 1157, -4999, 2450, -994, -3456, -15, -1, 3, 250, 747, 149, 98, 101, 241, 82, 159
84256022, 1667, -15471, 1157, -4999, 2450, -994, -3456, -15, -1, 3, 250, 747, 149, 98, 101, 241, 82, 159
84261063, 1667, -15471, 1157, -4999, 2450, -994, -3456, -15, -1, 3, 250, 747, 149, 98, 101, 241, 82, 159
84261837, 1667, -15471, 1157, -4999, 2450, -994, -3456, -15, -1, 3, 250, 747, 149, 98, 101, 241, 82, 159
84262640, 1667, -15471, 1157, -4999, 2450, -994, -3456, -15, -1, 3, 250, 747, 149, 98, 101, 241, 82, 159
84263482, 1667, -15471, 1157, -4999, 2450, -994, -3456, -15, -1, 3, 250, 747, 149, 98, 101, 241, 82, 159
84268439, 1667, -15471, 1157, -4999, 2450, -994, -3456, -15, -1, 3, 250, 747, 149, 98, 101, 241, 82, 159
84269250, 1667, -15471, 1157, -4999, 2450, -994, -3456, -15, -1, 3, 250, 747, 149, 98, 101, 241, 82, 159
84270055, 1667, -15471, 1157, -4999, 2450, -994, -3456, -15, -1, 3, 250, 747, 149, 98, 101, 241, 82, 159
84270867, 1667, -15471, 1157, -4999, 2450, -994, -3456, -15, -1, 3, 250, 747, 149, 98, 101, 241, 82, 159
84275998, 1667, -15471, 1157, -4999, 2450, -994, -3456, -15, -1, 3, 250, 747, 149, 98, 101, 241, 82, 159
84276917, 1655, -15473, 1153, -4996, 2467, -998, -3468, -49, -22, -29, 250, 747, 149, 98, 101, 241, 82, 159
84277740, 1655, -15473, 1153, -4996, 2467, -998, -3468, -49, -22, -29, 279, 821, 141, 86, 107, 261, 91, 189
84278569, 1655, -15473, 1153, -4996, 2467, -998, -3468, -49, -22, -29, 279, 821, 141, 86, 107, 261, 91, 189
84283605, 1655, -15473, 1153, -4996, 2467, -998, -3468, -49, -22, -29, 279, 821, 141, 86, 107, 261, 91, 189
84284433, 1655, -15473, 1153, -4996, 2467, -998, -3468, -49, -22, -29, 279, 821, 141, 86, 107, 261, 91, 189
84285268, 1655, -15473, 1153, -4996, 2467, -998, -3468, -49, -22, -29, 279, 821, 141, 86, 107, 261, 91, 189
84286028, 1655, -15473, 1153, -4996, 2467, -998, -3468, -49, -22, -29, 279, 821, 141, 86, 107, 261, 91, 189
84290973, 1655, -15473, 1153, -4996, 2467, -998, -3468, -49, -22, -29, 279, 821, 141, 86, 107, 261, 91, 189
84291786, 1655, -15473, 1153, -4996, 2467, -998, -3468, -49, -22, -29, 279, 821, 141, 86, 107, 261, 91, 189
84292589, 1655, -15473, 1153, -4996, 2467, -998, -3468, -49, -22, -29, 279, 821, 141, 86, 107, 261, 91, 189
84293395, 1655, -15473, 1153, -4996, 2467, -998, -3468, -49, -22, -29, 279, 821, 141, 86, 107, 261, 91, 189
84298477, 1655, -15473, 1153, -4996, 2467, -998, -3468, -49, -22, -29, 279, 821, 141, 86, 107, 261, 91, 189
84299430, 1642, -15476, 1151, -4993, 2447, -1017, -3438, -74, -25, -34, 279, 821, 141, 86, 107, 261, 91, 189
84300215, 1642, -15476, 1151, -4993, 2447, -1017, -3438, -74, -25, -34, 315, 827, 148, 93, 115, 235, 101, 208
84301047, 1642, -15476, 1151, -4993, 2447, -1017, -3438, -74, -25, -34, 315, 827, 148, 93, 115, 235, 101, 208
84306053, 1642, -15476, 1151, -4993, 2447, -1017, -3438, -74, -25, -34, 315, 827, 148, 93, 115, 235, 101, 208
84306875, 1642, -15476, 1151, -4993, 2447, -1017, -3438, -74, -25, -34, 315, 827, 148, 93, 115, 235, 101, 208
84307684, 1642, -15476, 1151, -4993, 2447, -1017, -3438, -74, -25, -34, 315, 827, 148, 93, 115, 235, 101, 208
84308506, 1642, -15476, 1151, -4993, 2447, -1017, -3438, -74, -25, -34, 315, 827, 148, 93, 115, 235, 101, 208