Timestamp, Orientation x, Orientation y, Orientation z, Orientation w, Acceleration x, Acceleration y, Acceleration z, Rotation x, Rotation y, Rotation z, EMG 0, EMG 1, EMG 2, EMG 3, EMG 4, EMG 5, EMG 6, EMG 7
16331086, 1879, -15294, 4031, -3842, 2640, -1025, -3316, 104, -158, 89, 0, 0, 0, 0, 0, 0, 0, 0
16338583, 1845, -15287, 4009, -3909, 2578, -1017, -3342, 69, -129, 57, 0, 0, 0, 0, 0, 0, 0, 0
16346177, 1801, -15283, 3983, -3972, 2542, -1007, -3385, 20, -92, 8, 0, 0, 0, 0, 0, 0, 0, 0
16361065, 1751, -15281, 3955, -4030, 2519, -1029, -3379, -32, -89, -31, 0, 0, 0, 0, 0, 0, 0, 0
16383587, 1711, -15276, 3931, -4089, 2498, -1073, -3377, -11, -58, -14, 0, 0, 0, 0, 0, 0, 0, 0
16399221, 1711, -15276, 3931, -4089, 2498, -1073, -3377, -11, -58, -14, 578, 319, 91, 49, 195, 199, 278, 168
16400035, 1711, -15276, 3931, -4089, 2498, -1073, -3377, -11, -58, -14, 578, 319, 91, 49, 195, 199, 278, 168
16406185, 1675, -15269, 3913, -4148, 2475, -1055, -3392, 12, -27, 14, 578, 319, 91, 49, 195, 199, 278, 168
16422439, 1675, -15269, 3913, -4148, 2475, -1055, -3392, 12, -27, 14, 555, 296, 83, 49, 160, 160, 195, 170
16423130, 1675, -15269, 3913, -4148, 2475, -1055, -3392, 12, -27, 14, 555, 296, 83, 49, 160, 160, 195, 170
16424138, 1639, -15261, 3899, -4204, 2457, -1043, -3393, 0, -10, 32, 555, 296, 83, 49, 160, 160, 195, 170
16444909, 1639, -15261, 3899, -4204, 2457, -1043, -3393, 0, -10, 32, 534, 304, 81, 57, 138, 154, 185, 162
16445752, 1639, -15261, 3899, -4204, 2457, -1043, -3393, 0, -10, 32, 534, 304, 81, 57, 138, 154, 185, 162
16446660, 1593, -15254, 3890, -4254, 2458, -1073, -3393, -84, -9, 25, 534, 304, 81, 57, 138, 154, 185, 162
16459181, 1593, -15254, 3890, -4254, 2458, -1073, -3393, -84, -9, 25, 328, 221, 74, 63, 134, 143, 152, 128
16459979, 1593, -15254, 3890, -4254, 2458, -1073, -3393, -84, -9, 25, 328, 221, 74, 63, 134, 143, 152, 128
16466135, 1550, -15247, 3881, -4304, 2443, -1121, -3386, -100, 4, 4, 328, 221, 74, 63, 134, 143, 152, 128
16482436, 1550, -15247, 3881, -4304, 2443, -1121, -3386, -100, 4, 4, 109, 187, 68, 66, 132, 161, 162, 136
16483191, 1550, -15247, 3881, -4304, 2443, -1121, -3386, -100, 4, 4, 109, 187, 68, 66, 132, 161, 162, 136
16484134, 1514, -15238, 3873, -4356, 2443, -1126, -3376, -70, 24, 13, 109, 187, 68, 66, 132, 161, 162, 136
16504905, 1514, -15238, 3873, -4356, 2443, -1126, -3376, -70, 24, 13, 101, 154, 63, 60, 132, 172, 196, 136
16505736, 1514, -15238, 3873, -4356, 2443, -1126, -3376, -70, 24, 13, 101, 154, 63, 60, 132, 172, 196, 136
16506669, 1484, -15230, 3862, -4403, 2434, -1113, -3379, -37, 10, 7, 101, 154, 63, 60, 132, 172, 196, 136
16519195, 1484, -15230, 3862, -4403, 2434, -1113, -3379, -37, 10, 7, 91, 159, 58, 60, 136, 174, 200, 137
16520007, 1484, -15230, 3862, -4403, 2434, -1113, -3379, -37, 10, 7, 91, 159, 58, 60, 136, 174, 200, 137
16526169, 1459, -15222, 3853, -4446, 2409, -1107, -3378, -23, 3, 13, 91, 159, 58, 60, 136, 174, 200, 137
16542453, 1459, -15222, 3853, -4446, 2409, -1107, -3378, -23, 3, 13, 79, 135, 50, 53, 136, 173, 198, 138
16543205, 1459, -15222, 3853, -4446, 2409, -1107, -3378, -23, 3, 13, 79, 135, 50, 53, 136, 173, 198, 138
16544162, 1436, -15215, 3846, -4482, 2415, -1114, -3377, -26, -24, 20, 79, 135, 50, 53, 136, 173, 198, 138
16564848, 1436, -15215, 3846, -4482, 2415, -1114, -3377, -26, -24, 20, 74, 125, 56, 45, 132, 137, 198, 124
16565695, 1436, -15215, 3846, -4482, 2415, -1114, -3377, -26, -24, 20, 74, 125, 56, 45, 132, 137, 198, 124
16566616, 1419, -15209, 3837, -4516, 2408, -1142, -3360, -18, -38, 11, 74, 125, 56, 45, 132, 137, 198, 124
16579207, 1419, -15209, 3837, -4516, 2408, -1142, -3360, -18, -38, 11, 67, 143, 56, 42, 133, 96, 163, 100
16580010, 1419, -15209, 3837, -4516, 2408, -1142, -3360, -18, -38, 11, 67, 143, 56, 42, 133, 96, 163, 100
16586159, 1400, -15204, 3828, -4548, 2414, -1129, -3351, -23, -38, 7, 67, 143, 56, 42, 133, 96, 163, 100
16602430, 1400, -15204, 3828, -4548, 2414, -1129, -3351, -23, -38, 7, 61, 138, 57, 43, 134, 73, 100, 93
16603216, 1400, -15204, 3828, -4548, 2414, -1129, -3351, -23, -38, 7, 61, 138, 57, 43, 134, 73, 100, 93
16604157, 1390, -15197, 3818, -4583, 2412, -1157, -3345, 18, -24, 1, 61, 138, 57, 43, 134, 73, 100, 93
16624881, 1390, -15197, 3818, -4583, 2412, -1157, -3345, 18, -24, 1, 65, 127, 88, 42, 129, 68, 70, 82
16625708, 1390, -15197, 3818, -4583, 2412, -1157, -3345, 18, -24, 1, 65, 127, 88, 42, 129, 68, 70, 82
16626637, 1388, -15190, 3801, -4620, 2392, -1136, -3336, 76, -9, -22, 65, 127, 88, 42, 129, 68, 70, 82
16639205, 1388, -15190, 3801, -4620, 2392, -1136, -3336, 76, -9, -22, 354, 136, 128, 43, 110, 63, 68, 81
16640024, 1388, -15190, 3801, -4620, 2392, -1136, -3336, 76, -9, -22, 354, 136, 128, 43, 110, 63, 68, 81
16646193, 1383, -15185, 3782, -4654, 2394, -1111, -3355, 79, -11, -31, 354, 136, 128, 43, 110, 63, 68, 81
16662355, 1383, -15185, 3782, -4654, 2394, -1111, -3355, 79, -11, -31, 454, 171, 155, 59, 97, 66, 123, 124
16663176, 1383, -15185, 3782, -4654, 2394, -1111, -3355, 79, -11, -31, 454, 171, 155, 59, 97, 66, 123, 124
16664107, 1377, -15180, 3772, -4678, 2378, -1113, -3353, 44, -48, 11, 454, 171, 155, 59, 97, 66, 123, 124
16684908, 1377, -15180, 3772, -4678, 2378, -1113, -3353, 44, -48, 11, 510, 163, 161, 84, 102, 92, 243, 175
16685698, 1377, -15180, 3772, -4678, 2378, -1113, -3353, 44, -48, 11, 510, 163, 161, 84, 102, 92, 243, 175
16686649, 1388, -15173, 3772, -4698, 2354, -1220, -3307, 60, -67, 61, 510, 163, 161, 84, 102, 92, 243, 175
16699150, 1388, -15173, 3772, -4698, 2354, -1220, -3307, 60, -67, 61, 653, 198, 167, 86, 139, 118, 346, 241
16699981, 1388, -15173, 3772, -4698, 2354, -1220, -3307, 60, -67, 61, 653, 198, 167, 86, 139, 118, 346, 241
16706203, 1428, -15165, 3766, -4716, 2343, -1325, -3275, 176, -125, 55, 653, 198, 167, 86, 139, 118, 346, 241
16721714, 1428, -15165, 3766, -4716, 2343, -1325, -3275, 176, -125, 55, 673, 199, 155, 88, 148, 135, 354, 246
16722529, 1428, -15165, 3766, -4716, 2343, -1325, -3275, 176, -125, 55, 673, 199, 155, 88, 148, 135, 354, 246
16728688, 1508, -15157, 3744, -4735, 2313, -1401, -3229, 382, -174, 21, 673, 199, 155, 88, 148, 135, 354, 246
16744862, 1508, -15157, 3744, -4735, 2313, -1401, -3229, 382, -174, 21, 592, 201, 127, 87, 177, 141, 363, 256
16745684, 1508, -15157, 3744, -4735, 2313, -1401, -3229, 382, -174, 21, 592, 201, 127, 87, 177, 141, 363, 256
16746646, 1623, -15149, 3709, -4750, 2286, -1380, -3244, 618, -223, 25, 592, 201, 127, 87, 177, 141, 363, 256
16759214, 1623, -15149, 3709, -4750, 2286, -1380, -3244, 618, -223, 25, 527, 181, 89, 82, 179, 151, 351, 239
16760006, 1623, -15149, 3709, -4750, 2286, -1380, -3244, 618, -223, 25, 527, 181, 89, 82, 179, 151, 351, 239
16766163, 1735, -15147, 3657, -4757, 2301, -1362, -3227, 647, -293, -41, 527, 181, 89, 82, 179, 151, 351, 239
16781679, 1735, -15147, 3657, -4757, 2301, -1362, -3227, 647, -293, -41, 475, 176, 93, 66, 222, 153, 282, 206
16782502, 1735, -15147, 3657, -4757, 2301, -1362, -3227, 647, -293, -41, 475, 176, 93, 66, 222, 153, 282, 206
16788650, 1889, -15142, 3587, -4766, 2247, -1628, -3126, 783, -337, -129, 475, 176, 93, 66, 222, 153, 282, 206
16804907, 1889, -15142, 3587, -4766, 2247, -1628, -3126, 783, -337, -129, 253, 247, 93, 73, 212, 145, 138, 151
16805706, 1889, -15142, 3587, -4766, 2247, -1628, -3126, 783, -337, -129, 253, 247, 93, 73, 212, 145, 138, 151
16806648, 2118, -15131, 3486, -4781, 2204, -1844, -3068, 1174, -407, -199, 253, 247, 93, 73, 212, 145, 138, 151
16819174, 2118, -15131, 3486, -4781, 2204, -1844, -3068, 1174, -407, -199, 208, 279, 91, 79, 230, 142, 145, 175
16819975, 2118, -15131, 3486, -4781, 2204, -1844, -3068, 1174, -407, -199, 208, 279, 91, 79, 230, 142, 145, 175
16826130, 2409, -15108, 3360, -4807, 2245, -1902, -3017, 1581, -442, -193, 208, 279, 91, 79, 230, 142, 145, 175
16841736, 2409, -15108, 3360, -4807, 2245, -1902, -3017, 1581, -442, -193, 176, 358, 96, 94, 256, 153, 139, 277
16842536, 2409, -15108, 3360, -4807, 2245, -1902, -3017, 1581, -442, -193, 176, 358, 96, 94, 256, 153, 139, 277
16848689, 2739, -15094, 3193, -4789, 2239, -1817, -3019, 1951, -627, -281, 176, 358, 96, 94, 256, 153, 139, 277
16864880, 2739, -15094, 3193, -4789, 2239, -1817, -3019, 1951, -627, -281, 196, 394, 127, 108, 334, 184, 223, 478
16865670, 2739, -15094, 3193, -4789, 2239, -1817, -3019, 1951, -627, -281, 196, 394, 127, 108, 334, 184, 223, 478
16866626, 3095, -15085, 2968, -4745, 2308, -1714, -2923, 2165, -867, -494, 196, 394, 127, 108, 334, 184, 223, 478
16879212, 3095, -15085, 2968, -4745, 2308, -1714, -2923, 2165, -867, -494, 206, 420, 180, 115, 323, 193, 284, 539
16880001, 3095, -15085, 2968, -4745, 2308, -1714, -2923, 2165, -867, -494, 206, 420, 180, 115, 323, 193, 284, 539
16886161, 3460, -15085, 2683, -4662, 2386, -1486, -2980, 2299, -1157, -723, 206, 420, 180, 115, 323, 193, 284, 539
16901677, 3460, -15085, 2683, -4662, 2386, -1486, -2980, 2299, -1157, -723, 241, 420, 298, 118, 326, 256, 349, 629
16902507, 3460, -15085, 2683, -4662, 2386, -1486, -2980, 2299, -1157, -723, 241, 420, 298, 118, 326, 256, 349, 629
16908652, 3741, -15101, 2390, -4550, 2474, -1474, -3065, 1852, -1274, -871, 241, 420, 298, 118, 326, 256, 349, 629
16924907, 3741, -15101, 2390, -4550, 2474, -1474, -3065, 1852, -1274, -871, 263, 426, 312, 156, 323, 288, 348, 659
16925729, 3741, -15101, 2390, -4550, 2474, -1474, -3065, 1852, -1274, -871, 263, 426, 312, 156, 323, 288, 348, 659
16926658, 4029, -15102, 2097, -4443, 2506, -1817, -2961, 1881, -1241, -857, 263, 426, 312, 156, 323, 288, 348, 659
16939186, 4029, -15102, 2097, -4443, 2506, -1817, -2961, 1881, -1241, -857, 287, 382, 318, 166, 303, 320, 373, 708
16940006, 4029, -15102, 2097, -4443, 2506, -1817, -2961, 1881, -1241, -857, 287, 382, 318, 166, 303, 320, 373, 708
16946149, 4351, -15088, 1785, -4321, 2350, -1737, -2999, 2119, -1326, -868, 287, 382, 318, 166, 303, 320, 373, 708
16961658, 4351, -15088, 1785, -4321, 2350, -1737, -2999, 2119, -1326, -868, 286, 342, 325, 161, 219, 400, 342, 658
16962474, 4351, -15088, 1785, -4321, 2350, -1737, -2999, 2119, -1326, -868, 286, 342, 325, 161, 219, 400, 342, 658
16968712, 4638, -15069, 1459, -4211, 2443, -1430, -2943, 2006, -1265, -977, 286, 342, 325, 161, 219, 400, 342, 658
16984877, 4638, -15069, 1459, -4211, 2443, -1430, -2943, 2006, -1265, -977, 282, 354, 305, 157, 208, 407, 313, 735
16985703, 4638, -15069, 1459, -4211, 2443, -1430, -2943, 2006, -1265, -977, 282, 354, 305, 157, 208, 407, 313, 735
16986628, 4884, -15038, 1142, -4140, 2418, -1328, -2855, 1837, -1019, -1037, 282, 354, 305, 157, 208, 407, 313, 735
16998553, 4884, -15038, 1142, -4140, 2418, -1328, -2855, 1837, -1019, -1037, 302, 321, 272, 160, 234, 383, 264, 745
17006710, 4884, -15038, 1142, -4140, 2418, -1328, -2855, 1837, -1019, -1037, 302, 321, 272, 160, 234, 383, 264, 745
17007657, 5105, -14995, 837, -4102, 2402, -1306, -2990, 1741, -780, -1052, 302, 321, 272, 160, 234, 383, 264, 745
17021707, 5105, -14995, 837, -4102, 2402, -1306, -2990, 1741, -780, -1052, 318, 298, 309, 125, 255, 366, 287, 776
17022519, 5105, -14995, 837, -4102, 2402, -1306, -2990, 1741, -780, -1052, 318, 298, 309, 125, 255, 366, 287, 776
17028656, 5201, -14974, 530, -4112, 2436, -1231, -3010, 1500, -678, -937, 318, 298, 309, 125, 255, 366, 287, 776
17044906, 5201, -14974, 530, -4112, 2436, -1231, -3010, 1500, -678, -937, 292, 286, 304, 105, 249, 349, 259, 726
17045731, 5201, -14974, 530, -4112, 2436, -1231, -3010, 1500, -678, -937, 292, 286, 304, 105, 249, 349, 259, 726
17046660, 5276, -14950, 258, -4127, 2433, -1227, -2913, 1320, -574, -801, 292, 286, 304, 105, 249, 349, 259, 726
17058552, 5276, -14950, 258, -4127, 2433, -1227, -2913, 1320, -574, -801, 280, 294, 287, 96, 245, 250, 249, 687
17066731, 5276, -14950, 258, -4127, 2433, -1227, -2913, 1320, -574, -801, 280, 294, 287, 96, 245, 250, 249, 687
17067680, 5304, -14932, 16, -4166, 2536, -1096, -2856, 1059, -424, -712, 280, 294, 287, 96, 245, 250, 249, 687
17083775, 5304, -14932, 16, -4166, 2536, -1096, -2856, 1059, -424, -712, 285, 298, 282, 90, 246, 249, 259, 618
17084589, 5304, -14932, 16, -4166, 2536, -1096, -2856, 1059, -424, -712, 285, 298, 282, 90, 246, 249, 259, 618
17085423, 5304, -14932, 16, -4166, 2536, -1096, -2856, 1059, -424, -712, 285, 298, 282, 90, 246, 249, 259, 618
17086209, 5304, -14932, 16, -4166, 2536, -1096, -2856, 1059, -424, -712, 285, 298, 282, 90, 246, 249, 259, 618
17091234, 5304, -14932, 16, -4166, 2536, -1096, -2856, 1059, -424, -712, 285, 298, 282, 90, 246, 249, 259, 618
17092054, 5304, -14932, 16, -4166, 2536, -1096, -2856, 1059, -424, -712, 285, 298, 282, 90, 246, 249, 259, 618
17092854, 5304, -14932, 16, -4166, 2536, -1096, -2856, 1059, -424, -712, 285, 298, 282, 90, 246, 249, 259, 618
17093682, 5304, -14932, 16, -4166, 2536, -1096, -2856, 1059, -424, -712, 285, 298, 282, 90, 246, 249, 259, 618
17096171, 5303, -14919, -184, -4208, 2515, -1054, -2861, 847, -306, -551, 285, 298, 282, 90, 246, 249, 259, 618
17104877, 5303, -14919, -184, -4208, 2515, -1054, -2861, 847, -306, -551, 253, 324, 207, 77, 224, 223, 239, 587
17105697, 5303, -14919, -184, -4208, 2515, -1054, -2861, 847, -306, -551, 253, 324, 207, 77, 224, 223, 239, 587
17106623, 5283, -14912, -326, -4250, 2519, -1187, -2820, 584, -203, -339, 253, 324, 207, 77, 224, 223, 239, 587
17127430, 5283, -14912, -326, -4250, 2519, -1187, -2820, 584, -203, -339, 248, 315, 111, 65, 193, 210, 221, 528
17128214, 5283, -14912, -326, -4250, 2519, -1187, -2820, 584, -203, -339, 248, 315, 111, 65, 193, 210, 221, 528
17129155, 5256, -14910, -427, -4283, 2518, -1296, -2736, 408, -189, -165, 248, 315, 111, 65, 193, 210, 221, 528
17141681, 5256, -14910, -427, -4283, 2518, -1296, -2736, 408, -189, -165, 249, 313, 101, 55, 211, 191, 214, 521
17142505, 5256, -14910, -427, -4283, 2518, -1296, -2736, 408, -189, -165, 249, 313, 101, 55, 211, 191, 214, 521
17148667, 5221, -14912, -502, -4311, 2515, -1354, -2615, 246, -203, -65, 249, 313, 101, 55, 211, 191, 214, 521
17164885, 5221, -14912, -502, -4311, 2515, -1354, -2615, 246, -203, -65, 244, 316, 94, 55, 210, 162, 209, 517
17165699, 5221, -14912, -502, -4311, 2515, -1354, -2615, 246, -203, -65, 244, 316, 94, 55, 210, 162, 209, 517
17166628, 5172, -14914, -562, -4354, 2581, -1312, -2494, 118, -149, -18, 244, 316, 94, 55, 210, 162, 209, 517
17187362, 5172, -14914, -562, -4354, 2581, -1312, -2494, 118, -149, -18, 241, 265, 76, 56, 202, 129, 165, 440
17188178, 5172, -14914, -562, -4354, 2581, -1312, -2494, 118, -149, -18, 241, 265, 76, 56, 202, 129, 165, 440
17189106, 5124, -14915, -602, -4402, 2591, -1420, -2459, 39, -93, 30, 241, 265, 76, 56, 202, 129, 165, 440
17201707, 5124, -14915, -602, -4402, 2591, -1420, -2459, 39, -93, 30, 222, 200, 59, 47, 186, 135, 163, 356
17202506, 5124, -14915, -602, -4402, 2591, -1420, -2459, 39, -93, 30, 222, 200, 59, 47, 186, 135, 163, 356
17208659, 5065, -14918, -625, -4457, 2630, -1440, -2437, -72, -39, 84, 222, 200, 59, 47, 186, 135, 163, 356
17224912, 5065, -14918, -625, -4457, 2630, -1440, -2437, -72, -39, 84, 171, 212, 66, 45, 185, 138, 153, 333
17225730, 5065, -14918, -625, -4457, 2630, -1440, -2437, -72, -39, 84, 171, 212, 66, 45, 185, 138, 153, 333
17226663, 5012, -14918, -628, -4515, 2601, -1565, -2381, -143, 13, 122, 171, 212, 66, 45, 185, 138, 153, 333
17247433, 5012, -14918, -628, -4515, 2601, -1565, -2381, -143, 13, 122, 171, 216, 64, 42, 173, 137, 146, 294
17248192, 5012, -14918, -628, -4515, 2601, -1565, -2381, -143, 13, 122, 171, 216, 64, 42, 173, 137, 146, 294
17249134, 4970, -14916, -625, -4569, 2587, -1639, -2369, -129, 21, 141, 171, 216, 64, 42, 173, 137, 146, 294
17262461, 4970, -14916, -625, -4569, 2587, -1639, -2369, -129, 21, 141, 165, 204, 62, 39, 200, 143, 142, 265
17263130, 4970, -14916, -625, -4569, 2587, -1639, -2369, -129, 21, 141, 165, 204, 62, 39, 200, 143, 142, 265
17264130, 4927, -14914, -623, -4621, 2571, -1576, -2395, -106, 28, 139, 165, 204, 62, 39, 200, 143, 142, 265
17284899, 4927, -14914, -623, -4621, 2571, -1576, -2395, -106, 28, 139, 167, 207, 52, 39, 204, 136, 142, 294
17285702, 4927, -14914, -623, -4621, 2571, -1576, -2395, -106, 28, 139, 167, 207, 52, 39, 204, 136, 142, 294
17286662, 4873, -14914, -620, -4678, 2611, -1571, -2399, -172, 51, 121, 167, 207, 52, 39, 204, 136, 142, 294
17307349, 4873, -14914, -620, -4678, 2611, -1571, -2399, -172, 51, 121, 162, 203, 54, 44, 203, 133, 144, 293
17308176, 4873, -14914, -620, -4678, 2611, -1571, -2399, -172, 51, 121, 162, 203, 54, 44, 203, 133, 144, 293
17309128, 4830, -14910, -611, -4737, 2627, -1639, -2358, -163, 66, 135, 162, 203, 54, 44, 203, 133, 144, 293
17329900, 4830, -14910, -611, -4737, 2627, -1639, -2358, -163, 66, 135, 159, 199, 47, 46, 199, 133, 136, 286
17330699, 4830, -14910, -611, -4737, 2627, -1639, -2358, -163, 66, 135, 159, 199, 47, 46, 199, 133, 136, 286
17331656, 4797, -14903, -603, -4792, 2621, -1623, -2356, -105, 63, 142, 159, 199, 47, 46, 199, 133, 136, 286
17344178, 4797, -14903, -603, -4792, 2621, -1623, -2356, -105, 63, 142, 151, 177, 46, 50, 193, 125, 131, 273
17344975, 4797, -14903, -603, -4792, 2621, -1623, -2356, -105, 63, 142, 151, 177, 46, 50, 193, 125, 131, 273
17351139, 4763, -14899, -597, -4841, 2582, -1641, -2390, -109, 56, 118, 151, 177, 46, 50, 193, 125, 131, 273
17367434, 4763, -14899, -597, -4841, 2582, -1641, -2390, -109, 56, 118, 151, 171, 45, 54, 164, 126, 130, 271
17368203, 4763, -14899, -597, -4841, 2582, -1641, -2390, -109, 56, 118, 151, 171, 45, 54, 164, 126, 130, 271
17369142, 4728, -14895, -597, -4887, 2566, -1584, -2409, -87, 47, 86, 151, 171, 45, 54, 164, 126, 130, 271