Timestamp, Orientation x, Orientation y, Orientation z, Orientation w, Acceleration x, Acceleration y, Acceleration z, Rotation x, Rotation y, Rotation z, EMG 0, EMG 1, EMG 2, EMG 3, EMG 4, EMG 5, EMG 6, EMG 7
181540506, 3221, -15041, -2570, -5024, 2526, -1178, -3240, -24, -15, 10, 0, 0, 0, 0, 0, 0, 0, 0
181548003, 3212, -15049, -2563, -5010, 2557, -1164, -3232, -59, -12, 16, 0, 0, 0, 0, 0, 0, 0, 0
181563003, 3204, -15056, -2553, -4997, 2543, -1204, -3228, -73, -3, 13, 0, 0, 0, 0, 0, 0, 0, 0
181585527, 3208, -15061, -2545, -4985, 2555, -1205, -3215, -11, 3, 29, 0, 0, 0, 0, 0, 0, 0, 0
181609305, 3210, -15066, -2539, -4971, 2558, -1181, -3250, 5, -8, 24, 0, 0, 0, 0, 0, 0, 0, 0
181610150, 3210, -15066, -2539, -4971, 2558, -1181, -3250, 5, -8, 24, 282, 786, 319, 208, 372, 232, 140, 116
181610970, 3210, -15066, -2539, -4971, 2558, -1181, -3250, 5, -8, 24, 282, 786, 319, 208, 372, 232, 140, 116
181622998, 3204, -15073, -2535, -4957, 2571, -1185, -3254, -42, -26, 8, 282, 786, 319, 208, 372, 232, 140, 116
181631149, 3204, -15073, -2535, -4957, 2571, -1185, -3254, -42, -26, 8, 275, 750, 338, 217, 414, 274, 116, 114
181631967, 3204, -15073, -2535, -4957, 2571, -1185, -3254, -42, -26, 8, 275, 750, 338, 217, 414, 274, 116, 114
181645488, 3199, -15079, -2527, -4947, 2560, -1200, -3231, -52, -6, 15, 275, 750, 338, 217, 414, 274, 116, 114
181653384, 3199, -15079, -2527, -4947, 2560, -1200, -3231, -52, -6, 15, 247, 767, 320, 223, 408, 276, 108, 99
181660489, 3199, -15079, -2527, -4947, 2560, -1200, -3231, -52, -6, 15, 247, 767, 320, 223, 408, 276, 108, 99
181670754, 3203, -15082, -2518, -4940, 2560, -1195, -3223, -8, 20, 35, 247, 767, 320, 223, 408, 276, 108, 99
181671559, 3203, -15082, -2518, -4940, 2560, -1195, -3223, -8, 20, 35, 234, 747, 329, 260, 424, 280, 105, 91
181672355, 3203, -15082, -2518, -4940, 2560, -1195, -3223, -8, 20, 35, 234, 747, 329, 260, 424, 280, 105, 91
181673170, 3203, -15082, -2518, -4940, 2560, -1195, -3223, -8, 20, 35, 234, 747, 329, 260, 424, 280, 105, 91
181678135, 3203, -15082, -2518, -4940, 2560, -1195, -3223, -8, 20, 35, 234, 747, 329, 260, 424, 280, 105, 91
181678932, 3203, -15082, -2518, -4940, 2560, -1195, -3223, -8, 20, 35, 234, 747, 329, 260, 424, 280, 105, 91
181679757, 3203, -15082, -2518, -4940, 2560, -1195, -3223, -8, 20, 35, 234, 747, 329, 260, 424, 280, 105, 91
181680580, 3203, -15082, -2518, -4940, 2560, -1195, -3223, -8, 20, 35, 234, 747, 329, 260, 424, 280, 105, 91
181683721, 3203, -15082, -2518, -4940, 2560, -1195, -3223, -8, 20, 35, 234, 747, 329, 260, 424, 280, 105, 91
181684612, 3203, -15085, -2511, -4932, 2554, -1149, -3245, -2, 12, 31, 234, 747, 329, 260, 424, 280, 105, 91
181693215, 3203, -15085, -2511, -4932, 2554, -1149, -3245, -2, 12, 31, 239, 711, 328, 270, 455, 277, 81, 81
181694009, 3203, -15085, -2511, -4932, 2554, -1149, -3245, -2, 12, 31, 239, 711, 328, 270, 455, 277, 81, 81
181694838, 3203, -15085, -2511, -4932, 2554, -1149, -3245, -2, 12, 31, 239, 711, 328, 270, 455, 277, 81, 81
181695665, 3203, -15085, -2511, -4932, 2554, -1149, -3245, -2, 12, 31, 239, 711, 328, 270, 455, 277, 81, 81
181699961, 3203, -15085, -2511, -4932, 2554, -1149, -3245, -2, 12, 31, 239, 711, 328, 270, 455, 277, 81, 81
181700756, 3203, -15085, -2511, -4932, 2554, -1149, -3245, -2, 12, 31, 239, 711, 328, 270, 455, 277, 81, 81
181701580, 3203, -15085, -2511, -4932, 2554, -1149, -3245, -2, 12, 31, 239, 711, 328, 270, 455, 277, 81, 81
181702386, 3203, -15085, -2511, -4932, 2554, -1149, -3245, -2, 12, 31, 239, 711, 328, 270, 455, 277, 81, 81
181705611, 3194, -15092, -2503, -4920, 2543, -1175, -3261, -58, -12, 24, 239, 711, 328, 270, 455, 277, 81, 81
181713659, 3194, -15092, -2503, -4920, 2543, -1175, -3261, -58, -12, 24, 235, 702, 333, 241, 463, 419, 84, 82
181714458, 3194, -15092, -2503, -4920, 2543, -1175, -3261, -58, -12, 24, 235, 702, 333, 241, 463, 419, 84, 82
181730759, 3184, -15100, -2493, -4910, 2536, -1187, -3248, -75, -11, 24, 235, 702, 333, 241, 463, 419, 84, 82
181731556, 3221, -15041, -2570, -5024, 2526, -1178, -3240, -24, -15, 10, 235, 702, 333, 241, 463, 419, 84, 82
181732381, 3212, -15049, -2563, -5010, 2557, -1164, -3232, -59, -12, 16, 235, 702, 333, 241, 463, 419, 84, 82
181733276, 3204, -15056, -2553, -4997, 2543, -1204, -3228, -73, -3, 13, 235, 702, 333, 241, 463, 419, 84, 82
181738190, 3208, -15061, -2545, -4985, 2555, -1205, -3215, -11, 3, 29, 235, 702, 333, 241, 463, 419, 84, 82
181739008, 3210, -15066, -2539, -4971, 2558, -1181, -3250, 5, -8, 24, 235, 702, 333, 241, 463, 419, 84, 82
181739803, 3210, -15066, -2539, -4971, 2558, -1181, -3250, 5, -8, 24, 282, 786, 319, 208, 372, 232, 140, 116
181740628, 3210, -15066, -2539, -4971, 2558, -1181, -3250, 5, -8, 24, 282, 786, 319, 208, 372, 232, 140, 116
181745684, 3210, -15066, -2539, -4971, 2558, -1181, -3250, 5, -8, 24, 275, 750, 338, 217, 414, 274, 116, 114
181746522, 3210, -15066, -2539, -4971, 2558, -1181, -3250, 5, -8, 24, 275, 750, 338, 217, 414, 274, 116, 114
181747319, 3210, -15066, -2539, -4971, 2558, -1181, -3250, 5, -8, 24, 275, 750, 338, 217, 414, 274, 116, 114
181748131, 3210, -15066, -2539, -4971, 2558, -1181, -3250, 5, -8, 24, 275, 750, 338, 217, 414, 274, 116, 114
181753137, 3210, -15066, -2539, -4971, 2558, -1181, -3250, 5, -8, 24, 275, 750, 338, 217, 414, 274, 116, 114
181753956, 3210, -15066, -2539, -4971, 2558, -1181, -3250, 5, -8, 24, 275, 750, 338, 217, 414, 274, 116, 114
181754792, 3210, -15066, -2539, -4971, 2558, -1181, -3250, 5, -8, 24, 275, 750, 338, 217, 414, 274, 116, 114
181755574, 3210, -15066, -2539, -4971, 2558, -1181, -3250, 5, -8, 24, 275, 750, 338, 217, 414, 274, 116, 114
181760676, 3210, -15066, -2539, -4971, 2558, -1181, -3250, 5, -8, 24, 275, 750, 338, 217, 414, 274, 116, 114
181761588, 3199, -15079, -2527, -4947, 2560, -1200, -3231, -52, -6, 15, 275, 750, 338, 217, 414, 274, 116, 114
181762412, 3199, -15079, -2527, -4947, 2560, -1200, -3231, -52, -6, 15, 247, 767, 320, 223, 408, 276, 108, 99
181763284, 3199, -15079, -2527, -4947, 2560, -1200, -3231, -52, -6, 15, 247, 767, 320, 223, 408, 276, 108, 99
181768285, 3199, -15079, -2527, -4947, 2560, -1200, -3231, -52, -6, 15, 247, 767, 320, 223, 408, 276, 108, 99
181769040, 3199, -15079, -2527, -4947, 2560, -1200, -3231, -52, -6, 15, 247, 767, 320, 223, 408, 276, 108, 99
181769859, 3199, -15079, -2527, -4947, 2560, -1200, -3231, -52, -6, 15, 247, 767, 320, 223, 408, 276, 108, 99
181770684, 3199, -15079, -2527, -4947, 2560, -1200, -3231, -52, -6, 15, 247, 767, 320, 223, 408, 276, 108, 99
181775642, 3199, -15079, -2527, -4947, 2560, -1200, -3231, -52, -6, 15, 247, 767, 320, 223, 408, 276, 108, 99
181776437, 3199, -15079, -2527, -4947, 2560, -1200, -3231, -52, -6, 15, 247, 767, 320, 223, 408, 276, 108, 99
181777283, 3199, -15079, -2527, -4947, 2560, -1200, -3231, -52, -6, 15, 247, 767, 320, 223, 408, 276, 108, 99
181778052, 3199, -15079, -2527, -4947, 2560, -1200, -3231, -52, -6, 15, 247, 767, 320, 223, 408, 276, 108, 99
181783142, 3199, -15079, -2527, -4947, 2560, -1200, -3231, -52, -6, 15, 247, 767, 320, 223, 408, 276, 108, 99
181784071, 3203, -15082, -2518, -4940, 2560, -1195, -3223, -8, 20, 35, 247, 767, 320, 223, 408, 276, 108, 99
181784889, 3203, -15082, -2518, -4940, 2560, -1195, -3223, -8, 20, 35, 234, 747, 329, 260, 424, 280, 105, 91
181785734, 3203, -15082, -2518, -4940, 2560, -1195, -3223, -8, 20, 35, 234, 747, 329, 260, 424, 280, 105, 91
181790720, 3203, -15082, -2518, -4940, 2560, -1195, -3223, -8, 20, 35, 234, 747, 329, 260, 424, 280, 105, 91
181791517, 3203, -15082, -2518, -4940, 2560, -1195, -3223, -8, 20, 35, 234, 747, 329, 260, 424, 280, 105, 91
181792341, 3203, -15082, -2518, -4940, 2560, -1195, -3223, -8, 20, 35, 234, 747, 329, 260, 424, 280, 105, 91
181793151, 3203, -15082, -2518, -4940, 2560, -1195, -3223, -8, 20, 35, 234, 747, 329, 260, 424, 280, 105, 91
181798112, 3203, -15082, -2518, -4940, 2560, -1195, -3223, -8, 20, 35, 234, 747, 329, 260, 424, 280, 105, 91
181798915, 3203, -15082, -2518, -4940, 2560, -1195, -3223, -8, 20, 35, 234, 747, 329, 260, 424, 280, 105, 91
181799730, 3203, -15082, -2518, -4940, 2560, -1195, -3223, -8, 20, 35, 234, 747, 329, 260, 424, 280, 105, 91
181800536, 3203, -15082, -2518, -4940, 2560, -1195, -3223, -8, 20, 35, 234, 747, 329, 260, 424, 280, 105, 91
181805666, 3203, -15082, -2518, -4940, 2560, -1195, -3223, -8, 20, 35, 234, 747, 329, 260, 424, 280, 105, 91
181806610, 3203, -15085, -2511, -4932, 2554, -1149, -3245, -2, 12, 31, 234, 747, 329, 260, 424, 280, 105, 91
181807432, 3203, -15085, -2511, -4932, 2554, -1149, -3245, -2, 12, 31, 239, 711, 328, 270, 455, 277, 81, 81
181808282, 3203, -15085, -2511, -4932, 2554, -1149, -3245, -2, 12, 31, 239, 711, 328, 270, 455, 277, 81, 81
181813295, 3203, -15085, -2511, -4932, 2554, -1149, -3245, -2, 12, 31, 239, 711, 328, 270, 455, 277, 81, 81
181814081, 3203, -15085, -2511, -4932, 2554, -1149, -3245, -2, 12, 31, 239, 711, 328, 270, 455, 277, 81, 81
181814866, 3203, -15085, -2511, -4932, 2554, -1149, -3245, -2, 12, 31, 239, 711, 328, 270, 455, 277, 81, 81
181815692, 3203, -15085, -2511, -4932, 2554, -1149, -3245, -2, 12, 31, 239, 711, 328, 270, 455, 277, 81, 81
181820651, 3203, -15085, -2511, -4932, 2554, -1149, -3245, -2, 12, 31, 239, 711, 328, 270, 455, 277, 81, 81
181821466, 3203, -15085, -2511, -4932, 2554, -1149, -3245, -2, 12, 31, 239, 711, 328, 270, 455, 277, 81, 81
181822292, 3203, -15085, -2511, -4932, 2554, -1149, -3245, -2, 12, 31, 239, 711, 328, 270, 455, 277, 81, 81
181823081, 3203, -15085, -2511, -4932, 2554, -1149, -3245, -2, 12, 31, 239, 711, 328, 270, 455, 277, 81, 81
181828166, 3203, -15085, -2511, -4932, 2554, -1149, -3245, -2, 12, 31, 239, 711, 328, 270, 455, 277, 81, 81
181829097, 3194, -15092, -2503, -4920, 2543, -1175, -3261, -58, -12, 24, 239, 711, 328, 270, 455, 277, 81, 81
181829919, 3194, -15092, -2503, -4920, 2543, -1175, -3261, -58, -12, 24, 235, 702, 333, 241, 463, 419, 84, 82
181830722, 3194, -15092, -2503, -4920, 2543, -1175, -3261, -58, -12, 24, 235, 702, 333, 241, 463, 419, 84, 82
181835734, 3194, -15092, -2503, -4920, 2543, -1175, -3261, -58, -12, 24, 235, 702, 333, 241, 463, 419, 84, 82
181836537, 3194, -15092, -2503, -4920, 2543, -1175, -3261, -58, -12, 24, 235, 702, 333, 241, 463, 419, 84, 82
181837361, 3194, -15092, -2503, -4920, 2543, -1175, -3261, -58, -12, 24, 235, 702, 333, 241, 463, 419, 84, 82
181838169, 3194, -15092, -2503, -4920, 2543, -1175, -3261, -58, -12, 24, 235, 702, 333, 241, 463, 419, 84, 82
181843114, 3194, -15092, -2503, -4920, 2543, -1175, -3261, -58, -12, 24, 235, 702, 333, 241, 463, 419, 84, 82
181843935, 3194, -15092, -2503, -4920, 2543, -1175, -3261, -58, -12, 24, 235, 702, 333, 241, 463, 419, 84, 82
181844733, 3194, -15092, -2503, -4920, 2543, -1175, -3261, -58, -12, 24, 235, 702, 333, 241, 463, 419, 84, 82
181845558, 3194, -15092, -2503, -4920, 2543, -1175, -3261, -58, -12, 24, 235, 702, 333, 241, 463, 419, 84, 82
181850762, 3184, -15100, -2493, -4910, 2536, -1187, -3248, -75, -11, 24, 235, 702, 333, 241, 463, 419, 84, 82
181851562, 3184, -15100, -2493, -4910, 2536, -1187, -3248, -75, -11, 24, 243, 778, 317, 225, 411, 424, 91, 86
181852384, 3184, -15100, -2493, -4910, 2536, -1187, -3248, -75, -11, 24, 243, 778, 317, 225, 411, 424, 91, 86
181853195, 3184, -15100, -2493, -4910, 2536, -1187, -3248, -75, -11, 24, 243, 778, 317, 225, 411, 424, 91, 86
181858134, 3184, -15100, -2493, -4910, 2536, -1187, -3248, -75, -11, 24, 243, 778, 317, 225, 411, 424, 91, 86
181858959, 3184, -15100, -2493, -4910, 2536, -1187, -3248, -75, -11, 24, 243, 778, 317, 225, 411, 424, 91, 86
181859758, 3184, -15100, -2493, -4910, 2536, -1187, -3248, -75, -11, 24, 243, 778, 317, 225, 411, 424, 91, 86
181860581, 3184, -15100, -2493, -4910, 2536, -1187, -3248, -75, -11, 24, 243, 778, 317, 225, 411, 424, 91, 86
181865676, 3184, -15100, -2493, -4910, 2536, -1187, -3248, -75, -11, 24, 243, 778, 317, 225, 411, 424, 91, 86
181866585, 3173, -15106, -2483, -4902, 2533, -1157, -3258, -74, 7, 30, 243, 778, 317, 225, 411, 424, 91, 86
181867408, 3173, -15106, -2483, -4902, 2533, -1157, -3258, -74, 7, 30, 237, 757, 310, 223, 407, 416, 92, 85
181868280, 3173, -15106, -2483, -4902, 2533, -1157, -3258, -74, 7, 30, 237, 757, 310, 223, 407, 416, 92, 85
181873282, 3173, -15106, -2483, -4902, 2533, -1157, -3258, -74, 7, 30, 237, 757, 310, 223, 407, 416, 92, 85
181874051, 3173, -15106, -2483, -4902, 2533, -1157, -3258, -74, 7, 30, 237, 757, 310, 223, 407, 416, 92, 85
181874860, 3173, -15106, -2483, -4902, 2533, -1157, -3258, -74, 7, 30, 237, 757, 310, 223, 407, 416, 92, 85
181875686, 3173, -15106, -2483, -4902, 2533, -1157, -3258, -74, 7, 30, 237, 757, 310, 223, 407, 416, 92, 85
181880629, 3173, -15106, -2483, -4902, 2533, -1157, -3258, -74, 7, 30, 237, 757, 310, 223, 407, 416, 92, 85
181881436, 3173, -15106, -2483, -4902, 2533, -1157, -3258, -74, 7, 30, 237, 757, 310, 223, 407, 416, 92, 85
181882289, 3173, -15106, -2483, -4902, 2533, -1157, -3258, -74, 7, 30, 237, 757, 310, 223, 407, 416, 92, 85
181883070, 3173, -15106, -2483, -4902, 2533, -1157, -3258, -74, 7, 30, 237, 757, 310, 223, 407, 416, 92, 85
181888136, 3173, -15106, -2483, -4902, 2533, -1157, -3258, -74, 7, 30, 237, 757, 310, 223, 407, 416, 92, 85
181889066, 3159, -15113, -2472, -4896, 2540, -1095, -3268, -64, 9, 48, 237, 757, 310, 223, 407, 416, 92, 85
181889883, 3159, -15113, -2472, -4896, 2540, -1095, -3268, -64, 9, 48, 220, 726, 314, 189, 388, 419, 92, 79
181890672, 3159, -15113, -2472, -4896, 2540, -1095, -3268, -64, 9, 48, 220, 726, 314, 189, 388, 419, 92, 79
181895708, 3159, -15113, -2472, -4896, 2540, -1095, -3268, -64, 9, 48, 220, 726, 314, 189, 388, 419, 92, 79
181896512, 3159, -15113, -2472, -4896, 2540, -1095, -3268, -64, 9, 48, 220, 726, 314, 189, 388, 419, 92, 79
181897338, 3159, -15113, -2472, -4896, 2540, -1095, -3268, -64, 9, 48, 220, 726, 314, 189, 388, 419, 92, 79
181898140, 3159, -15113, -2472, -4896, 2540, -1095, -3268, -64, 9, 48, 220, 726, 314, 189, 388, 419, 92, 79
181903087, 3159, -15113, -2472, -4896, 2540, -1095, -3268, -64, 9, 48, 220, 726, 314, 189, 388, 419, 92, 79
181903912, 3159, -15113, -2472, -4896, 2540, -1095, -3268, -64, 9, 48, 220, 726, 314, 189, 388, 419, 92, 79
181904737, 3159, -15113, -2472, -4896, 2540, -1095, -3268, -64, 9, 48, 220, 726, 314, 189, 388, 419, 92, 79
181905538, 3159, -15113, -2472, -4896, 2540, -1095, -3268, -64, 9, 48, 220, 726, 314, 189, 388, 419, 92, 79
181918143, 3159, -15113, -2472, -4896, 2540, -1095, -3268, -64, 9, 48, 220, 726, 314, 189, 388, 419, 92, 79
181919088, 3122, -15124, -2459, -4891, 2567, -996, -3350, -144, 3, 62, 220, 726, 314, 189, 388, 419, 92, 79
181919907, 3122, -15124, -2459, -4891, 2567, -996, -3350, -144, 3, 62, 237, 804, 371, 184, 362, 475, 89, 80
181920709, 3122, -15124, -2459, -4891, 2567, -996, -3350, -144, 3, 62, 237, 804, 371, 184, 362, 475, 89, 80
181925707, 3122, -15124, -2459, -4891, 2567, -996, -3350, -144, 3, 62, 237, 804, 371, 184, 362, 475, 89, 80
181926556, 3122, -15124, -2459, -4891, 2567, -996, -3350, -144, 3, 62, 237, 804, 371, 184, 362, 475, 89, 80
181927365, 3122, -15124, -2459, -4891, 2567, -996, -3350, -144, 3, 62, 237, 804, 371, 184, 362, 475, 89, 80
181928154, 3122, -15124, -2459, -4891, 2567, -996, -3350, -144, 3, 62, 237, 804, 371, 184, 362, 475, 89, 80
181933112, 3122, -15124, -2459, -4891, 2567, -996, -3350, -144, 3, 62, 237, 804, 371, 184, 362, 475, 89, 80
181933938, 3122, -15124, -2459, -4891, 2567, -996, -3350, -144, 3, 62, 237, 804, 371, 184, 362, 475, 89, 80
181934742, 3122, -15124, -2459, -4891, 2567, -996, -3350, -144, 3, 62, 237, 804, 371, 184, 362, 475, 89, 80
181935559, 3122, -15124, -2459, -4891, 2567, -996, -3350, -144, 3, 62, 237, 804, 371, 184, 362, 475, 89, 80
181940630, 3122, -15124, -2459, -4891, 2567, -996, -3350, -144, 3, 62, 237, 804, 371, 184, 362, 475, 89, 80
181941552, 3046, -15145, -2432, -4889, 2603, -907, -3411, -352, -19, 95, 237, 804, 371, 184, 362, 475, 89, 80
181942381, 3046, -15145, -2432, -4889, 2603, -907, -3411, -352, -19, 95, 231, 821, 346, 192, 345, 389, 74, 70
181943183, 3046, -15145, -2432, -4889, 2603, -907, -3411, -352, -19, 95, 231, 821, 346, 192, 345, 389, 74, 70
181948215, 3046, -15145, -2432, -4889, 2603, -907, -3411, -352, -19, 95, 231, 821, 346, 192, 345, 389, 74, 70
181949019, 3046, -15145, -2432, -4889, 2603, -907, -3411, -352, -19, 95, 231, 821, 346, 192, 345, 389, 74, 70
181949838, 3046, -15145, -2432, -4889, 2603, -907, -3411, -352, -19, 95, 231, 821, 346, 192, 345, 389, 74, 70
181950650, 3046, -15145, -2432, -4889, 2603, -907, -3411, -352, -19, 95, 231, 821, 346, 192, 345, 389, 74, 70
181955582, 3046, -15145, -2432, -4889, 2603, -907, -3411, -352, -19, 95, 231, 821, 346, 192, 345, 389, 74, 70
181956418, 3046, -15145, -2432, -4889, 2603, -907, -3411, -352, -19, 95, 231, 821, 346, 192, 345, 389, 74, 70
181957297, 3046, -15145, -2432, -4889, 2603, -907, -3411, -352, -19, 95, 231, 821, 346, 192, 345, 389, 74, 70
181957975, 3046, -15145, -2432, -4889, 2603, -907, -3411, -352, -19, 95, 231, 821, 346, 192, 345, 389, 74, 70
181970642, 3046, -15145, -2432, -4889, 2603, -907, -3411, -352, -19, 95, 231, 821, 346, 192, 345, 389, 74, 70
181971589, 2921, -15179, -2375, -4886, 2530, -928, -3418, -705, -34, 145, 231, 821, 346, 192, 345, 389, 74, 70
181972390, 2921, -15179, -2375, -4886, 2530, -928, -3418, -705, -34, 145, 246, 786, 332, 218, 353, 395, 78, 76
181973284, 2921, -15179, -2375, -4886, 2530, -928, -3418, -705, -34, 145, 246, 786, 332, 218, 353, 395, 78, 76
181978216, 2921, -15179, -2375, -4886, 2530, -928, -3418, -705, -34, 145, 246, 786, 332, 218, 353, 395, 78, 76
181979035, 2921, -15179, -2375, -4886, 2530, -928, -3418, -705, -34, 145, 246, 786, 332, 218, 353, 395, 78, 76
181979834, 2921, -15179, -2375, -4886, 2530, -928, -3418, -705, -34, 145, 246, 786, 332, 218, 353, 395, 78, 76
181980659, 2921, -15179, -2375, -4886, 2530, -928, -3418, -705, -34, 145, 246, 786, 332, 218, 353, 395, 78, 76
181985633, 2921, -15179, -2375, -4886, 2530, -928, -3418, -705, -34, 145, 246, 786, 332, 218, 353, 395, 78, 76
181986438, 2921, -15179, -2375, -4886, 2530, -928, -3418, -705, -34, 145, 246, 786, 332, 218, 353, 395, 78, 76
181987286, 2921, -15179, -2375, -4886, 2530, -928, -3418, -705, -34, 145, 246, 786, 332, 218, 353, 395, 78, 76
181988063, 2921, -15179, -2375, -4886, 2530, -928, -3418, -705, -34, 145, 246, 786, 332, 218, 353, 395, 78, 76
181993132, 2921, -15179, -2375, -4886, 2530, -928, -3418, -705, -34, 145, 246, 786, 332, 218, 353, 395, 78, 76
181994067, 2808, -15212, -2278, -4895, 2523, -1163, -3317, -847, 36, 273, 246, 786, 332, 218, 353, 395, 78, 76
181994864, 2808, -15212, -2278, -4895, 2523, -1163, -3317, -847, 36, 273, 279, 837, 315, 236, 419, 405, 79, 81
181995688, 2808, -15212, -2278, -4895, 2523, -1163, -3317, -847, 36, 273, 279, 837, 315, 236, 419, 405, 79, 81
182008184, 2808, -15212, -2278, -4895, 2523, -1163, -3317, -847, 36, 273, 279, 837, 315, 236, 419, 405, 79, 81
182009011, 2808, -15212, -2278, -4895, 2523, -1163, -3317, -847, 36, 273, 279, 837, 315, 236, 419, 405, 79, 81
182009814, 2808, -15212, -2278, -4895, 2523, -1163, -3317, -847, 36, 273, 279, 837, 315, 236, 419, 405, 79, 81
182010640, 2808, -15212, -2278, -4895, 2523, -1163, -3317, -847, 36, 273, 279, 837, 315, 236, 419, 405, 79, 81
182014086, 2808, -15212, -2278, -4895, 2523, -1163, -3317, -847, 36, 273, 279, 837, 315, 236, 419, 405, 79, 81
182014912, 2808, -15212, -2278, -4895, 2523, -1163, -3317, -847, 36, 273, 279, 837, 315, 236, 419, 405, 79, 81
182023100, 2808, -15212, -2278, -4895, 2523, -1163, -3317, -847, 36, 273, 279, 837, 315, 236, 419, 405, 79, 81
182023920, 2808, -15212, -2278, -4895, 2523, -1163, -3317, -847, 36, 273, 279, 837, 315, 236, 419, 405, 79, 81
182024842, 2808, -15212, -2278, -4895, 2523, -1163, -3317, -847, 36, 273, 341, 816, 362, 222, 483, 444, 118, 100
182025645, 2808, -15212, -2278, -4895, 2523, -1163, -3317, -847, 36, 273, 341, 816, 362, 222, 483, 444, 118, 100
182030717, 2808, -15212, -2278, -4895, 2523, -1163, -3317, -847, 36, 273, 341, 816, 362, 222, 483, 444, 118, 100
182031542, 2808, -15212, -2278, -4895, 2523, -1163, -3317, -847, 36, 273, 341, 816, 362, 222, 483, 444, 118, 100
182032342, 2808, -15212, -2278, -4895, 2523, -1163, -3317, -847, 36, 273, 341, 816, 362, 222, 483, 444, 118, 100
182033156, 2808, -15212, -2278, -4895, 2523, -1163, -3317, -847, 36, 273, 341, 816, 362, 222, 483, 444, 118, 100
182038110, 2808, -15212, -2278, -4895, 2523, -1163, -3317, -847, 36, 273, 341, 816, 362, 222, 483, 444, 118, 100
182038911, 2808, -15212, -2278, -4895, 2523, -1163, -3317, -847, 36, 273, 341, 816, 362, 222, 483, 444, 118, 100
182039735, 2808, -15212, -2278, -4895, 2523, -1163, -3317, -847, 36, 273, 341, 816, 362, 222, 483, 444, 118, 100
182040578, 2808, -15212, -2278, -4895, 2523, -1163, -3317, -847, 36, 273, 341, 816, 362, 222, 483, 444, 118, 100
182045615, 2808, -15212, -2278, -4895, 2523, -1163, -3317, -847, 36, 273, 341, 816, 362, 222, 483, 444, 118, 100
182046561, 2634, -15265, -2058, -4925, 2493, -1040, -3403, -745, 122, 377, 341, 816, 362, 222, 483, 444, 118, 100
182047364, 2634, -15265, -2058, -4925, 2493, -1040, -3403, -745, 122, 377, 344, 726, 301, 235, 491, 432, 123, 113
182048189, 2634, -15265, -2058, -4925, 2493, -1040, -3403, -745, 122, 377, 344, 726, 301, 235, 491, 432, 123, 113
182053184, 2634, -15265, -2058, -4925, 2493, -1040, -3403, -745, 122, 377, 344, 726, 301, 235, 491, 432, 123, 113
182054010, 2634, -15265, -2058, -4925, 2493, -1040, -3403, -745, 122, 377, 344, 726, 301, 235, 491, 432, 123, 113
182054822, 2634, -15265, -2058, -4925, 2493, -1040, -3403, -745, 122, 377, 344, 726, 301, 235, 491, 432, 123, 113
182055640, 2634, -15265, -2058, -4925, 2493, -1040, -3403, -745, 122, 377, 344, 726, 301, 235, 491, 432, 123, 113
182060641, 2634, -15265, -2058, -4925, 2493, -1040, -3403, -745, 122, 377, 344, 726, 301, 235, 491, 432, 123, 113
182061458, 2634, -15265, -2058, -4925, 2493, -1040, -3403, -745, 122, 377, 344, 726, 301, 235, 491, 432, 123, 113
182062290, 2634, -15265, -2058, -4925, 2493, -1040, -3403, -745, 122, 377, 344, 726, 301, 235, 491, 432, 123, 113
182063101, 2634, -15265, -2058, -4925, 2493, -1040, -3403, -745, 122, 377, 344, 726, 301, 235, 491, 432, 123, 113
182068165, 2634, -15265, -2058, -4925, 2493, -1040, -3403, -745, 122, 377, 344, 726, 301, 235, 491, 432, 123, 113
182069095, 2473, -15302, -1940, -4943, 2527, -904, -3339, -1082, 53, 348, 344, 726, 301, 235, 491, 432, 123, 113
182069914, 2473, -15302, -1940, -4943, 2527, -904, -3339, -1082, 53, 348, 367, 746, 293, 288, 453, 462, 136, 123
182070718, 2473, -15302, -1940, -4943, 2527, -904, -3339, -1082, 53, 348, 344, 726, 301, 235, 491, 432, 123, 113
182075741, 2473, -15302, -1940, -4943, 2527, -904, -3339, -1082, 53, 348, 367, 746, 293, 288, 453, 462, 136, 123
182076541, 2473, -15302, -1940, -4943, 2527, -904, -3339, -1082, 53, 348, 367, 746, 293, 288, 453, 462, 136, 123
182077354, 2473, -15302, -1940, -4943, 2527, -904, -3339, -1082, 53, 348, 367, 746, 293, 288, 453, 462, 136, 123
182078171, 2473, -15302, -1940, -4943, 2527, -904, -3339, -1082, 53, 348, 367, 746, 293, 288, 453, 462, 136, 123
182083116, 2473, -15302, -1940, -4943, 2527, -904, -3339, -1082, 53, 348, 367, 746, 293, 288, 453, 462, 136, 123
182083934, 2473, -15302, -1940, -4943, 2527, -904, -3339, -1082, 53, 348, 367, 746, 293, 288, 453, 462, 136, 123
182084760, 2473, -15302, -1940, -4943, 2527, -904, -3339, -1082, 53, 348, 367, 746, 293, 288, 453, 462, 136, 123
182085554, 2473, -15302, -1940, -4943, 2527, -904, -3339, -1082, 53, 348, 367, 746, 293, 288, 453, 462, 136, 123
182090636, 2473, -15302, -1940, -4943, 2527, -904, -3339, -1082, 53, 348, 367, 746, 293, 288, 453, 462, 136, 123
182091556, 2220, -15359, -1805, -4936, 2423, -807, -3395, -1591, -116, 302, 367, 746, 293, 288, 453, 462, 136, 123
182092387, 2220, -15359, -1805, -4936, 2423, -807, -3395, -1591, -116, 302, 357, 709, 317, 286, 531, 494, 142, 124
182093189, 2220, -15359, -1805, -4936, 2423, -807, -3395, -1591, -116, 302, 357, 709, 317, 286, 531, 494, 142, 124
182098215, 2220, -15359, -1805, -4936, 2423, -807, -3395, -1591, -116, 302, 357, 709, 317, 286, 531, 494, 142, 124
182099005, 2220, -15359, -1805, -4936, 2423, -807, -3395, -1591, -116, 302, 357, 709, 317, 286, 531, 494, 142, 124
182099831, 2220, -15359, -1805, -4936, 2423, -807, -3395, -1591, -116, 302, 357, 709, 317, 286, 531, 494, 142, 124
182100657, 2220, -15359, -1805, -4936, 2423, -807, -3395, -1591, -116, 302, 357, 709, 317, 286, 531, 494, 142, 124
182105607, 2220, -15359, -1805, -4936, 2423, -807, -3395, -1591, -116, 302, 357, 709, 317, 286, 531, 494, 142, 124
182106404, 2220, -15359, -1805, -4936, 2423, -807, -3395, -1591, -116, 302, 357, 709, 317, 286, 531, 494, 142, 124
182107285, 2220, -15359, -1805, -4936, 2423, -807, -3395, -1591, -116, 302, 357, 709, 317, 286, 531, 494, 142, 124
182108049, 2220, -15359, -1805, -4936, 2423, -807, -3395, -1591, -116, 302, 357, 709, 317, 286, 531, 494, 142, 124
182113167, 2220, -15359, -1805, -4936, 2423, -807, -3395, -1591, -116, 302, 357, 709, 317, 286, 531, 494, 142, 124
182114122, 1915, -15417, -1671, -4930, 2545, -915, -3478, -1892, -212, 215, 357, 709, 317, 286, 531, 494, 142, 124
182114914, 1915, -15417, -1671, -4930, 2545, -915, -3478, -1892, -212, 215, 348, 691, 359, 275, 563, 511, 149, 123
182115740, 1915, -15417, -1671, -4930, 2545, -915, -3478, -1892, -212, 215, 348, 691, 359, 275, 563, 511, 149, 123
182120743, 1915, -15417, -1671, -4930, 2545, -915, -3478, -1892, -212, 215, 348, 691, 359, 275, 563, 511, 149, 123
182121558, 1915, -15417, -1671, -4930, 2545, -915, -3478, -1892, -212, 215, 348, 691, 359, 275, 563, 511, 149, 123
182122396, 1915, -15417, -1671, -4930, 2545, -915, -3478, -1892, -212, 215, 348, 691, 359, 275, 563, 511, 149, 123
182123208, 1915, -15417, -1671, -4930, 2545, -915, -3478, -1892, -212, 215, 348, 691, 359, 275, 563, 511, 149, 123
182128134, 1915, -15417, -1671, -4930, 2545, -915, -3478, -1892, -212, 215, 348, 691, 359, 275, 563, 511, 149, 123
182128958, 1915, -15417, -1671, -4930, 2545, -915, -3478, -1892, -212, 215, 348, 691, 359, 275, 563, 511, 149, 123
182129755, 1915, -15417, -1671, -4930, 2545, -915, -3478, -1892, -212, 215, 348, 691, 359, 275, 563, 511, 149, 123
182130621, 1915, -15417, -1671, -4930, 2545, -915, -3478, -1892, -212, 215, 348, 691, 359, 275, 563, 511, 149, 123
182135637, 1915, -15417, -1671, -4930, 2545, -915, -3478, -1892, -212, 215, 348, 691, 359, 275, 563, 511, 149, 123
182136606, 1669, -15459, -1541, -4931, 2436, -1223, -3423, -1612, -112, 236, 348, 691, 359, 275, 563, 511, 149, 123
182137408, 1669, -15459, -1541, -4931, 2436, -1223, -3423, -1612, -112, 236, 308, 745, 313, 272, 542, 503, 133, 128
182138288, 1669, -15459, -1541, -4931, 2436, -1223, -3423, -1612, -112, 236, 308, 745, 313, 272, 542, 503, 133, 128
182143295, 1669, -15459, -1541, -4931, 2436, -1223, -3423, -1612, -112, 236, 308, 745, 313, 272, 542, 503, 133, 128
182143989, 1669, -15459, -1541, -4931, 2436, -1223, -3423, -1612, -112, 236, 308, 745, 313, 272, 542, 503, 133, 128
182144849, 1669, -15459, -1541, -4931, 2436, -1223, -3423, -1612, -112, 236, 308, 745, 313, 272, 542, 503, 133, 128
182145653, 1669, -15459, -1541, -4931, 2436, -1223, -3423, -1612, -112, 236, 308, 745, 313, 272, 542, 503, 133, 128
182150638, 1669, -15459, -1541, -4931, 2436, -1223, -3423, -1612, -112, 236, 308, 745, 313, 272, 542, 503, 133, 128
182151435, 1669, -15459, -1541, -4931, 2436, -1223, -3423, -1612, -112, 236, 308, 745, 313, 272, 542, 503, 133, 128
182152284, 1669, -15459, -1541, -4931, 2436, -1223, -3423, -1612, -112, 236, 308, 745, 313, 272, 542, 503, 133, 128
182153065, 1669, -15459, -1541, -4931, 2436, -1223, -3423, -1612, -112, 236, 308, 745, 313, 272, 542, 503, 133, 128
182158138, 1669, -15459, -1541, -4931, 2436, -1223, -3423, -1612, -112, 236, 308, 745, 313, 272, 542, 503, 133, 128
182159066, 1472, -15490, -1425, -4931, 2437, -771, -3605, -1365, -10, 204, 308, 745, 313, 272, 542, 503, 133, 128
182159890, 1472, -15490, -1425, -4931, 2437, -771, -3605, -1365, -10, 204, 337, 742, 301, 260, 572, 483, 151, 126
182160677, 1472, -15490, -1425, -4931, 2437, -771, -3605, -1365, -10, 204, 337, 742, 301, 260, 572, 483, 151, 126
182165688, 1472, -15490, -1425, -4931, 2437, -771, -3605, -1365, -10, 204, 337, 742, 301, 260, 572, 483, 151, 126
182166510, 1472, -15490, -1425, -4931, 2437, -771, -3605, -1365, -10, 204, 337, 742, 301, 260, 572, 483, 151, 126
182167331, 1472, -15490, -1425, -4931, 2437, -771, -3605, -1365, -10, 204, 337, 742, 301, 260, 572, 483, 151, 126
182168146, 1472, -15490, -1425, -4931, 2437, -771, -3605, -1365, -10, 204, 337, 742, 301, 260, 572, 483, 151, 126
182171533, 1472, -15490, -1425, -4931, 2437, -771, -3605, -1365, -10, 204, 337, 742, 301, 260, 572, 483, 151, 126
182172361, 1472, -15490, -1425, -4931, 2437, -771, -3605, -1365, -10, 204, 337, 742, 301, 260, 572, 483, 151, 126
182180669, 1472, -15490, -1425, -4931, 2437, -771, -3605, -1365, -10, 204, 337, 742, 301, 260, 572, 483, 151, 126
182181462, 1472, -15490, -1425, -4931, 2437, -771, -3605, -1365, -10, 204, 337, 742, 301, 260, 572, 483, 151, 126
182182293, 1472, -15490, -1425, -4931, 2437, -771, -3605, -1365, -10, 204, 337, 742, 301, 260, 572, 483, 151, 126
182183288, 1225, -15526, -1310, -4919, 2485, -614, -3683, -1598, -112, 146, 337, 742, 301, 260, 572, 483, 151, 126
182188283, 1225, -15526, -1310, -4919, 2485, -614, -3683, -1598, -112, 146, 353, 710, 306, 222, 599, 484, 157, 132
182189047, 1225, -15526, -1310, -4919, 2485, -614, -3683, -1598, -112, 146, 353, 710, 306, 222, 599, 484, 157, 132
182189854, 1225, -15526, -1310, -4919, 2485, -614, -3683, -1598, -112, 146, 353, 710, 306, 222, 599, 484, 157, 132
182190659, 1225, -15526, -1310, -4919, 2485, -614, -3683, -1598, -112, 146, 353, 710, 306, 222, 599, 484, 157, 132
182195614, 1225, -15526, -1310, -4919, 2485, -614, -3683, -1598, -112, 146, 353, 710, 306, 222, 599, 484, 157, 132
182196432, 1225, -15526, -1310, -4919, 2485, -614, -3683, -1598, -112, 146, 353, 710, 306, 222, 599, 484, 157, 132
182197288, 1225, -15526, -1310, -4919, 2485, -614, -3683, -1598, -112, 146, 353, 710, 306, 222, 599, 484, 157, 132
182198065, 1225, -15526, -1310, -4919, 2485, -614, -3683, -1598, -112, 146, 353, 710, 306, 222, 599, 484, 157, 132
182203140, 1225, -15526, -1310, -4919, 2485, -614, -3683, -1598, -112, 146, 353, 710, 306, 222, 599, 484, 157, 132
182204060, 1054, -15560, -1179, -4882, 2427, -981, -3625, -1414, -219, 220, 353, 710, 306, 222, 599, 484, 157, 132
182204885, 1054, -15560, -1179, -4882, 2427, -981, -3625, -1414, -219, 220, 367, 706, 329, 373, 551, 552, 185, 154
182205710, 1054, -15560, -1179, -4882, 2427, -981, -3625, -1414, -219, 220, 367, 706, 329, 373, 551, 552, 185, 154
182210716, 1054, -15560, -1179, -4882, 2427, -981, -3625, -1414, -219, 220, 367, 706, 329, 373, 551, 552, 185, 154
182211546, 1054, -15560, -1179, -4882, 2427, -981, -3625, -1414, -219, 220, 367, 706, 329, 373, 551, 552, 185, 154
182212330, 1054, -15560, -1179, -4882, 2427, -981, -3625, -1414, -219, 220, 367, 706, 329, 373, 551, 552, 185, 154
182213149, 1054, -15560, -1179, -4882, 2427, -981, -3625, -1414, -219, 220, 367, 706, 329, 373, 551, 552, 185, 154
182218111, 1054, -15560, -1179, -4882, 2427, -981, -3625, -1414, -219, 220, 367, 706, 329, 373, 551, 552, 185, 154
182218910, 1054, -15560, -1179, -4882, 2427, -981, -3625, -1414, -219, 220, 367, 706, 329, 373, 551, 552, 185, 154
182219733, 1054, -15560, -1179, -4882, 2427, -981, -3625, -1414, -219, 220, 367, 706, 329, 373, 551, 552, 185, 154
182220536, 1054, -15560, -1179, -4882, 2427, -981, -3625, -1414, -219, 220, 367, 706, 329, 373, 551, 552, 185, 154
182225659, 1054, -15560, -1179, -4882, 2427, -981, -3625, -1414, -219, 220, 367, 706, 329, 373, 551, 552, 185, 154
182226613, 998, -15585, -1089, -4837, 2394, -951, -3655, -722, -208, 210, 367, 706, 329, 373, 551, 552, 185, 154
182227433, 998, -15585, -1089, -4837, 2394, -951, -3655, -722, -208, 210, 348, 682, 347, 400, 476, 552, 194, 171
182228287, 998, -15585, -1089, -4837, 2394, -951, -3655, -722, -208, 210, 348, 682, 347, 400, 476, 552, 194, 171
182233185, 998, -15585, -1089, -4837, 2394, -951, -3655, -722, -208, 210, 348, 682, 347, 400, 476, 552, 194, 171
182234013, 998, -15585, -1089, -4837, 2394, -951, -3655, -722, -208, 210, 348, 682, 347, 400, 476, 552, 194, 171
182234807, 998, -15585, -1089, -4837, 2394, -951, -3655, -722, -208, 210, 348, 682, 347, 400, 476, 552, 194, 171
182235634, 998, -15585, -1089, -4837, 2394, -951, -3655, -722, -208, 210, 348, 682, 347, 400, 476, 552, 194, 171
182240640, 998, -15585, -1089, -4837, 2394, -951, -3655, -722, -208, 210, 348, 682, 347, 400, 476, 552, 194, 171
182241457, 998, -15585, -1089, -4837, 2394, -951, -3655, -722, -208, 210, 348, 682, 347, 400, 476, 552, 194, 171
182242289, 998, -15585, -1089, -4837, 2394, -951, -3655, -722, -208, 210, 348, 682, 347, 400, 476, 552, 194, 171
182243081, 998, -15585, -1089, -4837, 2394, -951, -3655, -722, -208, 210, 348, 682, 347, 400, 476, 552, 194, 171
182248165, 998, -15585, -1089, -4837, 2394, -951, -3655, -722, -208, 210, 348, 682, 347, 400, 476, 552, 194, 171
182249085, 922, -15608, -1023, -4791, 2356, -477, -3845, -571, -155, 188, 348, 682, 347, 400, 476, 552, 194, 171
182249909, 922, -15608, -1023, -4791, 2356, -477, -3845, -571, -155, 188, 322, 640, 381, 422, 491, 556, 192, 159
182250710, 922, -15608, -1023, -4791, 2356, -477, -3845, -571, -155, 188, 322, 640, 381, 422, 491, 556, 192, 159
182255715, 922, -15608, -1023, -4791, 2356, -477, -3845, -571, -155, 188, 322, 640, 381, 422, 491, 556, 192, 159
182256530, 922, -15608, -1023, -4791, 2356, -477, -3845, -571, -155, 188, 322, 640, 381, 422, 491, 556, 192, 159
182257355, 922, -15608, -1023, -4791, 2356, -477, -3845, -571, -155, 188, 322, 640, 381, 422, 491, 556, 192, 159
182258175, 922, -15608, -1023, -4791, 2356, -477, -3845, -571, -155, 188, 322, 640, 381, 422, 491, 556, 192, 159
182263113, 922, -15608, -1023, -4791, 2356, -477, -3845, -571, -155, 188, 322, 640, 381, 422, 491, 556, 192, 159
182263939, 922, -15608, -1023, -4791, 2356, -477, -3845, -571, -155, 188, 322, 640, 381, 422, 491, 556, 192, 159
182264739, 922, -15608, -1023, -4791, 2356, -477, -3845, -571, -155, 188, 322, 640, 381, 422, 491, 556, 192, 159
182265558, 922, -15608, -1023, -4791, 2356, -477, -3845, -571, -155, 188, 322, 640, 381, 422, 491, 556, 192, 159
182270641, 922, -15608, -1023, -4791, 2356, -477, -3845, -571, -155, 188, 322, 640, 381, 422, 491, 556, 192, 159
182271552, 802, -15634, -956, -4741, 2320, -484, -3830, -837, -211, 111, 322, 640, 381, 422, 491, 556, 192, 159
182272385, 802, -15634, -956, -4741, 2320, -484, -3830, -837, -211, 111, 285, 666, 442, 423, 470, 560, 182, 164
182273189, 802, -15634, -956, -4741, 2320, -484, -3830, -837, -211, 111, 285, 666, 442, 423, 470, 560, 182, 164
182278215, 802, -15634, -956, -4741, 2320, -484, -3830, -837, -211, 111, 285, 666, 442, 423, 470, 560, 182, 164
182279017, 802, -15634, -956, -4741, 2320, -484, -3830, -837, -211, 111, 285, 666, 442, 423, 470, 560, 182, 164
182279833, 802, -15634, -956, -4741, 2320, -484, -3830, -837, -211, 111, 285, 666, 442, 423, 470, 560, 182, 164
182280633, 802, -15634, -956, -4741, 2320, -484, -3830, -837, -211, 111, 285, 666, 442, 423, 470, 560, 182, 164
182285585, 802, -15634, -956, -4741, 2320, -484, -3830, -837, -211, 111, 285, 666, 442, 423, 470, 560, 182, 164
182286416, 802, -15634, -956, -4741, 2320, -484, -3830, -837, -211, 111, 285, 666, 442, 423, 470, 560, 182, 164
182287286, 802, -15634, -956, -4741, 2320, -484, -3830, -837, -211, 111, 285, 666, 442, 423, 470, 560, 182, 164
182287998, 802, -15634, -956, -4741, 2320, -484, -3830, -837, -211, 111, 285, 666, 442, 423, 470, 560, 182, 164
182293166, 802, -15634, -956, -4741, 2320, -484, -3830, -837, -211, 111, 285, 666, 442, 423, 470, 560, 182, 164
182294111, 720, -15654, -876, -4703, 2296, -646, -3769, -754, -141, 176, 285, 666, 442, 423, 470, 560, 182, 164
182294914, 720, -15654, -876, -4703, 2296, -646, -3769, -754, -141, 176, 271, 643, 442, 426, 533, 513, 192, 178
182295733, 720, -15654, -876, -4703, 2296, -646, -3769, -754, -141, 176, 271, 643, 442, 426, 533, 513, 192, 178
182300740, 720, -15654, -876, -4703, 2296, -646, -3769, -754, -141, 176, 271, 643, 442, 426, 533, 513, 192, 178
182301560, 720, -15654, -876, -4703, 2296, -646, -3769, -754, -141, 176, 271, 643, 442, 426, 533, 513, 192, 178
182302364, 720, -15654, -876, -4703, 2296, -646, -3769, -754, -141, 176, 271, 643, 442, 426, 533, 513, 192, 178
182303195, 720, -15654, -876, -4703, 2296, -646, -3769, -754, -141, 176, 271, 643, 442, 426, 533, 513, 192, 178
182308146, 720, -15654, -876, -4703, 2296, -646, -3769, -754, -141, 176, 271, 643, 442, 426, 533, 513, 192, 178
182308965, 720, -15654, -876, -4703, 2296, -646, -3769, -754, -141, 176, 271, 643, 442, 426, 533, 513, 192, 178
182309768, 720, -15654, -876, -4703, 2296, -646, -3769, -754, -141, 176, 271, 643, 442, 426, 533, 513, 192, 178
182310575, 720, -15654, -876, -4703, 2296, -646, -3769, -754, -141, 176, 271, 643, 442, 426, 533, 513, 192, 178
182315643, 720, -15654, -876, -4703, 2296, -646, -3769, -754, -141, 176, 271, 643, 442, 426, 533, 513, 192, 178
182316596, 645, -15669, -798, -4678, 2235, -511, -3781, -661, -42, 209, 271, 643, 442, 426, 533, 513, 192, 178
182317418, 645, -15669, -798, -4678, 2235, -511, -3781, -661, -42, 209, 240, 744, 436, 320, 662, 373, 173, 169
182318289, 645, -15669, -798, -4678, 2235, -511, -3781, -661, -42, 209, 271, 643, 442, 426, 533, 513, 192, 178
182323216, 645, -15669, -798, -4678, 2235, -511, -3781, -661, -42, 209, 240, 744, 436, 320, 662, 373, 173, 169
182324041, 645, -15669, -798, -4678, 2235, -511, -3781, -661, -42, 209, 240, 744, 436, 320, 662, 373, 173, 169
182324864, 645, -15669, -798, -4678, 2235, -511, -3781, -661, -42, 209, 240, 744, 436, 320, 662, 373, 173, 169
182325665, 645, -15669, -798, -4678, 2235, -511, -3781, -661, -42, 209, 240, 744, 436, 320, 662, 373, 173, 169
182330614, 645, -15669, -798, -4678, 2235, -511, -3781, -661, -42, 209, 240, 744, 436, 320, 662, 373, 173, 169
182331444, 645, -15669, -798, -4678, 2235, -511, -3781, -661, -42, 209, 240, 744, 436, 320, 662, 373, 173, 169
182332288, 645, -15669, -798, -4678, 2235, -511, -3781, -661, -42, 209, 240, 744, 436, 320, 662, 373, 173, 169
182333052, 645, -15669, -798, -4678, 2235, -511, -3781, -661, -42, 209, 240, 744, 436, 320, 662, 373, 173, 169
182338132, 645, -15669, -798, -4678, 2235, -511, -3781, -661, -42, 209, 240, 744, 436, 320, 662, 373, 173, 169
182339063, 571, -15679, -714, -4667, 2288, -601, -3708, -727, -11, 203, 240, 744, 436, 320, 662, 373, 173, 169
182339893, 571, -15679, -714, -4667, 2288, -601, -3708, -727, -11, 203, 239, 660, 425, 285, 703, 485, 180, 166
182340691, 571, -15679, -714, -4667, 2288, -601, -3708, -727, -11, 203, 239, 660, 425, 285, 703, 485, 180, 166
182345696, 571, -15679, -714, -4667, 2288, -601, -3708, -727, -11, 203, 239, 660, 425, 285, 703, 485, 180, 166
182346515, 571, -15679, -714, -4667, 2288, -601, -3708, -727, -11, 203, 239, 660, 425, 285, 703, 485, 180, 166
182347343, 571, -15679, -714, -4667, 2288, -601, -3708, -727, -11, 203, 239, 660, 425, 285, 703, 485, 180, 166
182348157, 571, -15679, -714, -4667, 2288, -601, -3708, -727, -11, 203, 239, 660, 425, 285, 703, 485, 180, 166
182353104, 571, -15679, -714, -4667, 2288, -601, -3708, -727, -11, 203, 239, 660, 425, 285, 703, 485, 180, 166
182353915, 571, -15679, -714, -4667, 2288, -601, -3708, -727, -11, 203, 239, 660, 425, 285, 703, 485, 180, 166
182354708, 571, -15679, -714, -4667, 2288, -601, -3708, -727, -11, 203, 239, 660, 425, 285, 703, 485, 180, 166
182355530, 571, -15679, -714, -4667, 2288, -601, -3708, -727, -11, 203, 239, 660, 425, 285, 703, 485, 180, 166
182360676, 571, -15679, -714, -4667, 2288, -601, -3708, -727, -11, 203, 239, 660, 425, 285, 703, 485, 180, 166
182361588, 534, -15687, -621, -4659, 2327, -680, -3730, -580, 5, 288, 239, 660, 425, 285, 703, 485, 180, 166
182362404, 534, -15687, -621, -4659, 2327, -680, -3730, -580, 5, 288, 259, 599, 406, 553, 747, 480, 175, 173
182363279, 534, -15687, -621, -4659, 2327, -680, -3730, -580, 5, 288, 259, 599, 406, 553, 747, 480, 175, 173
182368295, 534, -15687, -621, -4659, 2327, -680, -3730, -580, 5, 288, 259, 599, 406, 553, 747, 480, 175, 173
182369054, 534, -15687, -621, -4659, 2327, -680, -3730, -580, 5, 288, 259, 599, 406, 553, 747, 480, 175, 173
182369867, 534, -15687, -621, -4659, 2327, -680, -3730, -580, 5, 288, 259, 599, 406, 553, 747, 480, 175, 173
182370694, 534, -15687, -621, -4659, 2327, -680, -3730, -580, 5, 288, 259, 599, 406, 553, 747, 480, 175, 173
182375639, 534, -15687, -621, -4659, 2327, -680, -3730, -580, 5, 288, 259, 599, 406, 553, 747, 480, 175, 173
182376441, 534, -15687, -621, -4659, 2327, -680, -3730, -580, 5, 288, 259, 599, 406, 553, 747, 480, 175, 173
182377285, 534, -15687, -621, -4659, 2327, -680, -3730, -580, 5, 288, 259, 599, 406, 553, 747, 480, 175, 173
182378070, 534, -15687, -621, -4659, 2327, -680, -3730, -580, 5, 288, 259, 599, 406, 553, 747, 480, 175, 173
182383138, 534, -15687, -621, -4659, 2327, -680, -3730, -580, 5, 288, 259, 599, 406, 553, 747, 480, 175, 173
182384091, 514, -15696, -559, -4639, 2310, -749, -3741, -471, -58, 125, 259, 599, 406, 553, 747, 480, 175, 173
182384888, 514, -15696, -559, -4639, 2310, -749, -3741, -471, -58, 125, 249, 554, 344, 635, 758, 461, 172, 166
182385719, 514, -15696, -559, -4639, 2310, -749, -3741, -471, -58, 125, 249, 554, 344, 635, 758, 461, 172, 166
182390718, 514, -15696, -559, -4639, 2310, -749, -3741, -471, -58, 125, 249, 554, 344, 635, 758, 461, 172, 166
182391546, 514, -15696, -559, -4639, 2310, -749, -3741, -471, -58, 125, 249, 554, 344, 635, 758, 461, 172, 166
182392339, 514, -15696, -559, -4639, 2310, -749, -3741, -471, -58, 125, 249, 554, 344, 635, 758, 461, 172, 166
182393223, 514, -15696, -559, -4639, 2310, -749, -3741, -471, -58, 125, 249, 554, 344, 635, 758, 461, 172, 166
182398112, 514, -15696, -559, -4639, 2310, -749, -3741, -471, -58, 125, 249, 554, 344, 635, 758, 461, 172, 166
182398912, 514, -15696, -559, -4639, 2310, -749, -3741, -471, -58, 125, 249, 554, 344, 635, 758, 461, 172, 166
182399740, 514, -15696, -559, -4639, 2310, -749, -3741, -471, -58, 125, 249, 554, 344, 635, 758, 461, 172, 166
182400598, 514, -15696, -559, -4639, 2310, -749, -3741, -471, -58, 125, 249, 554, 344, 635, 758, 461, 172, 166
182405608, 514, -15696, -559, -4639, 2310, -749, -3741, -471, -58, 125, 249, 554, 344, 635, 758, 461, 172, 166
182406546, 510, -15705, -518, -4612, 2328, -726, -3754, -340, -113, 53, 249, 554, 344, 635, 758, 461, 172, 166
182407357, 510, -15705, -518, -4612, 2328, -726, -3754, -340, -113, 53, 244, 678, 419, 637, 799, 461, 147, 142
182408193, 510, -15705, -518, -4612, 2328, -726, -3754, -340, -113, 53, 244, 678, 419, 637, 799, 461, 147, 142
182413185, 510, -15705, -518, -4612, 2328, -726, -3754, -340, -113, 53, 244, 678, 419, 637, 799, 461, 147, 142
182414013, 510, -15705, -518, -4612, 2328, -726, -3754, -340, -113, 53, 244, 678, 419, 637, 799, 461, 147, 142
182414815, 510, -15705, -518, -4612, 2328, -726, -3754, -340, -113, 53, 244, 678, 419, 637, 799, 461, 147, 142
182415639, 510, -15705, -518, -4612, 2328, -726, -3754, -340, -113, 53, 244, 678, 419, 637, 799, 461, 147, 142
182420634, 510, -15705, -518, -4612, 2328, -726, -3754, -340, -113, 53, 244, 678, 419, 637, 799, 461, 147, 142
182421474, 510, -15705, -518, -4612, 2328, -726, -3754, -340, -113, 53, 244, 678, 419, 637, 799, 461, 147, 142
182422289, 510, -15705, -518, -4612, 2328, -726, -3754, -340, -113, 53, 244, 678, 419, 637, 799, 461, 147, 142
182423096, 510, -15705, -518, -4612, 2328, -726, -3754, -340, -113, 53, 244, 678, 419, 637, 799, 461, 147, 142
182428164, 510, -15705, -518, -4612, 2328, -726, -3754, -340, -113, 53, 244, 678, 419, 637, 799, 461, 147, 142
182429085, 520, -15714, -489, -4585, 2366, -733, -3744, -246, -138, 13, 244, 678, 419, 637, 799, 461, 147, 142
182429913, 520, -15714, -489, -4585, 2366, -733, -3744, -246, -138, 13, 246, 585, 402, 628, 690, 460, 131, 132
182430715, 520, -15714, -489, -4585, 2366, -733, -3744, -246, -138, 13, 246, 585, 402, 628, 690, 460, 131, 132
182435737, 520, -15714, -489, -4585, 2366, -733, -3744, -246, -138, 13, 246, 585, 402, 628, 690, 460, 131, 132
182436535, 520, -15714, -489, -4585, 2366, -733, -3744, -246, -138, 13, 246, 585, 402, 628, 690, 460, 131, 132
182437358, 520, -15714, -489, -4585, 2366, -733, -3744, -246, -138, 13, 246, 585, 402, 628, 690, 460, 131, 132
182438168, 520, -15714, -489, -4585, 2366, -733, -3744, -246, -138, 13, 246, 585, 402, 628, 690, 460, 131, 132
182443115, 520, -15714, -489, -4585, 2366, -733, -3744, -246, -138, 13, 246, 585, 402, 628, 690, 460, 131, 132
182443937, 520, -15714, -489, -4585, 2366, -733, -3744, -246, -138, 13, 246, 585, 402, 628, 690, 460, 131, 132
182444758, 520, -15714, -489, -4585, 2366, -733, -3744, -246, -138, 13, 246, 585, 402, 628, 690, 460, 131, 132
182445559, 520, -15714, -489, -4585, 2366, -733, -3744, -246, -138, 13, 246, 585, 402, 628, 690, 460, 131, 132
182450638, 520, -15714, -489, -4585, 2366, -733, -3744, -246, -138, 13, 246, 585, 402, 628, 690, 460, 131, 132
182451561, 552, -15719, -472, -4565, 2366, -705, -3790, -84, -84, -3, 246, 585, 402, 628, 690, 460, 131, 132
182452389, 552, -15719, -472, -4565, 2366, -705, -3790, -84, -84, -3, 231, 609, 361, 641, 668, 371, 102, 115
182453195, 552, -15719, -472, -4565, 2366, -705, -3790, -84, -84, -3, 231, 609, 361, 641, 668, 371, 102, 115
182458208, 552, -15719, -472, -4565, 2366, -705, -3790, -84, -84, -3, 231, 609, 361, 641, 668, 371, 102, 115
182459010, 552, -15719, -472, -4565, 2366, -705, -3790, -84, -84, -3, 231, 609, 361, 641, 668, 371, 102, 115
182459837, 552, -15719, -472, -4565, 2366, -705, -3790, -84, -84, -3, 231, 609, 361, 641, 668, 371, 102, 115
182460657, 552, -15719, -472, -4565, 2366, -705, -3790, -84, -84, -3, 231, 609, 361, 641, 668, 371, 102, 115
182465588, 552, -15719, -472, -4565, 2366, -705, -3790, -84, -84, -3, 231, 609, 361, 641, 668, 371, 102, 115
182466430, 552, -15719, -472, -4565, 2366, -705, -3790, -84, -84, -3, 231, 609, 361, 641, 668, 371, 102, 115
182467288, 552, -15719, -472, -4565, 2366, -705, -3790, -84, -84, -3, 231, 609, 361, 641, 668, 371, 102, 115
182468042, 552, -15719, -472, -4565, 2366, -705, -3790, -84, -84, -3, 231, 609, 361, 641, 668, 371, 102, 115
182473163, 552, -15719, -472, -4565, 2366, -705, -3790, -84, -84, -3, 231, 609, 361, 641, 668, 371, 102, 115
182474110, 585, -15720, -451, -4559, 2345, -651, -3788, -52, 1, 34, 231, 609, 361, 641, 668, 371, 102, 115
182474913, 585, -15720, -451, -4559, 2345, -651, -3788, -52, 1, 34, 211, 642, 378, 424, 597, 368, 108, 113
182475733, 585, -15720, -451, -4559, 2345, -651, -3788, -52, 1, 34, 231, 609, 361, 641, 668, 371, 102, 115
182480736, 585, -15720, -451, -4559, 2345, -651, -3788, -52, 1, 34, 211, 642, 378, 424, 597, 368, 108, 113
182481557, 585, -15720, -451, -4559, 2345, -651, -3788, -52, 1, 34, 211, 642, 378, 424, 597, 368, 108, 113
182482385, 585, -15720, -451, -4559, 2345, -651, -3788, -52, 1, 34, 211, 642, 378, 424, 597, 368, 108, 113
182483194, 585, -15720, -451, -4559, 2345, -651, -3788, -52, 1, 34, 211, 642, 378, 424, 597, 368, 108, 113
182488137, 585, -15720, -451, -4559, 2345, -651, -3788, -52, 1, 34, 211, 642, 378, 424, 597, 368, 108, 113
182488959, 585, -15720, -451, -4559, 2345, -651, -3788, -52, 1, 34, 211, 642, 378, 424, 597, 368, 108, 113
182489757, 585, -15720, -451, -4559, 2345, -651, -3788, -52, 1, 34, 211, 642, 378, 424, 597, 368, 108, 113
182490585, 585, -15720, -451, -4559, 2345, -651, -3788, -52, 1, 34, 211, 642, 378, 424, 597, 368, 108, 113
182495665, 585, -15720, -451, -4559, 2345, -651, -3788, -52, 1, 34, 211, 642, 378, 424, 597, 368, 108, 113
182496590, 610, -15719, -426, -4562, 2402, -618, -3734, -81, 16, 62, 211, 642, 378, 424, 597, 368, 108, 113
182497416, 610, -15719, -426, -4562, 2402, -618, -3734, -81, 16, 62, 235, 719, 386, 279, 591, 354, 105, 106
182498287, 610, -15719, -426, -4562, 2402, -618, -3734, -81, 16, 62, 235, 719, 386, 279, 591, 354, 105, 106
182503292, 610, -15719, -426, -4562, 2402, -618, -3734, -81, 16, 62, 235, 719, 386, 279, 591, 354, 105, 106
182503976, 610, -15719, -426, -4562, 2402, -618, -3734, -81, 16, 62, 235, 719, 386, 279, 591, 354, 105, 106
182504869, 610, -15719, -426, -4562, 2402, -618, -3734, -81, 16, 62, 235, 719, 386, 279, 591, 354, 105, 106
182505664, 610, -15719, -426, -4562, 2402, -618, -3734, -81, 16, 62, 235, 719, 386, 279, 591, 354, 105, 106