Timestamp, Orientation x, Orientation y, Orientation z, Orientation w, Acceleration x, Acceleration y, Acceleration z, Rotation x, Rotation y, Rotation z, EMG 0, EMG 1, EMG 2, EMG 3, EMG 4, EMG 5, EMG 6, EMG 7
236994719, -5060, 10043, 11914, 96, 1634, -1362, -2955, -12, -21, -23, 0, 0, 0, 0, 0, 0, 0, 0
237002090, -5057, 10041, 11917, 94, 1634, -1377, -2977, -7, -5, -28, 0, 0, 0, 0, 0, 0, 0, 0
237024650, -5057, 10041, 11917, 93, 1603, -1379, -2973, -7, 12, -12, 0, 0, 0, 0, 0, 0, 0, 0
237047109, -5054, 10044, 11916, 92, 1616, -1389, -2980, -24, 19, -2, 0, 0, 0, 0, 0, 0, 0, 0
237063466, -5053, 10048, 11913, 95, 1624, -1396, -2954, -47, 23, -3, 0, 0, 0, 0, 0, 0, 0, 0
237064204, -5053, 10048, 11913, 95, 1624, -1396, -2954, -47, 23, -3, 259, 210, 265, 265, 160, 53, 59, 99
237065055, -5053, 10048, 11913, 95, 1624, -1396, -2954, -47, 23, -3, 259, 210, 265, 265, 160, 53, 59, 99
237085972, -5052, 10051, 11911, 94, 1616, -1413, -2981, -25, 24, -3, 259, 210, 265, 265, 160, 53, 59, 99
237086772, -5052, 10051, 11911, 94, 1616, -1413, -2981, -25, 24, -3, 289, 217, 265, 263, 156, 54, 55, 104
237087589, -5052, 10051, 11911, 94, 1616, -1413, -2981, -25, 24, -3, 289, 217, 265, 263, 156, 54, 55, 104
237108456, -5052, 10053, 11909, 92, 1622, -1377, -2985, -2, 23, 2, 289, 217, 265, 263, 156, 54, 55, 104
237109232, -5052, 10053, 11909, 92, 1622, -1377, -2985, -2, 23, 2, 241, 205, 267, 258, 140, 57, 60, 104
237110064, -5052, 10053, 11909, 92, 1622, -1377, -2985, -2, 23, 2, 241, 205, 267, 258, 140, 57, 60, 104
237123510, -5051, 10055, 11908, 92, 1612, -1390, -2952, -27, 13, -3, 241, 205, 267, 258, 140, 57, 60, 104
237124288, -5051, 10055, 11908, 92, 1612, -1390, -2952, -27, 13, -3, 243, 207, 293, 255, 135, 60, 57, 96
237125094, -5051, 10055, 11908, 92, 1612, -1390, -2952, -27, 13, -3, 243, 207, 293, 255, 135, 60, 57, 96
237145987, -5050, 10056, 11907, 90, 1606, -1406, -2969, -5, -8, 1, 243, 207, 293, 255, 135, 60, 57, 96
237146732, -5050, 10056, 11907, 90, 1606, -1406, -2969, -5, -8, 1, 237, 210, 282, 256, 156, 56, 51, 97
237147571, -5050, 10056, 11907, 90, 1606, -1406, -2969, -5, -8, 1, 237, 210, 282, 256, 156, 56, 51, 97
237168495, -5048, 10058, 11906, 81, 1612, -1370, -2976, 23, -17, 16, 237, 210, 282, 256, 156, 56, 51, 97
237169255, -5048, 10058, 11906, 81, 1612, -1370, -2976, 23, -17, 16, 217, 200, 261, 273, 165, 62, 53, 85
237170083, -5048, 10058, 11906, 81, 1612, -1370, -2976, 23, -17, 16, 217, 200, 261, 273, 165, 62, 53, 85
237183447, -5045, 10061, 11905, 73, 1625, -1375, -2979, 12, -21, 19, 217, 200, 261, 273, 165, 62, 53, 85
237184297, -5045, 10061, 11905, 73, 1625, -1375, -2979, 12, -21, 19, 197, 229, 282, 260, 169, 65, 63, 85
237185117, -5045, 10061, 11905, 73, 1625, -1375, -2979, 12, -21, 19, 197, 229, 282, 260, 169, 65, 63, 85
237205952, -5042, 10066, 11903, 65, 1621, -1371, -2984, 11, -13, 30, 197, 229, 282, 260, 169, 65, 63, 85
237206751, -5042, 10066, 11903, 65, 1621, -1371, -2984, 11, -13, 30, 188, 227, 258, 274, 171, 62, 62, 81
237207541, -5042, 10066, 11903, 65, 1621, -1371, -2984, 11, -13, 30, 188, 227, 258, 274, 171, 62, 62, 81
237228468, -5036, 10072, 11900, 60, 1602, -1374, -2979, -12, -12, 29, 188, 227, 258, 274, 171, 62, 62, 81
237229312, -5036, 10072, 11900, 60, 1602, -1374, -2979, -12, -12, 29, 185, 215, 235, 270, 174, 58, 66, 94
237230118, -5036, 10072, 11900, 60, 1602, -1374, -2979, -12, -12, 29, 185, 215, 235, 270, 174, 58, 66, 94
237242808, -5033, 10077, 11897, 52, 1601, -1393, -2973, 3, -16, 33, 185, 215, 235, 270, 174, 58, 66, 94
237243601, -5033, 10077, 11897, 52, 1601, -1393, -2973, 3, -16, 33, 187, 202, 259, 274, 160, 61, 67, 93
237249591, -5033, 10077, 11897, 52, 1601, -1393, -2973, 3, -16, 33, 187, 202, 259, 274, 160, 61, 67, 93
237265993, -5030, 10081, 11895, 45, 1608, -1380, -2966, 6, -19, 23, 187, 202, 259, 274, 160, 61, 67, 93
237266740, -5030, 10081, 11895, 45, 1608, -1380, -2966, 6, -19, 23, 184, 211, 270, 286, 154, 63, 72, 95
237267590, -5030, 10081, 11895, 45, 1608, -1380, -2966, 6, -19, 23, 184, 211, 270, 286, 154, 63, 72, 95
237288507, -5026, 10086, 11892, 40, 1611, -1376, -2973, -10, -14, 31, 184, 211, 270, 286, 154, 63, 72, 95
237289293, -5026, 10086, 11892, 40, 1611, -1376, -2973, -10, -14, 31, 192, 195, 257, 274, 156, 62, 66, 91
237290118, -5026, 10086, 11892, 40, 1611, -1376, -2973, -10, -14, 31, 192, 195, 257, 274, 156, 62, 66, 91
237302091, -5022, 10093, 11888, 38, 1611, -1376, -2967, -20, -7, 36, 192, 195, 257, 274, 156, 62, 66, 91
237310285, -5022, 10093, 11888, 38, 1611, -1376, -2967, -20, -7, 36, 179, 174, 257, 268, 156, 60, 62, 82
237311066, -5022, 10093, 11888, 38, 1611, -1376, -2967, -20, -7, 36, 179, 174, 257, 268, 156, 60, 62, 82
237325999, -5019, 10099, 11884, 37, 1608, -1378, -2960, -21, 0, 35, 179, 174, 257, 268, 156, 60, 62, 82
237326754, -5019, 10099, 11884, 37, 1608, -1378, -2960, -21, 0, 35, 173, 201, 325, 321, 155, 73, 58, 67
237327597, -5019, 10099, 11884, 37, 1608, -1378, -2960, -21, 0, 35, 173, 201, 325, 321, 155, 73, 58, 67
237348421, -5019, 10104, 11880, 31, 1594, -1386, -2976, 6, 4, 31, 173, 201, 325, 321, 155, 73, 58, 67
237349272, -5019, 10104, 11880, 31, 1594, -1386, -2976, 6, 4, 31, 171, 206, 310, 318, 162, 83, 60, 61
237350044, -5019, 10104, 11880, 31, 1594, -1386, -2976, 6, 4, 31, 171, 206, 310, 318, 162, 83, 60, 61
237362144, -5021, 10109, 11875, 26, 1604, -1392, -2961, 10, 5, 37, 171, 206, 310, 318, 162, 83, 60, 61
237370297, -5021, 10109, 11875, 26, 1604, -1392, -2961, 10, 5, 37, 180, 233, 398, 341, 202, 86, 53, 59
237371070, -5021, 10109, 11875, 26, 1604, -1392, -2961, 10, 5, 37, 180, 233, 398, 341, 202, 86, 53, 59
237385983, -5017, 10111, 11875, 21, 1604, -1341, -3019, 28, -11, 20, 180, 233, 398, 341, 202, 86, 53, 59
237386774, -5017, 10111, 11875, 21, 1604, -1341, -3019, 28, -11, 20, 149, 228, 462, 377, 203, 88, 58, 65
237387634, -5017, 10111, 11875, 21, 1604, -1341, -3019, 28, -11, 20, 149, 228, 462, 377, 203, 88, 58, 65
237408442, -5011, 10123, 11867, 24, 1600, -1412, -2982, -68, 16, 57, 149, 228, 462, 377, 203, 88, 58, 65
237409229, -5011, 10123, 11867, 24, 1600, -1412, -2982, -68, 16, 57, 194, 308, 493, 390, 209, 91, 64, 85
237410053, -5011, 10123, 11867, 24, 1600, -1412, -2982, -68, 16, 57, 194, 308, 493, 390, 209, 91, 64, 85
237422106, -5010, 10138, 11854, 18, 1579, -1457, -2942, -49, 11, 84, 194, 308, 493, 390, 209, 91, 64, 85
237430209, -5010, 10138, 11854, 18, 1579, -1457, -2942, -49, 11, 84, 220, 328, 479, 381, 230, 98, 69, 88
237431001, -5010, 10138, 11854, 18, 1579, -1457, -2942, -49, 11, 84, 220, 328, 479, 381, 230, 98, 69, 88
237445916, -5016, 10122, 11866, 13, 1633, -1390, -2966, 61, -20, -96, 220, 328, 479, 381, 230, 98, 69, 88
237446713, -5016, 10122, 11866, 13, 1633, -1390, -2966, 61, -20, -96, 250, 364, 550, 397, 271, 173, 76, 103
237447519, -5016, 10122, 11866, 13, 1633, -1390, -2966, 61, -20, -96, 250, 364, 550, 397, 271, 173, 76, 103
237468463, -5037, 10100, 11876, -9, 1606, -1328, -2992, 236, 7, -78, 250, 364, 550, 397, 271, 173, 76, 103
237469261, -5037, 10100, 11876, -9, 1606, -1328, -2992, 236, 7, -78, 260, 390, 580, 406, 292, 180, 77, 111
237470080, -5037, 10100, 11876, -9, 1606, -1328, -2992, 236, 7, -78, 260, 390, 580, 406, 292, 180, 77, 111
237482075, -5050, 10099, 11871, -27, 1640, -1253, -3005, 188, 2, 83, 260, 390, 580, 406, 292, 180, 77, 111
237490231, -5050, 10099, 11871, -27, 1640, -1253, -3005, 188, 2, 83, 282, 404, 565, 398, 297, 181, 91, 113
237491035, -5050, 10099, 11871, -27, 1640, -1253, -3005, 188, 2, 83, 282, 404, 565, 398, 297, 181, 91, 113
237505989, -5053, 10107, 11863, -23, 1643, -1352, -2968, 4, 35, 66, 282, 404, 565, 398, 297, 181, 91, 113
237506736, -5053, 10107, 11863, -23, 1643, -1352, -2968, 4, 35, 66, 276, 375, 596, 399, 299, 182, 94, 105
237507556, -5053, 10107, 11863, -23, 1643, -1352, -2968, 4, 35, 66, 276, 375, 596, 399, 299, 182, 94, 105
237528443, -5049, 10126, 11849, -15, 1605, -1415, -2950, -88, 36, 104, 276, 375, 596, 399, 299, 182, 94, 105
237529207, -5049, 10126, 11849, -15, 1605, -1415, -2950, -88, 36, 104, 279, 379, 622, 391, 287, 182, 94, 101
237530040, -5049, 10126, 11849, -15, 1605, -1415, -2950, -88, 36, 104, 279, 379, 622, 391, 287, 182, 94, 101
237542082, -5053, 10131, 11843, -18, 1618, -1420, -2915, -4, 9, 41, 279, 379, 622, 391, 287, 182, 94, 101
237550258, -5053, 10131, 11843, -18, 1618, -1420, -2915, -4, 9, 41, 268, 365, 599, 418, 279, 121, 97, 94
237551050, -5053, 10131, 11843, -18, 1618, -1420, -2915, -4, 9, 41, 268, 365, 599, 418, 279, 121, 97, 94
237565983, -5057, 10133, 11840, -27, 1624, -1406, -2945, 42, -13, 29, 268, 365, 599, 418, 279, 121, 97, 94
237566735, -5057, 10133, 11840, -27, 1624, -1406, -2945, 42, -13, 29, 258, 332, 511, 415, 257, 107, 95, 87
237567561, -5057, 10133, 11840, -27, 1624, -1406, -2945, 42, -13, 29, 258, 332, 511, 415, 257, 107, 95, 87
237588440, -5058, 10140, 11833, -32, 1620, -1375, -2939, 23, -10, 71, 258, 332, 511, 415, 257, 107, 95, 87
237589212, -5058, 10140, 11833, -32, 1620, -1375, -2939, 23, -10, 71, 255, 388, 522, 413, 271, 104, 84, 103
237590031, -5058, 10140, 11833, -32, 1620, -1375, -2939, 23, -10, 71, 255, 388, 522, 413, 271, 104, 84, 103
237602107, -5053, 10146, 11829, -36, 1605, -1385, -2959, -3, -19, 47, 255, 388, 522, 413, 271, 104, 84, 103
237610259, -5053, 10146, 11829, -36, 1605, -1385, -2959, -3, -19, 47, 254, 443, 567, 407, 312, 106, 79, 109
237611055, -5053, 10146, 11829, -36, 1605, -1385, -2959, -3, -19, 47, 254, 443, 567, 407, 312, 106, 79, 109
237625912, -5046, 10151, 11828, -35, 1614, -1392, -2948, -30, -28, 27, 254, 443, 567, 407, 312, 106, 79, 109
237626710, -5046, 10151, 11828, -35, 1614, -1392, -2948, -30, -28, 27, 230, 435, 594, 425, 324, 99, 75, 111
237627508, -5046, 10151, 11828, -35, 1614, -1392, -2948, -30, -28, 27, 230, 435, 594, 425, 324, 99, 75, 111
237648458, -5047, 10157, 11823, -48, 1583, -1448, -2938, 21, -23, 43, 230, 435, 594, 425, 324, 99, 75, 111
237649242, -5047, 10157, 11823, -48, 1583, -1448, -2938, 21, -23, 43, 235, 425, 563, 408, 294, 76, 65, 113
237650059, -5047, 10157, 11823, -48, 1583, -1448, -2938, 21, -23, 43, 235, 425, 563, 408, 294, 76, 65, 113
237662101, -5050, 10144, 11832, -54, 1629, -1311, -2966, 105, -35, -42, 235, 425, 563, 408, 294, 76, 65, 113
237670207, -5050, 10144, 11832, -54, 1629, -1311, -2966, 105, -35, -42, 241, 422, 568, 375, 296, 81, 78, 116
237671020, -5050, 10144, 11832, -54, 1629, -1311, -2966, 105, -35, -42, 241, 422, 568, 375, 296, 81, 78, 116
237685689, -5054, 10141, 11834, -53, 1624, -1368, -2932, 27, 5, -8, 241, 422, 568, 375, 296, 81, 78, 116
237686443, -5054, 10141, 11834, -53, 1624, -1368, -2932, 27, 5, -8, 215, 363, 538, 378, 292, 94, 78, 100
237692047, -5054, 10141, 11834, -53, 1624, -1368, -2932, 27, 5, -8, 215, 363, 538, 378, 292, 94, 78, 100
237708415, -5051, 10140, 11835, -47, 1589, -1355, -2944, -12, 16, -11, 215, 363, 538, 378, 292, 94, 78, 100
237709222, -5051, 10140, 11835, -47, 1589, -1355, -2944, -12, 16, -11, 214, 290, 431, 394, 259, 90, 75, 95
237710061, -5051, 10140, 11835, -47, 1589, -1355, -2944, -12, 16, -11, 214, 290, 431, 394, 259, 90, 75, 95
237722107, -5050, 10140, 11836, -40, 1591, -1395, -2930, -31, 23, -18, 214, 290, 431, 394, 259, 90, 75, 95
237737750, -5050, 10140, 11836, -40, 1591, -1395, -2930, -31, 23, -18, 306, 279, 324, 382, 242, 84, 76, 128
237738523, -5050, 10140, 11836, -40, 1591, -1395, -2930, -31, 23, -18, 306, 279, 324, 382, 242, 84, 76, 128
237747383, -5055, 10141, 11833, -37, 1619, -1399, -2950, 6, 29, 15, 306, 279, 324, 382, 242, 84, 76, 128
237748197, -5055, 10141, 11833, -37, 1619, -1399, -2950, 6, 29, 15, 307, 302, 323, 394, 268, 89, 80, 133
237748994, -5055, 10141, 11833, -37, 1619, -1399, -2950, 6, 29, 15, 307, 302, 323, 394, 268, 89, 80, 133
237749824, -5055, 10141, 11833, -37, 1619, -1399, -2950, 6, 29, 15, 307, 302, 323, 394, 268, 89, 80, 133
237754705, -5055, 10141, 11833, -37, 1619, -1399, -2950, 6, 29, 15, 307, 302, 323, 394, 268, 89, 80, 133
237755521, -5055, 10141, 11833, -37, 1619, -1399, -2950, 6, 29, 15, 307, 302, 323, 394, 268, 89, 80, 133
237756317, -5055, 10141, 11833, -37, 1619, -1399, -2950, 6, 29, 15, 307, 302, 323, 394, 268, 89, 80, 133
237757134, -5055, 10141, 11833, -37, 1619, -1399, -2950, 6, 29, 15, 307, 302, 323, 394, 268, 89, 80, 133
237759516, -5055, 10141, 11833, -37, 1619, -1399, -2950, 6, 29, 15, 307, 302, 323, 394, 268, 89, 80, 133
237769866, -5057, 10142, 11831, -33, 1590, -1379, -2953, -2, 34, 0, 307, 302, 323, 394, 268, 89, 80, 133
237770663, -5057, 10142, 11831, -33, 1590, -1379, -2953, -2, 34, 0, 307, 296, 362, 401, 250, 85, 63, 132
237771497, -5057, 10142, 11831, -33, 1590, -1379, -2953, -2, 34, 0, 307, 296, 362, 401, 250, 85, 63, 132
237772269, -5057, 10142, 11831, -33, 1590, -1379, -2953, -2, 34, 0, 307, 296, 362, 401, 250, 85, 63, 132
237777246, -5057, 10142, 11831, -33, 1590, -1379, -2953, -2, 34, 0, 307, 296, 362, 401, 250, 85, 63, 132
237778044, -5057, 10142, 11831, -33, 1590, -1379, -2953, -2, 34, 0, 307, 296, 362, 401, 250, 85, 63, 132
237778871, -5057, 10142, 11831, -33, 1590, -1379, -2953, -2, 34, 0, 307, 296, 362, 401, 250, 85, 63, 132
237779675, -5057, 10142, 11831, -33, 1590, -1379, -2953, -2, 34, 0, 307, 296, 362, 401, 250, 85, 63, 132
237782803, -5057, 10142, 11831, -33, 1590, -1379, -2953, -2, 34, 0, 307, 296, 362, 401, 250, 85, 63, 132
237783697, -5056, 10144, 11830, -27, 1598, -1386, -2946, -25, 27, -1, 307, 296, 362, 401, 250, 85, 63, 132
237792322, -5056, 10144, 11830, -27, 1598, -1386, -2946, -25, 27, -1, 323, 298, 385, 410, 235, 84, 65, 140
237793119, -5056, 10144, 11830, -27, 1598, -1386, -2946, -25, 27, -1, 323, 298, 385, 410, 235, 84, 65, 140
237794010, -5056, 10144, 11830, -27, 1598, -1386, -2946, -25, 27, -1, 323, 298, 385, 410, 235, 84, 65, 140
237794747, -5056, 10144, 11830, -27, 1598, -1386, -2946, -25, 27, -1, 323, 298, 385, 410, 235, 84, 65, 140
237799084, -5056, 10144, 11830, -27, 1598, -1386, -2946, -25, 27, -1, 323, 298, 385, 410, 235, 84, 65, 140
237799872, -5056, 10144, 11830, -27, 1598, -1386, -2946, -25, 27, -1, 323, 298, 385, 410, 235, 84, 65, 140
237800709, -5056, 10144, 11830, -27, 1598, -1386, -2946, -25, 27, -1, 323, 298, 385, 410, 235, 84, 65, 140
237801494, -5056, 10144, 11830, -27, 1598, -1386, -2946, -25, 27, -1, 323, 298, 385, 410, 235, 84, 65, 140
237807320, -5058, 10145, 11829, -21, 1589, -1398, -2932, -20, 38, -6, 323, 298, 385, 410, 235, 84, 65, 140
237808172, -5058, 10145, 11829, -21, 1589, -1398, -2932, -20, 38, -6, 318, 279, 395, 412, 232, 96, 72, 144
237808974, -5058, 10145, 11829, -21, 1589, -1398, -2932, -20, 38, -6, 318, 279, 395, 412, 232, 96, 72, 144
237809762, -5058, 10145, 11829, -21, 1589, -1398, -2932, -20, 38, -6, 318, 279, 395, 412, 232, 96, 72, 144
