Timestamp, Orientation x, Orientation y, Orientation z, Orientation w, Acceleration x, Acceleration y, Acceleration z, Rotation x, Rotation y, Rotation z, EMG 0, EMG 1, EMG 2, EMG 3, EMG 4, EMG 5, EMG 6, EMG 7
0,2679,12319,-6594,8124,3816,3334,-253,-19,16,-24,0,0,0,0,0,0,0,0
786,2684,12318,-6594,8124,3810,3327,-261,-27,10,-16,0,0,0,0,0,0,0,0
14284,2688,12317,-6596,8124,3808,3319,-269,-29,7,-10,0,0,0,0,0,0,0,0
36787,2691,12315,-6597,8124,3816,3324,-279,-20,10,-8,0,0,0,0,0,0,0,0
51785,2694,12313,-6599,8125,3813,3330,-261,-23,12,4,0,0,0,0,0,0,0,0
67389,2694,12313,-6599,8125,3813,3330,-261,-23,12,4,22,21,38,28,34,68,42,53
74344,2698,12308,-6606,8125,3819,3319,-267,-45,8,22,22,21,38,28,34,68,42,53
82367,2698,12308,-6606,8125,3819,3319,-267,-45,8,22,23,23,32,27,34,79,75,37
99476,2700,12300,-6619,8126,3810,3280,-219,-70,-4,37,23,23,32,27,34,79,75,37
101138,2679,12319,-6594,8124,3816,3334,-253,-19,16,-24,23,23,32,27,34,79,75,37
101959,2684,12318,-6594,8124,3810,3327,-261,-27,10,-16,23,23,32,27,34,79,75,37
106887,2688,12317,-6596,8124,3808,3319,-269,-29,7,-10,23,23,32,27,34,79,75,37
107738,2691,12315,-6597,8124,3816,3324,-279,-20,10,-8,23,23,32,27,34,79,75,37
108562,2694,12313,-6599,8125,3813,3330,-261,-23,12,4,23,23,32,27,34,79,75,37
109360,2694,12313,-6599,8125,3813,3330,-261,-23,12,4,22,21,38,28,34,68,42,53
114460,2694,12313,-6599,8125,3813,3330,-261,-23,12,4,23,23,32,27,34,79,75,37
130316,2700,12300,-6619,8126,3810,3280,-219,-70,-4,37,23,23,32,27,34,79,75,37
131115,2700,12300,-6619,8126,3810,3280,-219,-70,-4,37,27,27,29,24,43,119,133,43
151285,2682,12287,-6645,8130,3755,3148,-189,-46,-38,107,27,27,29,24,43,119,133,43
159463,2682,12287,-6645,8130,3755,3148,-189,-46,-38,107,37,30,32,31,65,237,145,68
175337,2639,12264,-6703,8131,3687,2958,-142,-97,-122,245,37,30,32,31,65,237,145,68
176131,2639,12264,-6703,8131,3687,2958,-142,-97,-122,245,41,34,42,67,86,394,178,71
197865,2543,12237,-6807,8116,3676,2821,-157,-67,-347,542,41,34,42,67,86,394,178,71
198660,2543,12237,-6807,8116,3676,2821,-157,-67,-347,542,61,58,61,79,100,475,205,143
220322,2326,12194,-7009,8074,3722,2797,-162,117,-838,1365,61,58,61,79,100,475,205,143
221116,2326,12194,-7009,8074,3722,2797,-162,117,-838,1365,113,78,116,120,162,600,332,247
242828,1931,12150,-7300,7986,3768,2259,-323,553,-1453,2273,113,78,116,120,162,600,332,247
243611,1931,12150,-7300,7986,3768,2259,-323,553,-1453,2273,120,85,125,125,165,708,404,263
265379,1316,12088,-7647,7880,4026,2072,-277,1255,-2107,3178,120,85,125,125,165,708,404,263
266163,1316,12088,-7647,7880,4026,2072,-277,1255,-2107,3178,129,113,127,127,170,786,610,321
287839,621,11909,-8179,7702,4617,2352,-826,893,-2313,4467,129,113,127,127,170,786,610,321
288611,621,11909,-8179,7702,4617,2352,-826,893,-2313,4467,144,131,147,131,246,803,624,342
310291,59,11573,-8918,7413,4292,2049,-1035,-538,-2024,5367,144,131,147,131,246,803,624,342
311093,59,11573,-8918,7413,4292,2049,-1035,-538,-2024,5367,151,195,144,128,274,780,624,334
332854,-382,11132,-9766,7000,2819,2003,-1052,-1645,-1914,5874,151,195,144,128,274,780,624,334
333635,-382,11132,-9766,7000,2819,2003,-1052,-1645,-1914,5874,159,228,202,233,271,701,565,280
334501,-382,11132,-9766,7000,2819,2003,-1052,-1645,-1914,5874,151,195,144,128,274,780,624,334
339462,-382,11132,-9766,7000,2819,2003,-1052,-1645,-1914,5874,159,228,202,233,271,701,565,280
355278,-851,10617,-10650,6447,1800,2161,-1122,-2063,-2322,6323,159,228,202,233,271,701,565,280
356090,-851,10617,-10650,6447,1800,2161,-1122,-2063,-2322,6323,168,234,223,252,278,603,513,275
377838,-1325,10106,-11434,5814,1205,2558,-1045,-2091,-2670,5982,168,234,223,252,278,603,513,275
378698,-1325,10106,-11434,5814,1205,2558,-1045,-2091,-2670,5982,165,234,246,275,281,457,240,207
400336,-1784,9597,-12105,5160,702,2696,-1184,-1985,-2726,5546,165,234,246,275,281,457,240,207
401144,-1784,9597,-12105,5160,702,2696,-1184,-1985,-2726,5546,153,228,257,272,212,293,181,173
422828,-2262,9132,-12671,4402,1047,2746,-1183,-2198,-3381,5167,153,228,257,272,212,293,181,173
423610,-2262,9132,-12671,4402,1047,2746,-1183,-2198,-3381,5167,140,177,280,317,171,225,156,145
445337,-2744,8847,-12968,3806,1502,2410,-588,-1312,-3467,3466,140,177,280,317,171,225,156,145
446167,-2744,8847,-12968,3806,1502,2410,-588,-1312,-3467,3466,94,125,235,314,139,176,155,117
467827,-3143,8746,-13043,3457,1266,2232,-463,-389,-2790,1633,94,125,235,314,139,176,155,117
468620,-3143,8746,-13043,3457,1266,2232,-463,-389,-2790,1633,63,109,236,345,124,114,125,90
490301,-3182,8823,-12964,3522,1816,2631,217,234,-1045,-3,63,109,236,345,124,114,125,90
491119,-3182,8823,-12964,3522,1816,2631,217,234,-1045,-3,50,80,536,381,106,96,101,70
512813,-2997,9036,-12758,3878,2241,2285,35,767,372,-1456,50,80,536,381,106,96,101,70
513660,-2997,9036,-12758,3878,2241,2285,35,767,372,-1456,58,99,816,386,120,99,218,85
535288,-3022,9341,-12420,4217,2310,1207,-905,1595,-63,-2508,58,99,816,386,120,99,218,85
536144,-3022,9341,-12420,4217,2310,1207,-905,1595,-63,-2508,86,106,994,371,179,465,648,175
557763,-3286,9541,-11988,4785,2788,937,-1183,3670,-39,-2438,86,106,994,371,179,465,648,175
558625,-3286,9541,-11988,4785,2788,937,-1183,3670,-39,-2438,100,121,1006,314,217,695,886,217
580314,-3720,9590,-11449,5619,2746,1434,-2617,5663,254,-2187,100,121,1006,314,217,695,886,217
581139,-3720,9590,-11449,5619,2746,1434,-2617,5663,254,-2187,112,132,1012,275,273,811,933,251
602788,-4566,9364,-10938,6345,2304,1504,-3402,6895,-1148,-89,112,132,1012,275,273,811,933,251
603638,-4566,9364,-10938,6345,2304,1504,-3402,6895,-1148,-89,122,137,884,202,284,858,984,262
604411,-4566,9364,-10938,6345,2304,1504,-3402,6895,-1148,-89,112,132,1012,275,273,811,933,251
609475,-4566,9364,-10938,6345,2304,1504,-3402,6895,-1148,-89,122,137,884,202,284,858,984,262
625338,-5829,8913,-10644,6460,253,2617,-2543,5835,-3844,3313,122,137,884,202,284,858,984,262
626182,-5829,8913,-10644,6460,253,2617,-2543,5835,-3844,3313,121,130,731,188,343,864,978,264
647841,-6845,8572,-10548,6071,4082,5336,-15,2570,-4327,3973,121,130,731,188,343,864,978,264
648611,-6845,8572,-10548,6071,4082,5336,-15,2570,-4327,3973,105,136,731,593,684,742,770,216
670316,-6751,8265,-11061,5676,3509,4125,566,-2046,1015,3336,105,136,731,593,684,742,770,216
671094,-6751,8265,-11061,5676,3509,4125,566,-2046,1015,3336,95,133,1084,912,920,545,489,175
692826,-6371,7945,-11658,5369,2874,2921,522,-2652,2571,2871,95,133,1084,912,920,545,489,175
693637,-6371,7945,-11658,5369,2874,2921,522,-2652,2571,2871,115,208,1093,947,920,352,397,128
715315,-5946,7453,-12165,5437,1214,3369,-315,-557,3739,2554,115,208,1093,947,920,352,397,128
716115,-5946,7453,-12165,5437,1214,3369,-315,-557,3739,2554,107,209,1115,959,933,220,251,108
737804,-5562,7154,-12636,5163,513,3552,-758,-2154,2295,2355,107,209,1115,959,933,220,251,108
738586,-5562,7154,-12636,5163,513,3552,-758,-2154,2295,2355,103,221,1063,962,914,193,186,87
760339,-5193,7242,-12884,4799,869,3648,-1112,-2827,862,366,103,221,1063,962,914,193,186,87
761115,-5193,7242,-12884,4799,869,3648,-1112,-2827,862,366,114,250,907,778,684,157,160,81
782789,-4727,7669,-12954,4412,612,3295,-1074,-3537,385,-1703,114,250,907,778,684,157,160,81
783614,-4727,7669,-12954,4412,612,3295,-1074,-3537,385,-1703,131,247,421,846,264,105,116,75
805287,-4315,8266,-12820,4141,495,3002,-621,-2939,-107,-3112,131,247,421,846,264,105,116,75
806091,-4315,8266,-12820,4141,495,3002,-621,-2939,-107,-3112,106,185,459,1072,206,166,113,73
827802,-3965,8640,-12667,4198,2428,1062,88,-1072,939,-2648,106,185,459,1072,206,166,113,73
828584,-3965,8640,-12667,4198,2428,1062,88,-1072,939,-2648,136,224,436,1309,159,361,412,202
850316,-3682,8920,-12478,4428,2626,1318,114,51,1245,-2486,136,224,436,1309,159,361,412,202
851112,-3682,8920,-12478,4428,2626,1318,114,51,1245,-2486,149,231,422,1392,205,600,660,320
872839,-3527,9125,-12134,5050,2268,853,-730,2442,1813,-2945,149,231,422,1392,205,600,660,320
873637,-3527,9125,-12134,5050,2268,853,-730,2442,1813,-2945,162,198,401,1409,282,925,919,489
895286,-3731,9113,-11688,5903,1578,1231,-2458,4961,1304,-2020,162,198,401,1409,282,925,919,489
896115,-3731,9113,-11688,5903,1578,1231,-2458,4961,1304,-2020,168,199,436,1223,327,1019,984,540
917770,-4395,8980,-11229,6510,150,976,-3118,5594,-1082,-333,168,199,436,1223,327,1019,984,540
918581,-4395,8980,-11229,6510,150,976,-3118,5594,-1082,-333,168,199,365,1009,336,1030,985,544
940325,-5428,8868,-10842,6541,-937,2759,-906,4566,-4144,1400,168,199,365,1009,336,1030,985,544
941157,-5428,8868,-10842,6541,-937,2759,-906,4566,-4144,1400,144,160,572,687,482,993,915,511
962790,-5997,8649,-10911,6214,4966,4801,859,765,-2485,2898,144,160,572,687,482,993,915,511
963612,-5997,8649,-10911,6214,4966,4801,859,765,-2485,2898,137,155,816,839,879,874,759,448
985261,-5557,8383,-11413,6085,1692,3565,503,-2184,2737,2003,137,155,816,839,879,874,759,448
986078,-5557,8383,-11413,6085,1692,3565,503,-2184,2737,2003,123,179,981,1038,1047,535,413,259
1007809,-4810,8289,-11950,5814,2187,3213,56,-4008,3181,1123,123,179,981,1038,1047,535,413,259
1008607,-4810,8289,-11950,5814,2187,3213,56,-4008,3181,1123,156,214,993,1030,1100,338,236,139
1030314,-4094,8052,-12458,5625,272,2811,-616,-3284,3663,1323,156,214,993,1030,1100,338,236,139
1031091,-4094,8052,-12458,5625,272,2811,-616,-3284,3663,1323,171,232,991,1026,1117,273,228,118
1052763,-3526,8036,-12865,5092,164,2675,-687,-4502,1529,867,171,232,991,1026,1117,273,228,118
1053558,-3526,8036,-12865,5092,164,2675,-687,-4502,1529,867,174,225,885,1015,1057,215,162,111
1075297,-2987,8456,-12925,4578,829,2225,-1335,-4282,212,-1928,174,225,885,1015,1057,215,162,111
1076118,-2987,8456,-12925,4578,829,2225,-1335,-4282,212,-1928,171,210,683,962,745,193,145,102
1097763,-2475,9057,-12735,4255,740,1955,-818,-3258,133,-3636,171,210,683,962,745,193,145,102
1098631,-2475,9057,-12735,4255,740,1955,-818,-3258,133,-3636,169,185,432,823,446,141,137,171
1120355,-2181,9701,-12268,4368,1082,992,-251,-478,220,-4739,169,185,432,823,446,141,137,171
1121117,-2181,9701,-12268,4368,1082,992,-251,-478,220,-4739,120,150,376,1151,255,124,239,225
