Timestamp, Orientation x, Orientation y, Orientation z, Orientation w, Acceleration x, Acceleration y, Acceleration z, Rotation x, Rotation y, Rotation z, EMG 0, EMG 1, EMG 2, EMG 3, EMG 4, EMG 5, EMG 6, EMG 7
274397916, 4255, -7798, -13576, -2288, 2130, -300, -3876, 7, -12, 21, 0, 0, 0, 0, 0, 0, 0, 0
274405401, 4229, -7819, -13579, -2248, 2152, -291, -3902, -11, -25, 53, 0, 0, 0, 0, 0, 0, 0, 0
274427896, 4203, -7837, -13582, -2212, 2153, -338, -3876, -36, -34, 27, 0, 0, 0, 0, 0, 0, 0, 0
274442873, 4182, -7848, -13588, -2173, 2147, -345, -3856, 3, -30, 1, 0, 0, 0, 0, 0, 0, 0, 0
274466758, 4164, -7858, -13595, -2128, 2130, -329, -3864, 59, -36, 9, 0, 0, 0, 0, 0, 0, 0, 0
274467521, 4164, -7858, -13595, -2128, 2130, -329, -3864, 59, -36, 9, 55, 29, 46, 53, 32, 35, 42, 78
274468347, 4164, -7858, -13595, -2128, 2130, -329, -3864, 59, -36, 9, 55, 29, 46, 53, 32, 35, 42, 78
274489211, 4150, -7870, -13601, -2079, 2131, -319, -3867, 97, -43, 40, 55, 29, 46, 53, 32, 35, 42, 78
274490020, 4150, -7870, -13601, -2079, 2131, -319, -3867, 97, -43, 40, 50, 28, 55, 54, 38, 36, 46, 74
274490846, 4150, -7870, -13601, -2079, 2131, -319, -3867, 97, -43, 40, 50, 28, 55, 54, 38, 36, 46, 74
274502891, 4136, -7882, -13604, -2034, 2140, -312, -3872, 88, -37, 52, 50, 28, 55, 54, 38, 36, 46, 74
274511044, 4136, -7882, -13604, -2034, 2140, -312, -3872, 88, -37, 52, 47, 27, 60, 54, 41, 39, 49, 80
274511857, 4136, -7882, -13604, -2034, 2140, -312, -3872, 88, -37, 52, 47, 27, 60, 54, 41, 39, 49, 80
274526746, 4120, -7890, -13609, -2007, 2165, -300, -3907, 19, -8, 7, 47, 27, 60, 54, 41, 39, 49, 80
274527568, 4120, -7890, -13609, -2007, 2165, -300, -3907, 19, -8, 7, 46, 27, 61, 53, 40, 40, 51, 81
274528369, 4120, -7890, -13609, -2007, 2165, -300, -3907, 19, -8, 7, 46, 27, 61, 53, 40, 40, 51, 81
274549231, 4102, -7889, -13616, -1998, 2148, -285, -3883, -52, 25, -65, 46, 27, 61, 53, 40, 40, 51, 81
274549997, 4102, -7889, -13616, -1998, 2148, -285, -3883, -52, 25, -65, 45, 28, 59, 51, 40, 39, 53, 74
274550849, 4102, -7889, -13616, -1998, 2148, -285, -3883, -52, 25, -65, 45, 28, 59, 51, 40, 39, 53, 74
274562883, 4082, -7888, -13625, -1982, 2121, -320, -3877, -41, 2, -70, 45, 28, 59, 51, 40, 39, 53, 74
274571046, 4082, -7888, -13625, -1982, 2121, -320, -3877, -41, 2, -70, 47, 30, 62, 50, 40, 41, 54, 71
274571846, 4082, -7888, -13625, -1982, 2121, -320, -3877, -41, 2, -70, 47, 30, 62, 50, 40, 41, 54, 71
274586754, 4070, -7889, -13632, -1956, 2132, -340, -3873, 16, -4, -33, 47, 30, 62, 50, 40, 41, 54, 71
274587620, 4070, -7889, -13632, -1956, 2132, -340, -3873, 16, -4, -33, 47, 31, 53, 49, 36, 39, 50, 66
274588329, 4070, -7889, -13632, -1956, 2132, -340, -3873, 16, -4, -33, 47, 31, 53, 49, 36, 39, 50, 66
274609247, 4063, -7894, -13636, -1922, 2126, -311, -3872, 79, -4, 11, 47, 31, 53, 49, 36, 39, 50, 66
274610034, 4063, -7894, -13636, -1922, 2126, -311, -3872, 79, -4, 11, 50, 32, 45, 47, 34, 39, 55, 74
274610846, 4063, -7894, -13636, -1922, 2126, -311, -3872, 79, -4, 11, 50, 32, 45, 47, 34, 39, 55, 74
274622914, 4056, -7897, -13640, -1893, 2138, -271, -3863, 87, -2, 13, 50, 32, 45, 47, 34, 39, 55, 74
274630984, 4056, -7897, -13640, -1893, 2138, -271, -3863, 87, -2, 13, 57, 34, 52, 43, 33, 39, 56, 72
274631836, 4056, -7897, -13640, -1893, 2138, -271, -3863, 87, -2, 13, 57, 34, 52, 43, 33, 39, 56, 72
274646699, 4045, -7899, -13645, -1870, 2143, -297, -3875, 39, -12, -10, 57, 34, 52, 43, 33, 39, 56, 72
274647543, 4045, -7899, -13645, -1870, 2143, -297, -3875, 39, -12, -10, 55, 35, 54, 42, 32, 41, 55, 71
274648327, 4045, -7899, -13645, -1870, 2143, -297, -3875, 39, -12, -10, 55, 35, 54, 42, 32, 41, 55, 71
274669276, 4037, -7902, -13649, -1849, 2146, -334, -3884, 23, -2, -10, 55, 35, 54, 42, 32, 41, 55, 71
274670023, 4037, -7902, -13649, -1849, 2146, -334, -3884, 23, -2, -10, 53, 33, 53, 43, 30, 39, 50, 71
274670888, 4037, -7902, -13649, -1849, 2146, -334, -3884, 23, -2, -10, 53, 33, 53, 43, 30, 39, 50, 71
274682908, 4031, -7907, -13650, -1827, 2133, -314, -3847, 40, 7, 19, 53, 33, 53, 43, 30, 39, 50, 71
274691001, 4031, -7907, -13650, -1827, 2133, -314, -3847, 40, 7, 19, 52, 33, 54, 42, 31, 39, 52, 74
274691789, 4031, -7907, -13650, -1827, 2133, -314, -3847, 40, 7, 19, 52, 33, 54, 42, 31, 39, 52, 74
274706712, 4025, -7915, -13651, -1804, 2138, -286, -3848, 58, -11, 45, 52, 33, 54, 42, 31, 39, 52, 74
274707565, 4025, -7915, -13651, -1804, 2138, -286, -3848, 58, -11, 45, 49, 32, 61, 41, 30, 39, 49, 57
274708319, 4025, -7915, -13651, -1804, 2138, -286, -3848, 58, -11, 45, 49, 32, 61, 41, 30, 39, 49, 57
274729265, 4014, -7922, -13653, -1784, 2149, -288, -3874, 37, -30, 32, 49, 32, 61, 41, 30, 39, 49, 57
274730043, 4014, -7922, -13653, -1784, 2149, -288, -3874, 37, -30, 32, 39, 32, 63, 37, 29, 38, 45, 61
274730821, 4014, -7922, -13653, -1784, 2149, -288, -3874, 37, -30, 32, 39, 32, 63, 37, 29, 38, 45, 61
274750280, 4005, -7922, -13656, -1776, 2161, -330, -3858, -19, 4, -32, 39, 32, 63, 37, 29, 38, 45, 61
274751015, 4005, -7922, -13656, -1776, 2161, -330, -3858, -19, 4, -32, 42, 33, 65, 39, 29, 35, 47, 66
274751835, 4005, -7922, -13656, -1776, 2161, -330, -3858, -19, 4, -32, 42, 33, 65, 39, 29, 35, 47, 66
274766740, 3995, -7917, -13664, -1767, 2125, -342, -3861, -19, 4, -72, 42, 33, 65, 39, 29, 35, 47, 66
274767571, 3995, -7917, -13664, -1767, 2125, -342, -3861, -19, 4, -72, 40, 34, 65, 39, 31, 35, 48, 65
274768389, 3995, -7917, -13664, -1767, 2125, -342, -3861, -19, 4, -72, 40, 34, 65, 39, 31, 35, 48, 65
274789193, 3984, -7916, -13669, -1755, 2130, -313, -3858, 2, -16, -31, 40, 34, 65, 39, 31, 35, 48, 65
274790010, 3984, -7916, -13669, -1755, 2130, -313, -3858, 2, -16, -31, 46, 35, 65, 37, 29, 33, 52, 73
274790821, 3984, -7916, -13669, -1755, 2130, -313, -3858, 2, -16, -31, 46, 35, 65, 37, 29, 33, 52, 73
274802886, 3976, -7922, -13670, -1737, 2136, -324, -3851, 19, -24, 22, 46, 35, 65, 37, 29, 33, 52, 73
274811047, 3976, -7922, -13670, -1737, 2136, -324, -3851, 19, -24, 22, 49, 36, 57, 37, 33, 32, 50, 75
274811846, 3976, -7922, -13670, -1737, 2136, -324, -3851, 19, -24, 22, 49, 36, 57, 37, 33, 32, 50, 75
274826066, 3968, -7928, -13671, -1717, 2125, -318, -3866, 43, -25, 28, 49, 36, 57, 37, 33, 32, 50, 75
274826901, 3968, -7928, -13671, -1717, 2125, -318, -3866, 43, -25, 28, 61, 37, 57, 40, 32, 32, 54, 80
274832847, 3968, -7928, -13671, -1717, 2125, -318, -3866, 43, -25, 28, 61, 37, 57, 40, 32, 32, 54, 80
274849209, 3962, -7932, -13674, -1695, 2130, -318, -3856, 61, -33, 19, 61, 37, 57, 40, 32, 32, 54, 80
274850029, 3962, -7932, -13674, -1695, 2130, -318, -3856, 61, -33, 19, 60, 38, 52, 39, 32, 32, 55, 78
274850848, 3962, -7932, -13674, -1695, 2130, -318, -3856, 61, -33, 19, 60, 38, 52, 39, 32, 32, 55, 78
274862872, 3956, -7933, -13677, -1677, 2136, -345, -3890, 40, -18, -5, 60, 38, 52, 39, 32, 32, 55, 78
274871011, 3956, -7933, -13677, -1677, 2136, -345, -3890, 40, -18, -5, 61, 37, 50, 37, 31, 33, 54, 76
274871796, 3956, -7933, -13677, -1677, 2136, -345, -3890, 40, -18, -5, 61, 37, 50, 37, 31, 33, 54, 76
274885379, 3955, -7933, -13677, -1674, 2132, -353, -3871, -9, 7, 0, 61, 37, 50, 37, 31, 33, 54, 76
274893487, 3955, -7933, -13677, -1674, 2132, -353, -3871, -9, 7, 0, 57, 37, 48, 37, 29, 33, 48, 74
274894314, 3955, -7933, -13677, -1674, 2132, -353, -3871, -9, 7, 0, 57, 37, 48, 37, 29, 33, 48, 74
274909198, 3951, -7941, -13676, -1662, 2119, -333, -3853, 14, 5, 34, 57, 37, 48, 37, 29, 33, 48, 74
274910008, 3951, -7941, -13676, -1662, 2119, -333, -3853, 14, 5, 34, 56, 41, 51, 37, 31, 34, 49, 79
274910822, 3951, -7941, -13676, -1662, 2119, -333, -3853, 14, 5, 34, 56, 41, 51, 37, 31, 34, 49, 79
274922882, 3948, -7946, -13675, -1649, 2149, -301, -3852, 41, -16, 38, 56, 41, 51, 37, 31, 34, 49, 79
274931041, 3948, -7946, -13675, -1649, 2149, -301, -3852, 41, -16, 38, 59, 48, 61, 38, 31, 33, 50, 72
274931861, 3948, -7946, -13675, -1649, 2149, -301, -3852, 41, -16, 38, 59, 48, 61, 38, 31, 33, 50, 72
274945348, 3940, -7944, -13678, -1648, 2171, -318, -3870, -27, -11, -30, 59, 48, 61, 38, 31, 33, 50, 72
274953502, 3940, -7944, -13678, -1648, 2171, -318, -3870, -27, -11, -30, 65, 48, 64, 43, 33, 33, 47, 75
274954310, 3940, -7944, -13678, -1648, 2171, -318, -3870, -27, -11, -30, 65, 48, 64, 43, 33, 33, 47, 75
274969240, 3930, -7935, -13686, -1655, 2141, -332, -3844, -67, 5, -95, 65, 48, 64, 43, 33, 33, 47, 75
274970029, 3930, -7935, -13686, -1655, 2141, -332, -3844, -67, 5, -95, 68, 49, 66, 44, 32, 34, 47, 78
274970888, 3930, -7935, -13686, -1655, 2141, -332, -3844, -67, 5, -95, 68, 49, 66, 44, 32, 34, 47, 78
274982889, 3919, -7930, -13693, -1649, 2109, -340, -3847, -19, -26, -63, 68, 49, 66, 44, 32, 34, 47, 78
274991037, 3919, -7930, -13693, -1649, 2109, -340, -3847, -19, -26, -63, 68, 48, 67, 47, 32, 33, 43, 71
274991797, 3919, -7930, -13693, -1649, 2109, -340, -3847, -19, -26, -63, 68, 48, 67, 47, 32, 33, 43, 71
275005417, 3913, -7931, -13696, -1634, 2120, -330, -3860, 35, -33, 2, 68, 48, 67, 47, 32, 33, 43, 71
275013479, 3913, -7931, -13696, -1634, 2120, -330, -3860, 35, -33, 2, 74, 48, 68, 49, 27, 36, 53, 81
275014305, 3913, -7931, -13696, -1634, 2120, -330, -3860, 35, -33, 2, 74, 48, 68, 49, 27, 36, 53, 81
275029197, 3910, -7935, -13696, -1619, 2138, -304, -3864, 49, -25, 27, 74, 48, 68, 49, 27, 36, 53, 81
275029997, 3910, -7935, -13696, -1619, 2138, -304, -3864, 49, -25, 27, 62, 47, 57, 45, 29, 41, 52, 81
275030848, 3910, -7935, -13696, -1619, 2138, -304, -3864, 49, -25, 27, 62, 47, 57, 45, 29, 41, 52, 81
275042849, 3903, -7936, -13699, -1611, 2135, -304, -3891, 18, -18, -1, 62, 47, 57, 45, 29, 41, 52, 81
275051049, 3903, -7936, -13699, -1611, 2135, -304, -3891, 18, -18, -1, 55, 46, 58, 44, 30, 41, 54, 89
275051822, 3903, -7936, -13699, -1611, 2135, -304, -3891, 18, -18, -1, 55, 46, 58, 44, 30, 41, 54, 89
275065346, 3900, -7932, -13702, -1608, 2138, -342, -3877, -10, 5, -41, 55, 46, 58, 44, 30, 41, 54, 89
275073536, 3900, -7932, -13702, -1608, 2138, -342, -3877, -10, 5, -41, 52, 47, 58, 44, 32, 40, 54, 88
275074329, 3900, -7932, -13702, -1608, 2138, -342, -3877, -10, 5, -41, 52, 47, 58, 44, 32, 40, 54, 88
275089252, 3900, -7929, -13704, -1604, 2140, -352, -3881, -1, 21, -29, 52, 47, 58, 44, 32, 40, 54, 88
275090022, 3900, -7929, -13704, -1604, 2140, -352, -3881, -1, 21, -29, 52, 48, 58, 43, 33, 42, 54, 84
275090888, 3900, -7929, -13704, -1604, 2140, -352, -3881, -1, 21, -29, 52, 48, 58, 43, 33, 42, 54, 84
275102874, 3906, -7930, -13703, -1596, 2142, -340, -3859, 29, 30, 9, 52, 48, 58, 43, 33, 42, 54, 84
275111010, 3906, -7930, -13703, -1596, 2142, -340, -3859, 29, 30, 9, 46, 43, 52, 39, 35, 43, 41, 73
