Timestamp, Orientation x, Orientation y, Orientation z, Orientation w, Acceleration x, Acceleration y, Acceleration z, Rotation x, Rotation y, Rotation z, EMG 0, EMG 1, EMG 2, EMG 3, EMG 4, EMG 5, EMG 6, EMG 7
334718411, 1432, -7847, -14311, 193, 444, -335, -3109, 41, -62, 79, 0, 0, 0, 0, 0, 0, 0, 0
334725926, 1451, -7856, -14303, 214, 443, -414, -3100, 106, 40, 68, 0, 0, 0, 0, 0, 0, 0, 0
334733414, 1501, -7861, -14295, 236, 482, -406, -3120, 216, 177, 46, 0, 0, 0, 0, 0, 0, 0, 0
334763426, 1583, -7851, -14291, 248, 522, -298, -3115, 327, 356, -27, 0, 0, 0, 0, 0, 0, 0, 0
334778431, 1705, -7811, -14300, 189, 592, -183, -3195, 177, 724, -239, 0, 0, 0, 0, 0, 0, 0, 0
334786514, 1705, -7811, -14300, 189, 592, -183, -3195, 177, 724, -239, 65, 41, 51, 95, 60, 68, 155, 233
334787320, 1705, -7811, -14300, 189, 592, -183, -3195, 177, 724, -239, 65, 41, 51, 95, 60, 68, 155, 233
334800910, 1858, -7742, -14320, 24, 570, -234, -3328, -285, 1227, -489, 65, 41, 51, 95, 60, 68, 155, 233
334809043, 1858, -7742, -14320, 24, 570, -234, -3328, -285, 1227, -489, 62, 41, 55, 104, 67, 67, 145, 228
334809864, 1858, -7742, -14320, 24, 570, -234, -3328, -285, 1227, -489, 62, 41, 55, 104, 67, 67, 145, 228
334815977, 2076, -7659, -14334, -176, 564, -436, -3502, -357, 1619, -582, 62, 41, 55, 104, 67, 67, 145, 228
334831549, 2076, -7659, -14334, -176, 564, -436, -3502, -357, 1619, -582, 72, 46, 62, 108, 75, 70, 150, 230
334832369, 2076, -7659, -14334, -176, 564, -436, -3502, -357, 1619, -582, 72, 46, 62, 108, 75, 70, 150, 230
334838521, 2354, -7558, -14340, -411, 752, -535, -3696, -379, 2020, -669, 72, 46, 62, 108, 75, 70, 150, 230
334846523, 2354, -7558, -14340, -411, 752, -535, -3696, -379, 2020, -669, 85, 49, 67, 114, 92, 62, 143, 234
334847327, 2354, -7558, -14340, -411, 752, -535, -3696, -379, 2020, -669, 85, 49, 67, 114, 92, 62, 143, 234
334860901, 2702, -7428, -14335, -685, 918, -593, -3720, -377, 2478, -811, 85, 49, 67, 114, 92, 62, 143, 234
334869023, 2702, -7428, -14335, -685, 918, -593, -3720, -377, 2478, -811, 79, 46, 70, 103, 94, 64, 101, 165
334869822, 2702, -7428, -14335, -685, 918, -593, -3720, -377, 2478, -811, 79, 46, 70, 103, 94, 64, 101, 165
334876023, 3082, -7273, -14319, -1016, 868, -522, -3892, -554, 2851, -956, 79, 46, 70, 103, 94, 64, 101, 165
334891573, 3082, -7273, -14319, -1016, 868, -522, -3892, -554, 2851, -956, 85, 52, 64, 88, 96, 59, 83, 149
334892371, 3082, -7273, -14319, -1016, 868, -522, -3892, -554, 2851, -956, 85, 52, 64, 88, 96, 59, 83, 149
334898530, 3476, -7102, -14284, -1376, 877, -650, -3850, -674, 3042, -1029, 85, 52, 64, 88, 96, 59, 83, 149
334906497, 3476, -7102, -14284, -1376, 877, -650, -3850, -674, 3042, -1029, 86, 51, 65, 102, 94, 59, 87, 151
334907343, 3476, -7102, -14284, -1376, 877, -650, -3850, -674, 3042, -1029, 86, 51, 65, 102, 94, 59, 87, 151
334920889, 3891, -6923, -14230, -1706, 1083, -679, -3899, -484, 3110, -979, 86, 51, 65, 102, 94, 59, 87, 151
334929048, 3891, -6923, -14230, -1706, 1083, -679, -3899, -484, 3110, -979, 78, 49, 77, 120, 98, 55, 75, 134
334929875, 3891, -6923, -14230, -1706, 1083, -679, -3899, -484, 3110, -979, 78, 49, 77, 120, 98, 55, 75, 134
334936026, 4316, -6735, -14156, -2017, 1214, -627, -3893, -371, 3171, -950, 78, 49, 77, 120, 98, 55, 75, 134
334951520, 4316, -6735, -14156, -2017, 1214, -627, -3893, -371, 3171, -950, 81, 47, 75, 113, 102, 56, 88, 143
334952387, 4316, -6735, -14156, -2017, 1214, -627, -3893, -371, 3171, -950, 81, 47, 75, 113, 102, 56, 88, 143
334958534, 4735, -6538, -14068, -2321, 1322, -517, -3848, -340, 3165, -953, 81, 47, 75, 113, 102, 56, 88, 143
334966589, 4735, -6538, -14068, -2321, 1322, -517, -3848, -340, 3165, -953, 97, 51, 73, 133, 112, 58, 114, 229
334967372, 4735, -6538, -14068, -2321, 1322, -517, -3848, -340, 3165, -953, 97, 51, 73, 133, 112, 58, 114, 229
334981509, 5141, -6335, -13967, -2611, 1413, -433, -3870, -293, 3126, -943, 97, 51, 73, 133, 112, 58, 114, 229
334989009, 5141, -6335, -13967, -2611, 1413, -433, -3870, -293, 3126, -943, 104, 50, 96, 143, 122, 67, 125, 243
334989821, 5141, -6335, -13967, -2611, 1413, -433, -3870, -293, 3126, -943, 104, 50, 96, 143, 122, 67, 125, 243
334996002, 5542, -6135, -13850, -2880, 1545, -391, -3951, -231, 3109, -864, 104, 50, 96, 143, 122, 67, 125, 243
335011581, 5542, -6135, -13850, -2880, 1545, -391, -3951, -231, 3109, -864, 114, 57, 104, 185, 144, 74, 128, 249
335012399, 5542, -6135, -13850, -2880, 1545, -391, -3951, -231, 3109, -864, 114, 57, 104, 185, 144, 74, 128, 249
335018538, 5933, -5942, -13707, -3172, 1639, -417, -3859, -411, 3167, -834, 114, 57, 104, 185, 144, 74, 128, 249
335026509, 5933, -5942, -13707, -3172, 1639, -417, -3859, -411, 3167, -834, 150, 64, 117, 199, 150, 85, 175, 324
335027302, 5933, -5942, -13707, -3172, 1639, -417, -3859, -411, 3167, -834, 150, 64, 117, 199, 150, 85, 175, 324
335040882, 6312, -5745, -13561, -3421, 1561, -309, -3734, -216, 3052, -768, 150, 64, 117, 199, 150, 85, 175, 324
335049074, 6312, -5745, -13561, -3421, 1561, -309, -3734, -216, 3052, -768, 184, 86, 120, 209, 155, 107, 236, 392
335049847, 6312, -5745, -13561, -3421, 1561, -309, -3734, -216, 3052, -768, 184, 86, 120, 209, 155, 107, 236, 392
335056011, 6658, -5547, -13428, -3613, 1514, -109, -3687, 13, 2794, -697, 184, 86, 120, 209, 155, 107, 236, 392
335071537, 6658, -5547, -13428, -3613, 1514, -109, -3687, 13, 2794, -697, 187, 87, 119, 217, 150, 112, 244, 377
335072353, 6658, -5547, -13428, -3613, 1514, -109, -3687, 13, 2794, -697, 187, 87, 119, 217, 150, 112, 244, 377
335078529, 6959, -5382, -13289, -3803, 1727, -40, -3945, -153, 2583, -582, 187, 87, 119, 217, 150, 112, 244, 377
335086501, 6959, -5382, -13289, -3803, 1727, -40, -3945, -153, 2583, -582, 183, 84, 105, 213, 161, 113, 243, 371
335087324, 6959, -5382, -13289, -3803, 1727, -40, -3945, -153, 2583, -582, 183, 84, 105, 213, 161, 113, 243, 371
335100877, 7231, -5246, -13133, -4020, 1927, -241, -3836, -439, 2503, -549, 183, 84, 105, 213, 161, 113, 243, 371
335109069, 7231, -5246, -13133, -4020, 1927, -241, -3836, -439, 2503, -549, 178, 83, 113, 178, 156, 115, 241, 365
335109846, 7231, -5246, -13133, -4020, 1927, -241, -3836, -439, 2503, -549, 178, 83, 113, 178, 156, 115, 241, 365
335116011, 7468, -5124, -12987, -4214, 2016, -201, -3663, -415, 2256, -497, 178, 83, 113, 178, 156, 115, 241, 365
335131535, 7468, -5124, -12987, -4214, 2016, -201, -3663, -415, 2256, -497, 150, 77, 92, 149, 153, 109, 208, 299
335132347, 7468, -5124, -12987, -4214, 2016, -201, -3663, -415, 2256, -497, 150, 77, 92, 149, 153, 109, 208, 299
335138543, 7632, -5030, -12877, -4368, 2012, -186, -3483, -392, 1717, -442, 150, 77, 92, 149, 153, 109, 208, 299
335146546, 7632, -5030, -12877, -4368, 2012, -186, -3483, -392, 1717, -442, 96, 50, 86, 138, 140, 87, 127, 189
335147373, 7632, -5030, -12877, -4368, 2012, -186, -3483, -392, 1717, -442, 96, 50, 86, 138, 140, 87, 127, 189
335160874, 7614, -5028, -12895, -4350, 1968, -220, -3396, -223, 1075, -273, 96, 50, 86, 138, 140, 87, 127, 189
335169048, 7614, -5028, -12895, -4350, 1968, -220, -3396, -223, 1075, -273, 66, 42, 88, 113, 133, 71, 80, 129
335169846, 7614, -5028, -12895, -4350, 1968, -220, -3396, -223, 1075, -273, 66, 42, 88, 113, 133, 71, 80, 129
335176010, 7545, -5064, -12955, -4246, 2047, -244, -3428, 33, 503, -42, 66, 42, 88, 113, 133, 71, 80, 129
335191531, 7545, -5064, -12955, -4246, 2047, -244, -3428, 33, 503, -42, 60, 43, 87, 108, 132, 61, 68, 114
335192364, 7545, -5064, -12955, -4246, 2047, -244, -3428, 33, 503, -42, 60, 43, 87, 108, 132, 61, 68, 114
335198480, 7419, -5127, -13047, -4111, 2162, -238, -3552, 55, 64, 32, 60, 43, 87, 108, 132, 61, 68, 114
335206549, 7419, -5127, -13047, -4111, 2162, -238, -3552, 55, 64, 32, 56, 39, 72, 93, 120, 61, 64, 126
335207346, 7419, -5127, -13047, -4111, 2162, -238, -3552, 55, 64, 32, 56, 39, 72, 93, 120, 61, 64, 126
335220876, 7245, -5216, -13150, -3977, 2231, -268, -3625, -82, -256, 42, 56, 39, 72, 93, 120, 61, 64, 126
335229036, 7245, -5216, -13150, -3977, 2231, -268, -3625, -82, -256, 42, 57, 36, 70, 106, 114, 60, 72, 142
335229821, 7245, -5216, -13150, -3977, 2231, -268, -3625, -82, -256, 42, 57, 36, 70, 106, 114, 60, 72, 142
335236001, 7044, -5328, -13252, -3849, 2285, -297, -3617, -214, -478, 91, 57, 36, 70, 106, 114, 60, 72, 142
335251496, 7044, -5328, -13252, -3849, 2285, -297, -3617, -214, -478, 91, 70, 37, 72, 112, 110, 65, 100, 187
335252354, 7044, -5328, -13252, -3849, 2285, -297, -3617, -214, -478, 91, 70, 37, 72, 112, 110, 65, 100, 187
335258473, 6833, -5447, -13356, -3702, 2262, -339, -3672, -157, -619, 149, 70, 37, 72, 112, 110, 65, 100, 187
335266549, 6833, -5447, -13356, -3702, 2262, -339, -3672, -157, -619, 149, 68, 37, 67, 125, 114, 69, 106, 189
335267346, 6833, -5447, -13356, -3702, 2262, -339, -3672, -157, -619, 149, 68, 37, 67, 125, 114, 69, 106, 189
335280925, 6635, -5555, -13462, -3512, 2239, -395, -3850, 81, -615, 209, 68, 37, 67, 125, 114, 69, 106, 189
335289035, 6635, -5555, -13462, -3512, 2239, -395, -3850, 81, -615, 209, 67, 36, 63, 119, 87, 70, 105, 188
335289830, 6635, -5555, -13462, -3512, 2239, -395, -3850, 81, -615, 209, 67, 36, 63, 119, 87, 70, 105, 188
335296016, 6474, -5640, -13558, -3305, 2291, -388, -3966, 297, -459, 229, 67, 36, 63, 119, 87, 70, 105, 188
335311542, 6474, -5640, -13558, -3305, 2291, -388, -3966, 297, -459, 229, 78, 40, 58, 117, 93, 63, 112, 194
335312325, 6474, -5640, -13558, -3305, 2291, -388, -3966, 297, -459, 229, 78, 40, 58, 117, 93, 63, 112, 194
335318474, 6345, -5700, -13635, -3129, 2423, -326, -4027, 294, -263, 170, 78, 40, 58, 117, 93, 63, 112, 194
335326519, 6345, -5700, -13635, -3129, 2423, -326, -4027, 294, -263, 170, 80, 42, 56, 103, 88, 60, 118, 203
335327332, 6345, -5700, -13635, -3129, 2423, -326, -4027, 294, -263, 170, 80, 42, 56, 103, 88, 60, 118, 203
335340909, 6224, -5758, -13689, -3027, 2495, -276, -3954, -23, -141, 76, 80, 42, 56, 103, 88, 60, 118, 203
335348989, 6224, -5758, -13689, -3027, 2495, -276, -3954, -23, -141, 76, 73, 43, 59, 105, 88, 55, 104, 186
335349820, 6224, -5758, -13689, -3027, 2495, -276, -3954, -23, -141, 76, 73, 43, 59, 105, 88, 55, 104, 186
335355978, 6093, -5826, -13732, -2968, 2454, -299, -3860, -282, -157, 37, 73, 43, 59, 105, 88, 55, 104, 186
335371495, 6093, -5826, -13732, -2968, 2454, -299, -3860, -282, -157, 37, 71, 44, 72, 125, 84, 51, 97, 182
335372343, 6093, -5826, -13732, -2968, 2454, -299, -3860, -282, -157, 37, 71, 44, 72, 125, 84, 51, 97, 182
335378448, 5969, -5898, -13771, -2896, 2410, -431, -3870, -256, -179, 54, 71, 44, 72, 125, 84, 51, 97, 182
335385886, 5969, -5898, -13771, -2896, 2410, -431, -3870, -256, -179, 54, 71, 43, 72, 136, 82, 49, 96, 182
335393358, 5969, -5898, -13771, -2896, 2410, -431, -3870, -256, -179, 54, 71, 43, 72, 136, 82, 49, 96, 182
335400974, 5870, -5955, -13810, -2795, 2405, -520, -3895, -63, -137, 44, 71, 43, 72, 136, 82, 49, 96, 182
335409035, 5870, -5955, -13810, -2795, 2405, -520, -3895, -63, -137, 44, 58, 35, 67, 138, 94, 51, 87, 162
335409825, 5870, -5955, -13810, -2795, 2405, -520, -3895, -63, -137, 44, 58, 35, 67, 138, 94, 51, 87, 162
335415993, 5800, -5980, -13854, -2667, 2405, -488, -3914, 222, -55, -1, 58, 35, 67, 138, 94, 51, 87, 162
335431512, 5800, -5980, -13854, -2667, 2405, -488, -3914, 222, -55, -1, 51, 34, 65, 141, 102, 53, 72, 143
335432326, 5800, -5980, -13854, -2667, 2405, -488, -3914, 222, -55, -1, 51, 34, 65, 141, 102, 53, 72, 143
335438501, 5739, -5992, -13896, -2551, 2409, -364, -3938, 275, -5, -10, 51, 34, 65, 141, 102, 53, 72, 143
335445860, 5739, -5992, -13896, -2551, 2409, -364, -3938, 275, -5, -10, 39, 31, 64, 135, 103, 50, 65, 101
335454059, 5739, -5992, -13896, -2551, 2409, -364, -3938, 275, -5, -10, 39, 31, 64, 135, 103, 50, 65, 101
335454962, 5685, -6013, -13924, -2472, 2449, -331, -3898, 109, 66, 18, 39, 31, 64, 135, 103, 50, 65, 101
335469027, 5685, -6013, -13924, -2472, 2449, -331, -3898, 109, 66, 18, 54, 32, 49, 96, 103, 58, 92, 121
335469810, 5685, -6013, -13924, -2472, 2449, -331, -3898, 109, 66, 18, 54, 32, 49, 96, 103, 58, 92, 121
335476000, 5647, -6032, -13942, -2409, 2493, -461, -3919, 18, 164, -31, 54, 32, 49, 96, 103, 58, 92, 121
335491524, 5647, -6032, -13942, -2409, 2493, -461, -3919, 18, 164, -31, 59, 30, 55, 86, 102, 60, 107, 137
335492294, 5647, -6032, -13942, -2409, 2493, -461, -3919, 18, 164, -31, 59, 30, 55, 86, 102, 60, 107, 137
335498446, 5635, -6032, -13957, -2351, 2532, -599, -3992, 36, 326, -155, 59, 30, 55, 86, 102, 60, 107, 137
335513973, 5635, -6032, -13957, -2351, 2532, -599, -3992, 36, 326, -155, 68, 35, 55, 84, 96, 64, 109, 157
335514807, 5635, -6032, -13957, -2351, 2532, -599, -3992, 36, 326, -155, 68, 35, 55, 84, 96, 64, 109, 157
335520950, 5673, -5993, -13969, -2287, 2618, -612, -4006, 252, 562, -271, 68, 35, 55, 84, 96, 64, 109, 157
335537240, 5673, -5993, -13969, -2287, 2618, -612, -4006, 252, 562, -271, 77, 35, 55, 79, 94, 62, 111, 182
335538025, 5673, -5993, -13969, -2287, 2618, -612, -4006, 252, 562, -271, 77, 35, 55, 79, 94, 62, 111, 182
335538949, 5752, -5923, -13975, -2234, 2702, -547, -4078, 384, 830, -362, 77, 35, 55, 79, 94, 62, 111, 182
335551529, 5752, -5923, -13975, -2234, 2702, -547, -4078, 384, 830, -362, 86, 38, 52, 93, 93, 63, 132, 200
335552388, 5752, -5923, -13975, -2234, 2702, -547, -4078, 384, 830, -362, 86, 38, 52, 93, 93, 63, 132, 200
335558500, 5871, -5834, -13964, -2227, 2774, -529, -4044, 283, 1156, -474, 86, 38, 52, 93, 93, 63, 132, 200
335574005, 5871, -5834, -13964, -2227, 2774, -529, -4044, 283, 1156, -474, 123, 57, 61, 111, 101, 91, 208, 246
335574815, 5871, -5834, -13964, -2227, 2774, -529, -4044, 283, 1156, -474, 123, 57, 61, 111, 101, 91, 208, 246
335580949, 6044, -5720, -13935, -2242, 2825, -629, -4061, 286, 1560, -595, 123, 57, 61, 111, 101, 91, 208, 246
335589024, 6044, -5720, -13935, -2242, 2825, -629, -4061, 286, 1560, -595, 129, 60, 64, 103, 107, 107, 227, 257
335589854, 6044, -5720, -13935, -2242, 2825, -629, -4061, 286, 1560, -595, 129, 60, 64, 103, 107, 107, 227, 257
335596025, 6357, -5522, -13859, -2337, 2865, -714, -4148, 512, 1987, -753, 129, 60, 64, 103, 107, 107, 227, 257
335611513, 6357, -5522, -13859, -2337, 2865, -714, -4148, 512, 1987, -753, 135, 66, 66, 104, 90, 108, 244, 288
335612349, 6357, -5522, -13859, -2337, 2865, -714, -4148, 512, 1987, -753, 135, 66, 66, 104, 90, 108, 244, 288
335618497, 6748, -5262, -13753, -2467, 3118, -745, -4231, 602, 2533, -998, 135, 66, 66, 104, 90, 108, 244, 288
335634040, 6748, -5262, -13753, -2467, 3118, -745, -4231, 602, 2533, -998, 193, 89, 75, 106, 99, 138, 282, 424
335634843, 6748, -5262, -13753, -2467, 3118, -745, -4231, 602, 2533, -998, 193, 89, 75, 106, 99, 138, 282, 424
335640974, 7208, -4951, -13599, -2655, 3302, -674, -4098, 531, 3115, -1238, 193, 89, 75, 106, 99, 138, 282, 424
335649045, 7208, -4951, -13599, -2655, 3302, -674, -4098, 531, 3115, -1238, 208, 94, 76, 87, 96, 144, 291, 459
335649826, 7208, -4951, -13599, -2655, 3302, -674, -4098, 531, 3115, -1238, 208, 94, 76, 87, 96, 144, 291, 459
335656001, 7679, -4616, -13412, -2880, 3344, -587, -3881, 407, 3334, -1364, 208, 94, 76, 87, 96, 144, 291, 459
335671489, 7679, -4616, -13412, -2880, 3344, -587, -3881, 407, 3334, -1364, 200, 93, 80, 93, 88, 133, 265, 462
335672334, 7679, -4616, -13412, -2880, 3344, -587, -3881, 407, 3334, -1364, 200, 93, 80, 93, 88, 133, 265, 462
335678499, 8184, -4244, -13181, -3118, 3620, -733, -3796, 453, 3660, -1470, 200, 93, 80, 93, 88, 133, 265, 462
335694025, 8184, -4244, -13181, -3118, 3620, -733, -3796, 453, 3660, -1470, 223, 107, 89, 117, 176, 181, 287, 513
335694795, 8184, -4244, -13181, -3118, 3620, -733, -3796, 453, 3660, -1470, 223, 107, 89, 117, 176, 181, 287, 513
335700975, 8718, -3819, -12920, -3306, 3650, -791, -3623, 838, 3865, -1492, 223, 107, 89, 117, 176, 181, 287, 513
335717242, 8718, -3819, -12920, -3306, 3650, -791, -3623, 838, 3865, -1492, 241, 114, 94, 126, 250, 232, 284, 525
335718048, 8718, -3819, -12920, -3306, 3650, -791, -3623, 838, 3865, -1492, 241, 114, 94, 126, 250, 232, 284, 525
335718948, 9279, -3328, -12631, -3423, 3724, -736, -3662, 1352, 4047, -1512, 241, 114, 94, 126, 250, 232, 284, 525
335731479, 9279, -3328, -12631, -3423, 3724, -736, -3662, 1352, 4047, -1512, 211, 116, 102, 130, 268, 236, 276, 447
335732276, 9279, -3328, -12631, -3423, 3724, -736, -3662, 1352, 4047, -1512, 211, 116, 102, 130, 268, 236, 276, 447
335738528, 9847, -2795, -12292, -3545, 3572, -445, -3622, 1416, 4291, -1636, 211, 116, 102, 130, 268, 236, 276, 447
335754047, 9847, -2795, -12292, -3545, 3572, -445, -3622, 1416, 4291, -1636, 264, 138, 111, 139, 276, 259, 353, 655
335754839, 9847, -2795, -12292, -3545, 3572, -445, -3622, 1416, 4291, -1636, 264, 138, 111, 139, 276, 259, 353, 655
335761028, 10363, -2320, -11919, -3688, 3517, -130, -3269, 1037, 4133, -1500, 264, 138, 111, 139, 276, 259, 353, 655
335777180, 10363, -2320, -11919, -3688, 3517, -130, -3269, 1037, 4133, -1500, 297, 159, 113, 144, 276, 278, 504, 755
335777977, 10363, -2320, -11919, -3688, 3517, -130, -3269, 1037, 4133, -1500, 297, 159, 113, 144, 276, 278, 504, 755
335778927, 10839, -1832, -11535, -3813, 3436, -219, -3332, 1112, 4015, -1523, 297, 159, 113, 144, 276, 278, 504, 755
335791539, 10839, -1832, -11535, -3813, 3436, -219, -3332, 1112, 4015, -1523, 316, 161, 111, 138, 237, 282, 669, 920
335792368, 10839, -1832, -11535, -3813, 3436, -219, -3332, 1112, 4015, -1523, 316, 161, 111, 138, 237, 282, 669, 920
335798481, 11357, -1315, -11060, -3925, 3372, -144, -3193, 1177, 4553, -1485, 316, 161, 111, 138, 237, 282, 669, 920
335813996, 11357, -1315, -11060, -3925, 3372, -144, -3193, 1177, 4553, -1485, 366, 178, 113, 142, 175, 300, 717, 1006
335814826, 11357, -1315, -11060, -3925, 3372, -144, -3193, 1177, 4553, -1485, 366, 178, 113, 142, 175, 300, 717, 1006
335820949, 11899, -837, -10497, -3995, 3423, 309, -2829, 1079, 4908, -1098, 366, 178, 113, 142, 175, 300, 717, 1006
335837242, 11899, -837, -10497, -3995, 3423, 309, -2829, 1079, 4908, -1098, 461, 238, 114, 155, 241, 375, 862, 1168
335838052, 11899, -837, -10497, -3995, 3423, 309, -2829, 1079, 4908, -1098, 461, 238, 114, 155, 241, 375, 862, 1168
335838948, 12329, -429, -10003, -4025, 3169, -43, -2257, 923, 4513, -966, 461, 238, 114, 155, 241, 375, 862, 1168
335851465, 12329, -429, -10003, -4025, 3169, -43, -2257, 923, 4513, -966, 432, 249, 107, 230, 329, 399, 879, 1117
335852298, 12329, -429, -10003, -4025, 3169, -43, -2257, 923, 4513, -966, 432, 249, 107, 230, 329, 399, 879, 1117
335858475, 12574, -13, -9718, -3987, 2723, -211, -1797, 1465, 2938, -1013, 432, 249, 107, 230, 329, 399, 879, 1117
335873971, 12574, -13, -9718, -3987, 2723, -211, -1797, 1465, 2938, -1013, 538, 286, 105, 234, 356, 453, 950, 1219
335874801, 12574, -13, -9718, -3987, 2723, -211, -1797, 1465, 2938, -1013, 538, 286, 105, 234, 356, 453, 950, 1219
335881041, 12491, 248, -9850, -3915, 2397, 358, -1761, 1193, 756, -878, 538, 286, 105, 234, 356, 453, 950, 1219
335897172, 12491, 248, -9850, -3915, 2397, 358, -1761, 1193, 756, -878, 548, 303, 102, 243, 359, 484, 954, 1260
335898023, 12491, 248, -9850, -3915, 2397, 358, -1761, 1193, 756, -878, 548, 303, 102, 243, 359, 484, 954, 1260
335898924, 12253, 322, -10165, -3855, 2932, 560, -1860, 565, -719, -516, 548, 303, 102, 243, 359, 484, 954, 1260
335910865, 12253, 322, -10165, -3855, 2932, 560, -1860, 565, -719, -516, 525, 296, 98, 268, 356, 472, 952, 1320
335919007, 12253, 322, -10165, -3855, 2932, 560, -1860, 565, -719, -516, 525, 296, 98, 268, 356, 472, 952, 1320
335919948, 12144, 331, -10297, -3849, 3547, 542, -2121, 244, -921, -137, 525, 296, 98, 268, 356, 472, 952, 1320
335934021, 12144, 331, -10297, -3849, 3547, 542, -2121, 244, -921, -137, 447, 253, 84, 260, 302, 418, 836, 1179
335934833, 12144, 331, -10297, -3849, 3547, 542, -2121, 244, -921, -137, 447, 253, 84, 260, 302, 418, 836, 1179
335941006, 12112, 288, -10337, -3846, 3809, 424, -2400, -110, -333, 125, 447, 253, 84, 260, 302, 418, 836, 1179
335957223, 12112, 288, -10337, -3846, 3809, 424, -2400, -110, -333, 125, 443, 233, 82, 190, 197, 384, 785, 1140
335958021, 12112, 288, -10337, -3846, 3809, 424, -2400, -110, -333, 125, 443, 233, 82, 190, 197, 384, 785, 1140
335958968, 12142, 230, -10311, -3828, 3871, 173, -2308, -214, 140, 313, 443, 233, 82, 190, 197, 384, 785, 1140
335979672, 12142, 230, -10311, -3828, 3871, 173, -2308, -214, 140, 313, 267, 166, 75, 167, 142, 303, 588, 965
335980540, 12142, 230, -10311, -3828, 3871, 173, -2308, -214, 140, 313, 267, 166, 75, 167, 142, 303, 588, 965
335981430, 12174, 166, -10282, -3805, 3850, 136, -2097, -225, 153, 362, 267, 166, 75, 167, 142, 303, 588, 965
335994014, 12174, 166, -10282, -3805, 3850, 136, -2097, -225, 153, 362, 207, 124, 68, 148, 124, 207, 378, 827
335994821, 12174, 166, -10282, -3805, 3850, 136, -2097, -225, 153, 362, 207, 124, 68, 148, 124, 207, 378, 827
336000977, 12173, 76, -10287, -3796, 3831, 61, -1917, -337, -143, 353, 207, 124, 68, 148, 124, 207, 378, 827
336017188, 12173, 76, -10287, -3796, 3831, 61, -1917, -337, -143, 353, 166, 114, 63, 74, 108, 158, 355, 714
336017971, 12173, 76, -10287, -3796, 3831, 61, -1917, -337, -143, 353, 166, 114, 63, 74, 108, 158, 355, 714
336018964, 12126, -6, -10339, -3810, 3996, -91, -1868, -321, -488, 168, 166, 114, 63, 74, 108, 158, 355, 714
336039697, 12126, -6, -10339, -3810, 3996, -91, -1868, -321, -488, 168, 155, 102, 59, 73, 90, 118, 309, 715
336040518, 12126, -6, -10339, -3810, 3996, -91, -1868, -321, -488, 168, 155, 102, 59, 73, 90, 118, 309, 715
336041437, 12051, -60, -10415, -3839, 4182, -71, -1934, -227, -653, -26, 155, 102, 59, 73, 90, 118, 309, 715
336053946, 12051, -60, -10415, -3839, 4182, -71, -1934, -227, -653, -26, 154, 93, 53, 72, 89, 105, 315, 741
336054785, 12051, -60, -10415, -3839, 4182, -71, -1934, -227, -653, -26, 154, 93, 53, 72, 89, 105, 315, 741
336060973, 11982, -99, -10478, -3881, 4287, -66, -2001, -230, -553, -126, 154, 93, 53, 72, 89, 105, 315, 741
336077198, 11982, -99, -10478, -3881, 4287, -66, -2001, -230, -553, -126, 168, 108, 45, 72, 87, 117, 339, 740
336077971, 11982, -99, -10478, -3881, 4287, -66, -2001, -230, -553, -126, 168, 108, 45, 72, 87, 117, 339, 740
336078950, 11930, -121, -10519, -3930, 4243, -130, -2026, -217, -385, -195, 168, 108, 45, 72, 87, 117, 339, 740
336099700, 11930, -121, -10519, -3930, 4243, -130, -2026, -217, -385, -195, 166, 104, 41, 63, 92, 114, 314, 633
336100483, 11930, -121, -10519, -3930, 4243, -130, -2026, -217, -385, -195, 166, 104, 41, 63, 92, 114, 314, 633
336101431, 11900, -121, -10543, -3958, 4152, -204, -2089, -65, -201, -154, 166, 104, 41, 63, 92, 114, 314, 633
336113973, 11900, -121, -10543, -3958, 4152, -204, -2089, -65, -201, -154, 156, 102, 37, 60, 100, 116, 245, 570
336114824, 11900, -121, -10543, -3958, 4152, -204, -2089, -65, -201, -154, 156, 102, 37, 60, 100, 116, 245, 570
336120972, 11890, -116, -10553, -3959, 4106, -145, -2093, 25, -73, -38, 156, 102, 37, 60, 100, 116, 245, 570
336137200, 11890, -116, -10553, -3959, 4106, -145, -2093, 25, -73, -38, 155, 98, 37, 51, 128, 131, 246, 581
336137996, 11890, -116, -10553, -3959, 4106, -145, -2093, 25, -73, -38, 155, 98, 37, 51, 128, 131, 246, 581
336138964, 11892, -126, -10555, -3947, 4092, -94, -2075, 7, -14, 86, 155, 98, 37, 51, 128, 131, 246, 581
336159648, 11892, -126, -10555, -3947, 4092, -94, -2075, 7, -14, 86, 157, 100, 41, 50, 129, 131, 231, 521
336160484, 11892, -126, -10555, -3947, 4092, -94, -2075, 7, -14, 86, 157, 100, 41, 50, 129, 131, 231, 521
336161411, 11895, -152, -10557, -3933, 4100, -57, -2005, -53, -34, 154, 157, 100, 41, 50, 129, 131, 231, 521
336174719, 11895, -152, -10557, -3933, 4100, -57, -2005, -53, -34, 154, 148, 85, 47, 63, 128, 116, 189, 501
336175524, 11895, -152, -10557, -3933, 4100, -57, -2005, -53, -34, 154, 148, 85, 47, 63, 128, 116, 189, 501
336176475, 11895, -181, -10560, -3924, 4125, -70, -2031, -83, -50, 141, 148, 85, 47, 63, 128, 116, 189, 501
336197657, 11895, -181, -10560, -3924, 4125, -70, -2031, -83, -50, 141, 142, 85, 59, 62, 120, 116, 201, 470
336198471, 11895, -181, -10560, -3924, 4125, -70, -2031, -83, -50, 141, 142, 85, 59, 62, 120, 116, 201, 470
336199402, 11889, -194, -10565, -3928, 4070, -128, -2019, -60, -59, 22, 142, 85, 59, 62, 120, 116, 201, 470
336219725, 11889, -194, -10565, -3928, 4070, -128, -2019, -60, -59, 22, 141, 83, 60, 62, 115, 104, 167, 359
336220500, 11889, -194, -10565, -3928, 4070, -128, -2019, -60, -59, 22, 141, 83, 60, 62, 115, 104, 167, 359
336221476, 11877, -185, -10582, -3921, 4010, -102, -2096, 82, -103, -25, 141, 83, 60, 62, 115, 104, 167, 359
336242171, 11877, -185, -10582, -3921, 4010, -102, -2096, 82, -103, -25, 135, 80, 62, 62, 84, 90, 178, 407
336242968, 11877, -185, -10582, -3921, 4010, -102, -2096, 82, -103, -25, 135, 80, 62, 62, 84, 90, 178, 407
336243922, 11871, -182, -10593, -3909, 3944, 63, -2144, 71, -65, 29, 135, 80, 62, 62, 84, 90, 178, 407
