Timestamp, Orientation x, Orientation y, Orientation z, Orientation w, Acceleration x, Acceleration y, Acceleration z, Rotation x, Rotation y, Rotation z, EMG 0, EMG 1, EMG 2, EMG 3, EMG 4, EMG 5, EMG 6, EMG 7
259728408, 1925, -9970, -12788, -1354, 476, -292, -3502, -727, 1869, -308, 0, 0, 0, 0, 0, 0, 0, 0
259735979, 2103, -9879, -12786, -1721, 713, -456, -3706, -1003, 2144, -572, 0, 0, 0, 0, 0, 0, 0, 0
259750930, 2245, -9739, -12802, -2163, 789, -388, -3522, -1407, 2258, -924, 0, 0, 0, 0, 0, 0, 0, 0
259765878, 2378, -9594, -12813, -2566, 743, -482, -3340, -1295, 2113, -918, 0, 0, 0, 0, 0, 0, 0, 0
259788434, 2529, -9471, -12809, -2880, 839, -508, -3372, -893, 1905, -688, 0, 0, 0, 0, 0, 0, 0, 0
259796518, 2529, -9471, -12809, -2880, 839, -508, -3372, -893, 1905, -688, 72, 45, 31, 30, 34, 53, 113, 152
259797332, 2529, -9471, -12809, -2880, 839, -508, -3372, -893, 1905, -688, 72, 45, 31, 30, 34, 53, 113, 152
259810897, 2722, -9343, -12812, -3098, 963, -595, -3381, -335, 1779, -619, 72, 45, 31, 30, 34, 53, 113, 152
259818971, 2722, -9343, -12812, -3098, 963, -595, -3381, -335, 1779, -619, 72, 41, 29, 27, 37, 52, 114, 169
259819824, 2722, -9343, -12812, -3098, 963, -595, -3381, -335, 1779, -619, 72, 41, 29, 27, 37, 52, 114, 169
259825949, 2955, -9190, -12837, -3236, 967, -569, -3516, 192, 1725, -679, 72, 41, 29, 27, 37, 52, 114, 169
259841499, 2955, -9190, -12837, -3236, 967, -569, -3516, 192, 1725, -679, 71, 41, 29, 27, 37, 50, 108, 162
259842278, 2955, -9190, -12837, -3236, 967, -569, -3516, 192, 1725, -679, 71, 41, 29, 27, 37, 50, 108, 162
259848471, 3193, -9033, -12863, -3350, 946, -474, -3577, 327, 1700, -670, 71, 41, 29, 27, 37, 50, 108, 162
259856476, 3193, -9033, -12863, -3350, 946, -474, -3577, 327, 1700, -670, 72, 43, 33, 30, 37, 53, 103, 154
259857304, 3193, -9033, -12863, -3350, 946, -474, -3577, 327, 1700, -670, 72, 43, 33, 30, 37, 53, 103, 154
259870907, 3425, -8890, -12875, -3454, 969, -368, -3621, 336, 1654, -555, 72, 43, 33, 30, 37, 53, 103, 154
259878991, 3425, -8890, -12875, -3454, 969, -368, -3621, 336, 1654, -555, 73, 45, 30, 36, 43, 57, 105, 171
259879834, 3425, -8890, -12875, -3454, 969, -368, -3621, 336, 1654, -555, 73, 45, 30, 36, 43, 57, 105, 171
259885976, 3655, -8764, -12871, -3553, 1022, -331, -3644, 317, 1643, -422, 73, 45, 30, 36, 43, 57, 105, 171
259901480, 3655, -8764, -12871, -3553, 1022, -331, -3644, 317, 1643, -422, 64, 37, 39, 49, 46, 58, 99, 172
259902285, 3655, -8764, -12871, -3553, 1022, -331, -3644, 317, 1643, -422, 64, 37, 39, 49, 46, 58, 99, 172
259908437, 3874, -8638, -12861, -3666, 1089, -289, -3724, 223, 1657, -438, 64, 37, 39, 49, 46, 58, 99, 172
259916498, 3874, -8638, -12861, -3666, 1089, -289, -3724, 223, 1657, -438, 73, 41, 54, 101, 53, 67, 97, 164
259917302, 3874, -8638, -12861, -3666, 1089, -289, -3724, 223, 1657, -438, 73, 41, 54, 101, 53, 67, 97, 164
259930901, 4070, -8508, -12843, -3816, 1145, -338, -3760, -19, 1691, -513, 73, 41, 54, 101, 53, 67, 97, 164
259938965, 4070, -8508, -12843, -3816, 1145, -338, -3760, -19, 1691, -513, 71, 42, 60, 122, 69, 69, 97, 165
259939759, 4070, -8508, -12843, -3816, 1145, -338, -3760, -19, 1691, -513, 71, 42, 60, 122, 69, 69, 97, 165
259945949, 4258, -8379, -12816, -3983, 1198, -356, -3731, -137, 1724, -525, 71, 42, 60, 122, 69, 69, 97, 165
259961490, 4258, -8379, -12816, -3983, 1198, -356, -3731, -137, 1724, -525, 73, 43, 60, 143, 73, 68, 109, 169
259962303, 4258, -8379, -12816, -3983, 1198, -356, -3731, -137, 1724, -525, 73, 43, 60, 143, 73, 68, 109, 169
259968477, 4456, -8253, -12783, -4134, 1230, -437, -3727, -59, 1743, -469, 73, 43, 60, 143, 73, 68, 109, 169
259976489, 4456, -8253, -12783, -4134, 1230, -437, -3727, -59, 1743, -469, 81, 49, 79, 175, 90, 62, 98, 128
259977273, 4456, -8253, -12783, -4134, 1230, -437, -3727, -59, 1743, -469, 81, 49, 79, 175, 90, 62, 98, 128
259990876, 4660, -8120, -12753, -4262, 1340, -401, -3764, 74, 1713, -460, 81, 49, 79, 175, 90, 62, 98, 128
259998949, 4660, -8120, -12753, -4262, 1340, -401, -3764, 74, 1713, -460, 120, 63, 88, 223, 100, 63, 97, 138
259999745, 4660, -8120, -12753, -4262, 1340, -401, -3764, 74, 1713, -460, 120, 63, 88, 223, 100, 63, 97, 138
260005942, 4856, -7980, -12728, -4382, 1386, -345, -3749, 108, 1671, -503, 120, 63, 88, 223, 100, 63, 97, 138
260021520, 4856, -7980, -12728, -4382, 1386, -345, -3749, 108, 1671, -503, 117, 61, 87, 217, 113, 71, 100, 137
260022360, 4856, -7980, -12728, -4382, 1386, -345, -3749, 108, 1671, -503, 117, 61, 87, 217, 113, 71, 100, 137
260028496, 4940, -7866, -12765, -4385, 1358, -264, -3709, 98, 1482, -671, 117, 61, 87, 217, 113, 71, 100, 137
260036503, 4940, -7866, -12765, -4385, 1358, -264, -3709, 98, 1482, -671, 121, 64, 87, 220, 108, 84, 105, 151
260037288, 4940, -7866, -12765, -4385, 1358, -264, -3709, 98, 1482, -671, 121, 64, 87, 220, 108, 84, 105, 151
260050864, 4997, -7777, -12790, -4406, 1474, -270, -3749, -119, 1380, -623, 121, 64, 87, 220, 108, 84, 105, 151
260058996, 4997, -7777, -12790, -4406, 1474, -270, -3749, -119, 1380, -623, 136, 66, 99, 226, 123, 99, 118, 184
260059799, 4997, -7777, -12790, -4406, 1474, -270, -3749, -119, 1380, -623, 136, 66, 99, 226, 123, 99, 118, 184
260065986, 5039, -7725, -12792, -4446, 1501, -256, -3764, -347, 1358, -452, 136, 66, 99, 226, 123, 99, 118, 184
260081519, 5039, -7725, -12792, -4446, 1501, -256, -3764, -347, 1358, -452, 151, 64, 92, 229, 115, 105, 127, 207
260082289, 5039, -7725, -12792, -4446, 1501, -256, -3764, -347, 1358, -452, 151, 64, 92, 229, 115, 105, 127, 207
260088488, 5074, -7692, -12794, -4455, 1529, -340, -3707, -291, 1195, -365, 151, 64, 92, 229, 115, 105, 127, 207
260096635, 5074, -7692, -12794, -4455, 1529, -340, -3707, -291, 1195, -365, 129, 53, 85, 187, 117, 108, 132, 208
260097376, 5074, -7692, -12794, -4455, 1529, -340, -3707, -291, 1195, -365, 129, 53, 85, 187, 117, 108, 132, 208
260110824, 5112, -7650, -12820, -4412, 1610, -459, -3705, -39, 1013, -422, 129, 53, 85, 187, 117, 108, 132, 208
260118999, 5112, -7650, -12820, -4412, 1610, -459, -3705, -39, 1013, -422, 126, 52, 81, 186, 107, 110, 135, 214
260119854, 5112, -7650, -12820, -4412, 1610, -459, -3705, -39, 1013, -422, 126, 52, 81, 186, 107, 110, 135, 214
260125979, 5156, -7607, -12853, -4336, 1650, -363, -3787, 174, 964, -332, 126, 52, 81, 186, 107, 110, 135, 214
260141553, 5156, -7607, -12853, -4336, 1650, -363, -3787, 174, 964, -332, 133, 49, 77, 179, 117, 99, 135, 212
260142293, 5156, -7607, -12853, -4336, 1650, -363, -3787, 174, 964, -332, 133, 49, 77, 179, 117, 99, 135, 212
260148462, 5197, -7587, -12876, -4253, 1669, -238, -3748, 217, 884, -145, 133, 49, 77, 179, 117, 99, 135, 212
260156520, 5197, -7587, -12876, -4253, 1669, -238, -3748, 217, 884, -145, 149, 73, 66, 163, 104, 96, 135, 218
260157326, 5197, -7587, -12876, -4253, 1669, -238, -3748, 217, 884, -145, 149, 73, 66, 163, 104, 96, 135, 218
260170865, 5197, -7593, -12892, -4194, 1734, -204, -3837, -44, 748, -94, 149, 73, 66, 163, 104, 96, 135, 218
260178988, 5197, -7593, -12892, -4194, 1734, -204, -3837, -44, 748, -94, 157, 70, 68, 153, 100, 101, 132, 204
260179812, 5197, -7593, -12892, -4194, 1734, -204, -3837, -44, 748, -94, 157, 70, 68, 153, 100, 101, 132, 204
260185949, 5172, -7612, -12894, -4183, 1820, -302, -3845, -396, 730, -180, 157, 70, 68, 153, 100, 101, 132, 204
260201483, 5172, -7612, -12894, -4183, 1820, -302, -3845, -396, 730, -180, 163, 73, 64, 147, 132, 150, 173, 212
260202307, 5172, -7612, -12894, -4183, 1820, -302, -3845, -396, 730, -180, 163, 73, 64, 147, 132, 150, 173, 212
260208453, 5153, -7639, -12893, -4161, 1807, -458, -3759, -403, 681, -163, 163, 73, 64, 147, 132, 150, 173, 212
260216501, 5153, -7639, -12893, -4161, 1807, -458, -3759, -403, 681, -163, 166, 76, 67, 155, 133, 166, 174, 210
260217291, 5153, -7639, -12893, -4161, 1807, -458, -3759, -403, 681, -163, 166, 76, 67, 155, 133, 166, 174, 210
260230867, 5154, -7679, -12898, -4072, 1804, -392, -3753, -22, 554, 65, 166, 76, 67, 155, 133, 166, 174, 210
260238993, 5154, -7679, -12898, -4072, 1804, -392, -3753, -22, 554, 65, 176, 85, 70, 159, 131, 184, 177, 206
260239808, 5154, -7679, -12898, -4072, 1804, -392, -3753, -22, 554, 65, 176, 85, 70, 159, 131, 184, 177, 206
260245948, 5175, -7736, -12898, -3933, 1936, -338, -3808, 261, 452, 302, 176, 85, 70, 159, 131, 184, 177, 206
260261485, 5175, -7736, -12898, -3933, 1936, -338, -3808, 261, 452, 302, 178, 76, 67, 156, 133, 183, 162, 164
260262280, 5175, -7736, -12898, -3933, 1936, -338, -3808, 261, 452, 302, 178, 76, 67, 156, 133, 183, 162, 164
260268453, 5168, -7776, -12912, -3816, 1981, -236, -3801, 205, 351, 172, 178, 76, 67, 156, 133, 183, 162, 164
260276486, 5168, -7776, -12912, -3816, 1981, -236, -3801, 205, 351, 172, 189, 80, 61, 144, 136, 183, 166, 206
260277304, 5168, -7776, -12912, -3816, 1981, -236, -3801, 205, 351, 172, 189, 80, 61, 144, 136, 183, 166, 206
260290901, 5097, -7826, -12924, -3767, 2020, -150, -3785, -244, 186, 45, 189, 80, 61, 144, 136, 183, 166, 206
260298971, 5097, -7826, -12924, -3767, 2020, -150, -3785, -244, 186, 45, 186, 79, 65, 154, 99, 151, 122, 239
260299820, 5097, -7826, -12924, -3767, 2020, -150, -3785, -244, 186, 45, 186, 79, 65, 154, 99, 151, 122, 239
260305971, 4977, -7913, -12922, -3752, 2030, -279, -3750, -666, -14, 67, 186, 79, 65, 154, 99, 151, 122, 239
260321458, 4977, -7913, -12922, -3752, 2030, -279, -3750, -666, -14, 67, 202, 80, 64, 172, 98, 139, 120, 241
260322276, 4977, -7913, -12922, -3752, 2030, -279, -3750, -666, -14, 67, 202, 80, 64, 172, 98, 139, 120, 241
260328463, 4874, -7999, -12927, -3690, 2065, -526, -3726, -492, -135, 58, 202, 80, 64, 172, 98, 139, 120, 241
260336471, 4874, -7999, -12927, -3690, 2065, -526, -3726, -492, -135, 58, 199, 77, 60, 165, 93, 124, 120, 243
260337290, 4874, -7999, -12927, -3690, 2065, -526, -3726, -492, -135, 58, 199, 77, 60, 165, 93, 124, 120, 243
260350867, 4809, -8048, -12962, -3541, 2070, -564, -3814, 96, -216, 8, 199, 77, 60, 165, 93, 124, 120, 243
260358984, 4809, -8048, -12962, -3541, 2070, -564, -3814, 96, -216, 8, 184, 65, 57, 161, 109, 144, 122, 245
260359798, 4809, -8048, -12962, -3541, 2070, -564, -3814, 96, -216, 8, 184, 65, 57, 161, 109, 144, 122, 245
260365923, 4746, -8076, -13006, -3400, 2113, -336, -3907, 217, -199, -20, 184, 65, 57, 161, 109, 144, 122, 245
260381473, 4746, -8076, -13006, -3400, 2113, -336, -3907, 217, -199, -20, 150, 60, 50, 147, 104, 138, 109, 209
260382312, 4746, -8076, -13006, -3400, 2113, -336, -3907, 217, -199, -20, 150, 60, 50, 147, 104, 138, 109, 209
260388421, 4654, -8119, -13034, -3316, 2120, -328, -3868, -144, -217, -31, 150, 60, 50, 147, 104, 138, 109, 209
260395811, 4654, -8119, -13034, -3316, 2120, -328, -3868, -144, -217, -31, 153, 67, 46, 150, 104, 137, 113, 140
260403303, 4654, -8119, -13034, -3316, 2120, -328, -3868, -144, -217, -31, 153, 67, 46, 150, 104, 137, 113, 140
260410950, 4560, -8172, -13051, -3245, 2094, -483, -3893, -304, -198, -26, 153, 67, 46, 150, 104, 137, 113, 140
260418982, 4560, -8172, -13051, -3245, 2094, -483, -3893, -304, -198, -26, 129, 67, 38, 116, 101, 125, 111, 146
260419810, 4560, -8172, -13051, -3245, 2094, -483, -3893, -304, -198, -26, 129, 67, 38, 116, 101, 125, 111, 146
260425970, 4499, -8219, -13066, -3154, 2034, -643, -3935, -173, -92, -27, 129, 67, 38, 116, 101, 125, 111, 146
260441471, 4499, -8219, -13066, -3154, 2034, -643, -3935, -173, -92, -27, 113, 64, 45, 105, 109, 124, 99, 121
260442307, 4499, -8219, -13066, -3154, 2034, -643, -3935, -173, -92, -27, 113, 64, 45, 105, 109, 124, 99, 121
260448455, 4472, -8244, -13083, -3050, 2053, -567, -3965, 65, 29, -31, 113, 64, 45, 105, 109, 124, 99, 121
260455849, 4472, -8244, -13083, -3050, 2053, -567, -3965, 65, 29, -31, 111, 67, 44, 108, 94, 98, 93, 119
260463350, 4472, -8244, -13083, -3050, 2053, -567, -3965, 65, 29, -31, 111, 67, 44, 108, 94, 98, 93, 119
260470988, 4467, -8263, -13095, -2958, 2079, -481, -3930, 138, 129, 3, 111, 67, 44, 108, 94, 98, 93, 119
260478995, 4467, -8263, -13095, -2958, 2079, -481, -3930, 138, 129, 3, 112, 69, 47, 112, 96, 104, 94, 117
260479782, 4467, -8263, -13095, -2958, 2079, -481, -3930, 138, 129, 3, 112, 69, 47, 112, 96, 104, 94, 117
260485949, 4458, -8287, -13098, -2887, 2050, -374, -3818, 77, 137, 62, 112, 69, 47, 112, 96, 104, 94, 117
260501511, 4458, -8287, -13098, -2887, 2050, -374, -3818, 77, 137, 62, 105, 63, 47, 97, 94, 93, 83, 127
260502294, 4458, -8287, -13098, -2887, 2050, -374, -3818, 77, 137, 62, 105, 63, 47, 97, 94, 93, 83, 127
260508468, 4444, -8318, -13099, -2818, 2083, -361, -3847, 58, 98, 101, 105, 63, 47, 97, 94, 93, 83, 127
260523980, 4444, -8318, -13099, -2818, 2083, -361, -3847, 58, 98, 101, 116, 60, 49, 92, 94, 91, 80, 122
260524766, 4444, -8318, -13099, -2818, 2083, -361, -3847, 58, 98, 101, 116, 60, 49, 92, 94, 91, 80, 122
260531007, 4423, -8337, -13110, -2743, 1995, -384, -3822, 102, 61, 27, 116, 60, 49, 92, 94, 91, 80, 122
260539004, 4423, -8337, -13110, -2743, 1995, -384, -3822, 102, 61, 27, 111, 54, 44, 90, 75, 80, 83, 136
260539809, 4423, -8337, -13110, -2743, 1995, -384, -3822, 102, 61, 27, 111, 54, 44, 90, 75, 80, 83, 136
260545939, 4398, -8344, -13131, -2658, 1982, -336, -3868, 194, 5, -21, 111, 54, 44, 90, 75, 80, 83, 136
260561477, 4398, -8344, -13131, -2658, 1982, -336, -3868, 194, 5, -21, 99, 50, 44, 85, 67, 76, 83, 134
260562300, 4398, -8344, -13131, -2658, 1982, -336, -3868, 194, 5, -21, 99, 50, 44, 85, 67, 76, 83, 134
260568427, 4371, -8359, -13145, -2587, 1989, -288, -3849, 141, 16, 31, 99, 50, 44, 85, 67, 76, 83, 134
260583945, 4371, -8359, -13145, -2587, 1989, -288, -3849, 141, 16, 31, 108, 47, 45, 87, 60, 72, 88, 128
260584800, 4371, -8359, -13145, -2587, 1989, -288, -3849, 141, 16, 31, 108, 47, 45, 87, 60, 72, 88, 128
260590945, 4337, -8372, -13159, -2529, 2007, -233, -3798, 96, -18, 26, 108, 47, 45, 87, 60, 72, 88, 128
260598987, 4337, -8372, -13159, -2529, 2007, -233, -3798, 96, -18, 26, 114, 47, 48, 87, 62, 75, 85, 114
260599784, 4337, -8372, -13159, -2529, 2007, -233, -3798, 96, -18, 26, 114, 47, 48, 87, 62, 75, 85, 114
260605946, 4296, -8380, -13178, -2471, 2001, -277, -3859, 77, -55, -28, 114, 47, 48, 87, 62, 75, 85, 114
260621457, 4296, -8380, -13178, -2471, 2001, -277, -3859, 77, -55, -28, 105, 47, 44, 81, 58, 80, 84, 99
260622271, 4296, -8380, -13178, -2471, 2001, -277, -3859, 77, -55, -28, 105, 47, 44, 81, 58, 80, 84, 99
260628451, 4248, -8383, -13202, -2420, 1948, -319, -3843, 23, -67, -95, 105, 47, 44, 81, 58, 80, 84, 99
260643951, 4248, -8383, -13202, -2420, 1948, -319, -3843, 23, -67, -95, 105, 45, 41, 83, 60, 90, 81, 88
260644760, 4248, -8383, -13202, -2420, 1948, -319, -3843, 23, -67, -95, 105, 45, 41, 83, 60, 90, 81, 88
260650877, 4208, -8390, -13219, -2368, 1981, -322, -3905, 35, -45, -41, 105, 45, 41, 83, 60, 90, 81, 88
260658958, 4208, -8390, -13219, -2368, 1981, -322, -3905, 35, -45, -41, 103, 46, 42, 83, 67, 93, 81, 88
260659777, 4208, -8390, -13219, -2368, 1981, -322, -3905, 35, -45, -41, 103, 46, 42, 83, 67, 93, 81, 88
260665934, 4174, -8407, -13226, -2330, 2004, -315, -3903, -22, 4, 16, 103, 46, 42, 83, 67, 93, 81, 88
260681470, 4174, -8407, -13226, -2330, 2004, -315, -3903, -22, 4, 16, 116, 45, 45, 84, 68, 95, 81, 91
260682260, 4174, -8407, -13226, -2330, 2004, -315, -3903, -22, 4, 16, 116, 45, 45, 84, 68, 95, 81, 91
260688382, 4149, -8425, -13227, -2301, 2069, -340, -3868, -52, 23, 33, 116, 45, 45, 84, 68, 95, 81, 91
260703945, 4149, -8425, -13227, -2301, 2069, -340, -3868, -52, 23, 33, 101, 41, 43, 87, 65, 92, 81, 94
260704752, 4149, -8425, -13227, -2301, 2069, -340, -3868, -52, 23, 33, 101, 41, 43, 87, 65, 92, 81, 94
260710955, 4129, -8442, -13228, -2268, 2089, -387, -3864, -37, 13, 28, 101, 41, 43, 87, 65, 92, 81, 94
260727201, 4129, -8442, -13228, -2268, 2089, -387, -3864, -37, 13, 28, 96, 39, 56, 88, 66, 86, 78, 83
260727941, 4129, -8442, -13228, -2268, 2089, -387, -3864, -37, 13, 28, 96, 39, 56, 88, 66, 86, 78, 83
260728920, 4125, -8445, -13229, -2259, 2111, -432, -3848, 3, -10, -12, 96, 39, 56, 88, 66, 86, 78, 83
260741498, 4125, -8445, -13229, -2259, 2111, -432, -3848, 3, -10, -12, 93, 40, 57, 87, 75, 80, 73, 76
260742344, 4125, -8445, -13229, -2259, 2111, -432, -3848, 3, -10, -12, 93, 40, 57, 87, 75, 80, 73, 76
260748490, 4114, -8458, -13232, -2217, 2129, -434, -3843, 22, -10, 13, 93, 40, 57, 87, 75, 80, 73, 76
260764006, 4114, -8458, -13232, -2217, 2129, -434, -3843, 22, -10, 13, 91, 40, 61, 110, 86, 82, 73, 70
260764815, 4114, -8458, -13232, -2217, 2129, -434, -3843, 22, -10, 13, 91, 40, 61, 110, 86, 82, 73, 70
260770938, 4109, -8477, -13228, -2172, 2140, -429, -3843, 57, -1, 83, 91, 40, 61, 110, 86, 82, 73, 70
260787196, 4109, -8477, -13228, -2172, 2140, -429, -3843, 57, -1, 83, 47, 38, 72, 128, 87, 78, 55, 59
260787996, 4109, -8477, -13228, -2172, 2140, -429, -3843, 57, -1, 83, 47, 38, 72, 128, 87, 78, 55, 59
260788949, 4113, -8504, -13218, -2126, 2184, -415, -3845, 87, 16, 154, 47, 38, 72, 128, 87, 78, 55, 59
260801465, 4113, -8504, -13218, -2126, 2184, -415, -3845, 87, 16, 154, 58, 42, 106, 127, 103, 87, 53, 65
260802257, 4113, -8504, -13218, -2126, 2184, -415, -3845, 87, 16, 154, 58, 42, 106, 127, 103, 87, 53, 65
260808454, 4116, -8538, -13197, -2107, 2220, -370, -3898, -26, 97, 197, 58, 42, 106, 127, 103, 87, 53, 65
260823947, 4116, -8538, -13197, -2107, 2220, -370, -3898, -26, 97, 197, 61, 51, 176, 195, 141, 98, 52, 65
260824744, 4116, -8538, -13197, -2107, 2220, -370, -3898, -26, 97, 197, 61, 51, 176, 195, 141, 98, 52, 65
260830896, 4109, -8548, -13192, -2113, 2125, -398, -3770, -141, 119, -9, 61, 51, 176, 195, 141, 98, 52, 65
260847142, 4109, -8548, -13192, -2113, 2125, -398, -3770, -141, 119, -9, 64, 59, 191, 224, 265, 113, 63, 66
260847999, 4109, -8548, -13192, -2113, 2125, -398, -3770, -141, 119, -9, 64, 59, 191, 224, 265, 113, 63, 66
260848892, 4082, -8538, -13215, -2061, 2055, -492, -3778, 76, -142, -142, 64, 59, 191, 224, 265, 113, 63, 66
260861490, 4082, -8538, -13215, -2061, 2055, -492, -3778, 76, -142, -142, 68, 67, 207, 303, 451, 183, 79, 73
260862277, 4082, -8538, -13215, -2061, 2055, -492, -3778, 76, -142, -142, 68, 67, 207, 303, 451, 183, 79, 73
260868474, 4063, -8550, -13228, -1965, 2061, -456, -3771, 286, -261, 74, 68, 67, 207, 303, 451, 183, 79, 73
260884011, 4063, -8550, -13228, -1965, 2061, -456, -3771, 286, -261, 74, 69, 110, 252, 366, 495, 207, 78, 69
260884795, 4063, -8550, -13228, -1965, 2061, -456, -3771, 286, -261, 74, 69, 110, 252, 366, 495, 207, 78, 69
260890937, 4042, -8599, -13221, -1843, 2028, -409, -3715, 381, -368, 369, 69, 110, 252, 366, 495, 207, 78, 69
260906188, 4042, -8599, -13221, -1843, 2028, -409, -3715, 381, -368, 369, 66, 139, 272, 400, 576, 232, 86, 74
260913960, 4042, -8599, -13221, -1843, 2028, -409, -3715, 381, -368, 369, 66, 139, 272, 400, 576, 232, 86, 74
260914895, 3974, -8671, -13213, -1702, 1932, -359, -3742, 347, -634, 498, 66, 139, 272, 400, 576, 232, 86, 74
260920885, 3974, -8671, -13213, -1702, 1932, -359, -3742, 347, -634, 498, 75, 148, 245, 400, 678, 288, 99, 85
260930329, 3974, -8671, -13213, -1702, 1932, -359, -3742, 347, -634, 498, 75, 148, 245, 400, 678, 288, 99, 85
260931095, 3974, -8671, -13213, -1702, 1932, -359, -3742, 347, -634, 498, 75, 148, 245, 400, 678, 288, 99, 85
260931922, 3974, -8671, -13213, -1702, 1932, -359, -3742, 347, -634, 498, 75, 148, 245, 400, 678, 288, 99, 85
260932864, 3834, -8734, -13231, -1554, 1813, -350, -3675, 206, -1036, 352, 75, 148, 245, 400, 678, 288, 99, 85
260943988, 3834, -8734, -13231, -1554, 1813, -350, -3675, 206, -1036, 352, 78, 151, 261, 411, 778, 293, 99, 87
260944772, 3834, -8734, -13231, -1554, 1813, -350, -3675, 206, -1036, 352, 78, 151, 261, 411, 778, 293, 99, 87
260950933, 3627, -8793, -13270, -1375, 1689, -461, -3538, 105, -1500, 258, 78, 151, 261, 411, 778, 293, 99, 87
260967203, 3627, -8793, -13270, -1375, 1689, -461, -3538, 105, -1500, 258, 78, 152, 336, 381, 756, 263, 88, 84
260968020, 3627, -8793, -13270, -1375, 1689, -461, -3538, 105, -1500, 258, 78, 152, 336, 381, 756, 263, 88, 84
260968966, 3355, -8902, -13290, -1147, 1559, -363, -3604, 103, -1985, 589, 78, 152, 336, 381, 756, 263, 88, 84
260989683, 3355, -8902, -13290, -1147, 1559, -363, -3604, 103, -1985, 589, 84, 138, 328, 339, 806, 269, 94, 102
260990491, 3355, -8902, -13290, -1147, 1559, -363, -3604, 103, -1985, 589, 84, 138, 328, 339, 806, 269, 94, 102
260991439, 3047, -9054, -13287, -809, 1589, -505, -3573, 422, -2513, 968, 84, 138, 328, 339, 806, 269, 94, 102
261003986, 3047, -9054, -13287, -809, 1589, -505, -3573, 422, -2513, 968, 80, 127, 346, 334, 857, 263, 90, 96
261004841, 3047, -9054, -13287, -809, 1589, -505, -3573, 422, -2513, 968, 80, 127, 346, 334, 857, 263, 90, 96
261010973, 2727, -9172, -13295, -365, 1546, -542, -3649, 905, -2918, 893, 80, 127, 346, 334, 857, 263, 90, 96
261027145, 2727, -9172, -13295, -365, 1546, -542, -3649, 905, -2918, 893, 72, 122, 358, 316, 831, 222, 81, 88
261027946, 2727, -9172, -13295, -365, 1546, -542, -3649, 905, -2918, 893, 72, 122, 358, 316, 831, 222, 81, 88
261028914, 2400, -9251, -13308, 134, 1268, -426, -3627, 1206, -3124, 762, 72, 122, 358, 316, 831, 222, 81, 88
261049662, 2400, -9251, -13308, 134, 1268, -426, -3627, 1206, -3124, 762, 75, 144, 391, 291, 784, 233, 81, 94
261050460, 2400, -9251, -13308, 134, 1268, -426, -3627, 1206, -3124, 762, 75, 144, 391, 291, 784, 233, 81, 94
261051411, 2074, -9361, -13269, 680, 894, -330, -3855, 1433, -3207, 1106, 75, 144, 391, 291, 784, 233, 81, 94
261063964, 2074, -9361, -13269, 680, 894, -330, -3855, 1433, -3207, 1106, 82, 166, 342, 286, 794, 255, 88, 98
261064790, 2074, -9361, -13269, 680, 894, -330, -3855, 1433, -3207, 1106, 82, 166, 342, 286, 794, 255, 88, 98
261070904, 1754, -9503, -13168, 1296, 991, -427, -3748, 1762, -3411, 1507, 82, 166, 342, 286, 794, 255, 88, 98
261087186, 1754, -9503, -13168, 1296, 991, -427, -3748, 1762, -3411, 1507, 96, 177, 365, 273, 775, 251, 93, 102
261087958, 1754, -9503, -13168, 1296, 991, -427, -3748, 1762, -3411, 1507, 96, 177, 365, 273, 775, 251, 93, 102
261088891, 1445, -9590, -13061, 1952, 1058, -343, -3579, 2042, -3550, 1315, 96, 177, 365, 273, 775, 251, 93, 102
261109684, 1445, -9590, -13061, 1952, 1058, -343, -3579, 2042, -3550, 1315, 104, 180, 384, 265, 731, 259, 100, 107
261110474, 1445, -9590, -13061, 1952, 1058, -343, -3579, 2042, -3550, 1315, 104, 180, 384, 265, 731, 259, 100, 107
261111412, 1136, -9629, -12961, 2541, 807, -159, -3404, 1795, -3376, 1040, 104, 180, 384, 265, 731, 259, 100, 107
261132155, 1136, -9629, -12961, 2541, 807, -159, -3404, 1795, -3376, 1040, 116, 184, 394, 279, 748, 274, 107, 114
261132934, 1136, -9629, -12961, 2541, 807, -159, -3404, 1795, -3376, 1040, 116, 184, 394, 279, 748, 274, 107, 114
261133874, 827, -9661, -12850, 3053, 336, -505, -3283, 1427, -3087, 998, 116, 184, 394, 279, 748, 274, 107, 114
261153968, 827, -9661, -12850, 3053, 336, -505, -3283, 1427, -3087, 998, 133, 195, 392, 333, 722, 275, 110, 116
261154772, 827, -9661, -12850, 3053, 336, -505, -3283, 1427, -3087, 998, 133, 195, 392, 333, 722, 275, 110, 116
261176537, 589, -9662, -12731, 3563, 267, -571, -3138, 1669, -2814, 819, 133, 195, 392, 333, 722, 275, 110, 116
261177374, 413, -9621, -12641, 3991, 415, -326, -2928, 1521, -2354, 454, 133, 195, 392, 333, 722, 275, 110, 116
261183997, 413, -9621, -12641, 3991, 415, -326, -2928, 1521, -2354, 454, 130, 181, 406, 330, 728, 261, 106, 112
261184737, 413, -9621, -12641, 3991, 415, -326, -2928, 1521, -2354, 454, 130, 181, 406, 330, 728, 261, 106, 112
261201147, 249, -9576, -12605, 4220, 301, -377, -2758, 615, -1659, 210, 130, 181, 406, 330, 728, 261, 106, 112
261201914, 249, -9576, -12605, 4220, 301, -377, -2758, 615, -1659, 210, 118, 166, 423, 347, 713, 265, 101, 96
261202721, 249, -9576, -12605, 4220, 301, -377, -2758, 615, -1659, 210, 118, 166, 423, 347, 713, 265, 101, 96
261203537, 249, -9576, -12605, 4220, 301, -377, -2758, 615, -1659, 210, 118, 166, 423, 347, 713, 265, 101, 96
261208507, 249, -9576, -12605, 4220, 301, -377, -2758, 615, -1659, 210, 118, 166, 423, 347, 713, 265, 101, 96
261209218, 249, -9576, -12605, 4220, 301, -377, -2758, 615, -1659, 210, 118, 166, 423, 347, 713, 265, 101, 96
261210038, 249, -9576, -12605, 4220, 301, -377, -2758, 615, -1659, 210, 118, 166, 423, 347, 713, 265, 101, 96
261210897, 249, -9576, -12605, 4220, 301, -377, -2758, 615, -1659, 210, 118, 166, 423, 347, 713, 265, 101, 96
261215906, 249, -9576, -12605, 4220, 301, -377, -2758, 615, -1659, 210, 118, 166, 423, 347, 713, 265, 101, 96
261216865, 132, -9546, -12645, 4173, 223, -588, -2737, -314, -935, 54, 118, 166, 423, 347, 713, 265, 101, 96
261217653, 132, -9546, -12645, 4173, 223, -588, -2737, -314, -935, 54, 108, 152, 382, 324, 742, 269, 98, 91
261218480, 132, -9546, -12645, 4173, 223, -588, -2737, -314, -935, 54, 108, 152, 382, 324, 742, 269, 98, 91
261223494, 132, -9546, -12645, 4173, 223, -588, -2737, -314, -935, 54, 108, 152, 382, 324, 742, 269, 98, 91
261224367, 132, -9546, -12645, 4173, 223, -588, -2737, -314, -935, 54, 108, 152, 382, 324, 742, 269, 98, 91
261225123, 132, -9546, -12645, 4173, 223, -588, -2737, -314, -935, 54, 108, 152, 382, 324, 742, 269, 98, 91
261225956, 132, -9546, -12645, 4173, 223, -588, -2737, -314, -935, 54, 108, 152, 382, 324, 742, 269, 98, 91
261230937, 132, -9546, -12645, 4173, 223, -588, -2737, -314, -935, 54, 108, 152, 382, 324, 742, 269, 98, 91
261231746, 132, -9546, -12645, 4173, 223, -588, -2737, -314, -935, 54, 108, 152, 382, 324, 742, 269, 98, 91
261232602, 132, -9546, -12645, 4173, 223, -588, -2737, -314, -935, 54, 108, 152, 382, 324, 742, 269, 98, 91
261233366, 132, -9546, -12645, 4173, 223, -588, -2737, -314, -935, 54, 108, 152, 382, 324, 742, 269, 98, 91
261238506, 132, -9546, -12645, 4173, 223, -588, -2737, -314, -935, 54, 108, 152, 382, 324, 742, 269, 98, 91
261239403, 99, -9536, -12722, 3957, 583, -892, -2519, -1051, -115, 8, 108, 152, 382, 324, 742, 269, 98, 91
261240203, 99, -9536, -12722, 3957, 583, -892, -2519, -1051, -115, 8, 98, 153, 362, 300, 698, 242, 90, 86
261241021, 99, -9536, -12722, 3957, 583, -892, -2519, -1051, -115, 8, 98, 153, 362, 300, 698, 242, 90, 86
261246056, 99, -9536, -12722, 3957, 583, -892, -2519, -1051, -115, 8, 98, 153, 362, 300, 698, 242, 90, 86
261246888, 99, -9536, -12722, 3957, 583, -892, -2519, -1051, -115, 8, 98, 153, 362, 300, 698, 242, 90, 86
261247699, 99, -9536, -12722, 3957, 583, -892, -2519, -1051, -115, 8, 98, 153, 362, 300, 698, 242, 90, 86
261248470, 99, -9536, -12722, 3957, 583, -892, -2519, -1051, -115, 8, 98, 153, 362, 300, 698, 242, 90, 86
261253445, 99, -9536, -12722, 3957, 583, -892, -2519, -1051, -115, 8, 98, 153, 362, 300, 698, 242, 90, 86
261254275, 99, -9536, -12722, 3957, 583, -892, -2519, -1051, -115, 8, 98, 153, 362, 300, 698, 242, 90, 86
261255119, 99, -9536, -12722, 3957, 583, -892, -2519, -1051, -115, 8, 98, 153, 362, 300, 698, 242, 90, 86
261255896, 99, -9536, -12722, 3957, 583, -892, -2519, -1051, -115, 8, 98, 153, 362, 300, 698, 242, 90, 86
261260953, 99, -9536, -12722, 3957, 583, -892, -2519, -1051, -115, 8, 98, 153, 362, 300, 698, 242, 90, 86
261261896, 99, -9536, -12722, 3957, 583, -892, -2519, -1051, -115, 8, 71, 122, 370, 249, 667, 225, 83, 74
261262670, 99, -9536, -12722, 3957, 583, -892, -2519, -1051, -115, 8, 71, 122, 370, 249, 667, 225, 83, 74
261263541, 99, -9536, -12722, 3957, 583, -892, -2519, -1051, -115, 8, 71, 122, 370, 249, 667, 225, 83, 74
261268497, 99, -9536, -12722, 3957, 583, -892, -2519, -1051, -115, 8, 71, 122, 370, 249, 667, 225, 83, 74
261269343, 99, -9536, -12722, 3957, 583, -892, -2519, -1051, -115, 8, 71, 122, 370, 249, 667, 225, 83, 74
261270121, 99, -9536, -12722, 3957, 583, -892, -2519, -1051, -115, 8, 71, 122, 370, 249, 667, 225, 83, 74
261270960, 99, -9536, -12722, 3957, 583, -892, -2519, -1051, -115, 8, 71, 122, 370, 249, 667, 225, 83, 74
261275945, 99, -9536, -12722, 3957, 583, -892, -2519, -1051, -115, 8, 71, 122, 370, 249, 667, 225, 83, 74
261276810, 99, -9536, -12722, 3957, 583, -892, -2519, -1051, -115, 8, 71, 122, 370, 249, 667, 225, 83, 74
261277621, 99, -9536, -12722, 3957, 583, -892, -2519, -1051, -115, 8, 71, 122, 370, 249, 667, 225, 83, 74
261278425, 99, -9536, -12722, 3957, 583, -892, -2519, -1051, -115, 8, 71, 122, 370, 249, 667, 225, 83, 74
261283470, 99, -9536, -12722, 3957, 583, -892, -2519, -1051, -115, 8, 71, 122, 370, 249, 667, 225, 83, 74
261284401, 131, -9547, -12790, 3703, 348, -1226, -2657, -1171, 435, 21, 71, 122, 370, 249, 667, 225, 83, 74
261285221, 131, -9547, -12790, 3703, 348, -1226, -2657, -1171, 435, 21, 70, 113, 387, 263, 627, 223, 81, 75
261286061, 131, -9547, -12790, 3703, 348, -1226, -2657, -1171, 435, 21, 70, 113, 387, 263, 627, 223, 81, 75
261291068, 131, -9547, -12790, 3703, 348, -1226, -2657, -1171, 435, 21, 70, 113, 387, 263, 627, 223, 81, 75
261291857, 131, -9547, -12790, 3703, 348, -1226, -2657, -1171, 435, 21, 70, 113, 387, 263, 627, 223, 81, 75
261292671, 131, -9547, -12790, 3703, 348, -1226, -2657, -1171, 435, 21, 70, 113, 387, 263, 627, 223, 81, 75
261293503, 131, -9547, -12790, 3703, 348, -1226, -2657, -1171, 435, 21, 70, 113, 387, 263, 627, 223, 81, 75
261298442, 131, -9547, -12790, 3703, 348, -1226, -2657, -1171, 435, 21, 70, 113, 387, 263, 627, 223, 81, 75
261299228, 131, -9547, -12790, 3703, 348, -1226, -2657, -1171, 435, 21, 70, 113, 387, 263, 627, 223, 81, 75
261300046, 131, -9547, -12790, 3703, 348, -1226, -2657, -1171, 435, 21, 70, 113, 387, 263, 627, 223, 81, 75
261300845, 131, -9547, -12790, 3703, 348, -1226, -2657, -1171, 435, 21, 70, 113, 387, 263, 627, 223, 81, 75
261305962, 131, -9547, -12790, 3703, 348, -1226, -2657, -1171, 435, 21, 70, 113, 387, 263, 627, 223, 81, 75
261306873, 215, -9560, -12846, 3462, 738, -788, -3284, -616, 384, 1, 70, 113, 387, 263, 627, 223, 81, 75
261307725, 215, -9560, -12846, 3462, 738, -788, -3284, -616, 384, 1, 69, 106, 330, 242, 620, 202, 79, 71
261308513, 215, -9560, -12846, 3462, 738, -788, -3284, -616, 384, 1, 69, 106, 330, 242, 620, 202, 79, 71
261313521, 215, -9560, -12846, 3462, 738, -788, -3284, -616, 384, 1, 69, 106, 330, 242, 620, 202, 79, 71
261314362, 215, -9560, -12846, 3462, 738, -788, -3284, -616, 384, 1, 69, 106, 330, 242, 620, 202, 79, 71
261315145, 215, -9560, -12846, 3462, 738, -788, -3284, -616, 384, 1, 69, 106, 330, 242, 620, 202, 79, 71
261316012, 215, -9560, -12846, 3462, 738, -788, -3284, -616, 384, 1, 69, 106, 330, 242, 620, 202, 79, 71
261320921, 215, -9560, -12846, 3462, 738, -788, -3284, -616, 384, 1, 69, 106, 330, 242, 620, 202, 79, 71
261321762, 215, -9560, -12846, 3462, 738, -788, -3284, -616, 384, 1, 69, 106, 330, 242, 620, 202, 79, 71
261322695, 215, -9560, -12846, 3462, 738, -788, -3284, -616, 384, 1, 69, 106, 330, 242, 620, 202, 79, 71
261323297, 215, -9560, -12846, 3462, 738, -788, -3284, -616, 384, 1, 69, 106, 330, 242, 620, 202, 79, 71
261328419, 215, -9560, -12846, 3462, 738, -788, -3284, -616, 384, 1, 69, 106, 330, 242, 620, 202, 79, 71
261329373, 306, -9572, -12872, 3324, -254, -1030, -3057, -283, 634, -77, 69, 106, 330, 242, 620, 202, 79, 71
261330212, 306, -9572, -12872, 3324, -254, -1030, -3057, -283, 634, -77, 71, 101, 324, 245, 530, 180, 70, 68
261331018, 306, -9572, -12872, 3324, -254, -1030, -3057, -283, 634, -77, 71, 101, 324, 245, 530, 180, 70, 68
261336073, 306, -9572, -12872, 3324, -254, -1030, -3057, -283, 634, -77, 71, 101, 324, 245, 530, 180, 70, 68
261336871, 306, -9572, -12872, 3324, -254, -1030, -3057, -283, 634, -77, 71, 101, 324, 245, 530, 180, 70, 68
261337663, 306, -9572, -12872, 3324, -254, -1030, -3057, -283, 634, -77, 71, 101, 324, 245, 530, 180, 70, 68
261338475, 306, -9572, -12872, 3324, -254, -1030, -3057, -283, 634, -77, 71, 101, 324, 245, 530, 180, 70, 68
261343461, 306, -9572, -12872, 3324, -254, -1030, -3057, -283, 634, -77, 71, 101, 324, 245, 530, 180, 70, 68
261344271, 306, -9572, -12872, 3324, -254, -1030, -3057, -283, 634, -77, 71, 101, 324, 245, 530, 180, 70, 68
261345100, 306, -9572, -12872, 3324, -254, -1030, -3057, -283, 634, -77, 71, 101, 324, 245, 530, 180, 70, 68
261345922, 306, -9572, -12872, 3324, -254, -1030, -3057, -283, 634, -77, 71, 101, 324, 245, 530, 180, 70, 68
261350983, 306, -9572, -12872, 3324, -254, -1030, -3057, -283, 634, -77, 71, 101, 324, 245, 530, 180, 70, 68
261351898, 435, -9567, -12910, 3175, 847, -689, -2354, -189, 371, -80, 71, 101, 324, 245, 530, 180, 70, 68
261352747, 435, -9567, -12910, 3175, 847, -689, -2354, -189, 371, -80, 72, 94, 342, 271, 548, 177, 66, 60
261353526, 435, -9567, -12910, 3175, 847, -689, -2354, -189, 371, -80, 72, 94, 342, 271, 548, 177, 66, 60
261358525, 435, -9567, -12910, 3175, 847, -689, -2354, -189, 371, -80, 72, 94, 342, 271, 548, 177, 66, 60
261359363, 435, -9567, -12910, 3175, 847, -689, -2354, -189, 371, -80, 72, 94, 342, 271, 548, 177, 66, 60
261360171, 435, -9567, -12910, 3175, 847, -689, -2354, -189, 371, -80, 72, 94, 342, 271, 548, 177, 66, 60
261360996, 435, -9567, -12910, 3175, 847, -689, -2354, -189, 371, -80, 72, 94, 342, 271, 548, 177, 66, 60
261365920, 435, -9567, -12910, 3175, 847, -689, -2354, -189, 371, -80, 72, 94, 342, 271, 548, 177, 66, 60
261366748, 435, -9567, -12910, 3175, 847, -689, -2354, -189, 371, -80, 72, 94, 342, 271, 548, 177, 66, 60
261367594, 435, -9567, -12910, 3175, 847, -689, -2354, -189, 371, -80, 72, 94, 342, 271, 548, 177, 66, 60
261368311, 435, -9567, -12910, 3175, 847, -689, -2354, -189, 371, -80, 72, 94, 342, 271, 548, 177, 66, 60
261373461, 435, -9567, -12910, 3175, 847, -689, -2354, -189, 371, -80, 72, 94, 342, 271, 548, 177, 66, 60
261374360, 575, -9547, -12968, 2970, 1665, -382, -2497, -254, 187, -125, 72, 94, 342, 271, 548, 177, 66, 60
261375184, 575, -9547, -12968, 2970, 1665, -382, -2497, -254, 187, -125, 72, 86, 294, 277, 541, 174, 65, 58
261375990, 575, -9547, -12968, 2970, 1665, -382, -2497, -254, 187, -125, 72, 86, 294, 277, 541, 174, 65, 58
261381041, 575, -9547, -12968, 2970, 1665, -382, -2497, -254, 187, -125, 72, 86, 294, 277, 541, 174, 65, 58
261381796, 575, -9547, -12968, 2970, 1665, -382, -2497, -254, 187, -125, 72, 86, 294, 277, 541, 174, 65, 58
261382661, 575, -9547, -12968, 2970, 1665, -382, -2497, -254, 187, -125, 72, 86, 294, 277, 541, 174, 65, 58
261383418, 575, -9547, -12968, 2970, 1665, -382, -2497, -254, 187, -125, 72, 86, 294, 277, 541, 174, 65, 58
261388413, 575, -9547, -12968, 2970, 1665, -382, -2497, -254, 187, -125, 72, 86, 294, 277, 541, 174, 65, 58
261389263, 575, -9547, -12968, 2970, 1665, -382, -2497, -254, 187, -125, 72, 86, 294, 277, 541, 174, 65, 58
261390051, 575, -9547, -12968, 2970, 1665, -382, -2497, -254, 187, -125, 72, 86, 294, 277, 541, 174, 65, 58
261390846, 575, -9547, -12968, 2970, 1665, -382, -2497, -254, 187, -125, 72, 86, 294, 277, 541, 174, 65, 58
261396001, 575, -9547, -12968, 2970, 1665, -382, -2497, -254, 187, -125, 72, 86, 294, 277, 541, 174, 65, 58
261396929, 693, -9513, -13038, 2738, 1830, -242, -2742, -356, 88, -202, 72, 86, 294, 277, 541, 174, 65, 58
261397761, 693, -9513, -13038, 2738, 1830, -242, -2742, -356, 88, -202, 73, 87, 247, 241, 536, 164, 62, 53
261398634, 693, -9513, -13038, 2738, 1830, -242, -2742, -356, 88, -202, 73, 87, 247, 241, 536, 164, 62, 53
261403569, 693, -9513, -13038, 2738, 1830, -242, -2742, -356, 88, -202, 73, 87, 247, 241, 536, 164, 62, 53
261404375, 693, -9513, -13038, 2738, 1830, -242, -2742, -356, 88, -202, 73, 87, 247, 241, 536, 164, 62, 53
261405172, 693, -9513, -13038, 2738, 1830, -242, -2742, -356, 88, -202, 73, 87, 247, 241, 536, 164, 62, 53
261406019, 693, -9513, -13038, 2738, 1830, -242, -2742, -356, 88, -202, 73, 87, 247, 241, 536, 164, 62, 53
261410967, 693, -9513, -13038, 2738, 1830, -242, -2742, -356, 88, -202, 73, 87, 247, 241, 536, 164, 62, 53
261411745, 693, -9513, -13038, 2738, 1830, -242, -2742, -356, 88, -202, 73, 87, 247, 241, 536, 164, 62, 53
261412661, 693, -9513, -13038, 2738, 1830, -242, -2742, -356, 88, -202, 73, 87, 247, 241, 536, 164, 62, 53
261413374, 693, -9513, -13038, 2738, 1830, -242, -2742, -356, 88, -202, 73, 87, 247, 241, 536, 164, 62, 53
261418486, 693, -9513, -13038, 2738, 1830, -242, -2742, -356, 88, -202, 73, 87, 247, 241, 536, 164, 62, 53
261419420, 796, -9472, -13110, 2494, 1891, -302, -2709, -521, 60, -238, 73, 87, 247, 241, 536, 164, 62, 53
261420236, 796, -9472, -13110, 2494, 1891, -302, -2709, -521, 60, -238, 74, 89, 238, 222, 519, 167, 62, 55
261421062, 796, -9472, -13110, 2494, 1891, -302, -2709, -521, 60, -238, 74, 89, 238, 222, 519, 167, 62, 55
261426044, 796, -9472, -13110, 2494, 1891, -302, -2709, -521, 60, -238, 74, 89, 238, 222, 519, 167, 62, 55
261426845, 796, -9472, -13110, 2494, 1891, -302, -2709, -521, 60, -238, 74, 89, 238, 222, 519, 167, 62, 55
261427644, 796, -9472, -13110, 2494, 1891, -302, -2709, -521, 60, -238, 74, 89, 238, 222, 519, 167, 62, 55
261428471, 796, -9472, -13110, 2494, 1891, -302, -2709, -521, 60, -238, 74, 89, 238, 222, 519, 167, 62, 55
