Timestamp, Orientation x, Orientation y, Orientation z, Orientation w, Acceleration x, Acceleration y, Acceleration z, Rotation x, Rotation y, Rotation z, EMG 0, EMG 1, EMG 2, EMG 3, EMG 4, EMG 5, EMG 6, EMG 7
212674949, 917, -11607, -11527, 194, 152, -265, -2532, 20, 16, -12, 0, 0, 0, 0, 0, 0, 0, 0
212682421, 918, -11602, -11531, 192, 146, -258, -2550, -13, 18, -35, 0, 0, 0, 0, 0, 0, 0, 0
212697419, 915, -11596, -11538, 186, 144, -281, -2556, -53, 14, -57, 0, 0, 0, 0, 0, 0, 0, 0
212712426, 913, -11587, -11547, 181, 157, -318, -2568, -66, 13, -75, 0, 0, 0, 0, 0, 0, 0, 0
212734973, 920, -11575, -11558, 174, 162, -358, -2558, -64, 52, -99, 0, 0, 0, 0, 0, 0, 0, 0
212743037, 920, -11575, -11558, 174, 162, -358, -2558, -64, 52, -99, 31, 21, 27, 22, 29, 30, 49, 93
212743868, 920, -11575, -11558, 174, 162, -358, -2558, -64, 52, -99, 31, 21, 27, 22, 29, 30, 49, 93
212757426, 943, -11558, -11574, 159, 166, -338, -2533, -13, 150, -141, 31, 21, 27, 22, 29, 30, 49, 93
212765515, 943, -11558, -11574, 159, 166, -338, -2533, -13, 150, -141, 44, 28, 29, 29, 45, 54, 68, 126
212766363, 943, -11558, -11574, 159, 166, -338, -2533, -13, 150, -141, 44, 28, 29, 29, 45, 54, 68, 126
212779902, 961, -11526, -11605, 86, 179, -225, -2556, -206, 353, -276, 44, 28, 29, 29, 45, 54, 68, 126
212788014, 961, -11526, -11605, 86, 179, -225, -2556, -206, 353, -276, 52, 31, 29, 32, 70, 62, 86, 150
212788818, 961, -11526, -11605, 86, 179, -225, -2556, -206, 353, -276, 52, 31, 29, 32, 70, 62, 86, 150
212794966, 936, -11477, -11656, -85, 213, -195, -2581, -765, 564, -450, 52, 31, 29, 32, 70, 62, 86, 150
212802381, 936, -11477, -11656, -85, 213, -195, -2581, -765, 564, -450, 59, 32, 29, 34, 80, 68, 99, 158
212809875, 936, -11477, -11656, -85, 213, -195, -2581, -765, 564, -450, 59, 32, 29, 34, 80, 68, 99, 158
212817507, 918, -11413, -11717, -300, 263, -182, -2781, -923, 772, -568, 59, 32, 29, 34, 80, 68, 99, 158
212825554, 918, -11413, -11717, -300, 263, -182, -2781, -923, 772, -568, 66, 41, 35, 36, 84, 77, 105, 154
212826369, 918, -11413, -11717, -300, 263, -182, -2781, -923, 772, -568, 66, 41, 35, 36, 84, 77, 105, 154
212842685, 901, -11318, -11799, -578, 363, -234, -3059, -1227, 1015, -797, 66, 41, 35, 36, 84, 77, 105, 154
212843504, 901, -11318, -11799, -578, 363, -234, -3059, -1227, 1015, -797, 66, 41, 35, 36, 84, 77, 105, 154
212844356, 917, -11607, -11527, 194, 152, -265, -2532, 20, 16, -12, 66, 41, 35, 36, 84, 77, 105, 154
212845149, 918, -11602, -11531, 192, 146, -258, -2550, -13, 18, -35, 66, 41, 35, 36, 84, 77, 105, 154
212850153, 915, -11596, -11538, 186, 144, -281, -2556, -53, 14, -57, 66, 41, 35, 36, 84, 77, 105, 154
212850971, 913, -11587, -11547, 181, 157, -318, -2568, -66, 13, -75, 66, 41, 35, 36, 84, 77, 105, 154
212851797, 920, -11575, -11558, 174, 162, -358, -2558, -64, 52, -99, 66, 41, 35, 36, 84, 77, 105, 154
212852640, 920, -11575, -11558, 174, 162, -358, -2558, -64, 52, -99, 31, 21, 27, 22, 29, 30, 49, 93
212857621, 920, -11575, -11558, 174, 162, -358, -2558, -64, 52, -99, 44, 28, 29, 29, 45, 54, 68, 126
212858436, 920, -11575, -11558, 174, 162, -358, -2558, -64, 52, -99, 44, 28, 29, 29, 45, 54, 68, 126
212859222, 920, -11575, -11558, 174, 162, -358, -2558, -64, 52, -99, 44, 28, 29, 29, 45, 54, 68, 126
212860012, 920, -11575, -11558, 174, 162, -358, -2558, -64, 52, -99, 44, 28, 29, 29, 45, 54, 68, 126
212865019, 920, -11575, -11558, 174, 162, -358, -2558, -64, 52, -99, 44, 28, 29, 29, 45, 54, 68, 126
212865886, 920, -11575, -11558, 174, 162, -358, -2558, -64, 52, -99, 44, 28, 29, 29, 45, 54, 68, 126
212866671, 920, -11575, -11558, 174, 162, -358, -2558, -64, 52, -99, 44, 28, 29, 29, 45, 54, 68, 126
212867503, 920, -11575, -11558, 174, 162, -358, -2558, -64, 52, -99, 44, 28, 29, 29, 45, 54, 68, 126
212872546, 920, -11575, -11558, 174, 162, -358, -2558, -64, 52, -99, 44, 28, 29, 29, 45, 54, 68, 126
212873513, 961, -11526, -11605, 86, 179, -225, -2556, -206, 353, -276, 44, 28, 29, 29, 45, 54, 68, 126
212874324, 961, -11526, -11605, 86, 179, -225, -2556, -206, 353, -276, 52, 31, 29, 32, 70, 62, 86, 150
212875144, 961, -11526, -11605, 86, 179, -225, -2556, -206, 353, -276, 52, 31, 29, 32, 70, 62, 86, 150
212887629, 961, -11526, -11605, 86, 179, -225, -2556, -206, 353, -276, 52, 31, 29, 32, 70, 62, 86, 150
212888424, 961, -11526, -11605, 86, 179, -225, -2556, -206, 353, -276, 52, 31, 29, 32, 70, 62, 86, 150
212889262, 961, -11526, -11605, 86, 179, -225, -2556, -206, 353, -276, 52, 31, 29, 32, 70, 62, 86, 150
212890071, 961, -11526, -11605, 86, 179, -225, -2556, -206, 353, -276, 52, 31, 29, 32, 70, 62, 86, 150
212895035, 961, -11526, -11605, 86, 179, -225, -2556, -206, 353, -276, 52, 31, 29, 32, 70, 62, 86, 150
212895808, 961, -11526, -11605, 86, 179, -225, -2556, -206, 353, -276, 52, 31, 29, 32, 70, 62, 86, 150
212896627, 961, -11526, -11605, 86, 179, -225, -2556, -206, 353, -276, 52, 31, 29, 32, 70, 62, 86, 150
212897439, 961, -11526, -11605, 86, 179, -225, -2556, -206, 353, -276, 52, 31, 29, 32, 70, 62, 86, 150
212902656, 961, -11526, -11605, 86, 179, -225, -2556, -206, 353, -276, 59, 32, 29, 34, 80, 68, 99, 158
212903458, 961, -11526, -11605, 86, 179, -225, -2556, -206, 353, -276, 59, 32, 29, 34, 80, 68, 99, 158
212904277, 961, -11526, -11605, 86, 179, -225, -2556, -206, 353, -276, 59, 32, 29, 34, 80, 68, 99, 158
212905072, 961, -11526, -11605, 86, 179, -225, -2556, -206, 353, -276, 59, 32, 29, 34, 80, 68, 99, 158
212910040, 961, -11526, -11605, 86, 179, -225, -2556, -206, 353, -276, 59, 32, 29, 34, 80, 68, 99, 158
212910845, 961, -11526, -11605, 86, 179, -225, -2556, -206, 353, -276, 59, 32, 29, 34, 80, 68, 99, 158
212911688, 961, -11526, -11605, 86, 179, -225, -2556, -206, 353, -276, 59, 32, 29, 34, 80, 68, 99, 158
212912474, 961, -11526, -11605, 86, 179, -225, -2556, -206, 353, -276, 59, 32, 29, 34, 80, 68, 99, 158
212917550, 961, -11526, -11605, 86, 179, -225, -2556, -206, 353, -276, 59, 32, 29, 34, 80, 68, 99, 158
212918473, 918, -11413, -11717, -300, 263, -182, -2781, -923, 772, -568, 59, 32, 29, 34, 80, 68, 99, 158
212919316, 918, -11413, -11717, -300, 263, -182, -2781, -923, 772, -568, 66, 41, 35, 36, 84, 77, 105, 154
212920096, 918, -11413, -11717, -300, 263, -182, -2781, -923, 772, -568, 66, 41, 35, 36, 84, 77, 105, 154
212925122, 918, -11413, -11717, -300, 263, -182, -2781, -923, 772, -568, 66, 41, 35, 36, 84, 77, 105, 154
212925921, 918, -11413, -11717, -300, 263, -182, -2781, -923, 772, -568, 66, 41, 35, 36, 84, 77, 105, 154
212926761, 918, -11413, -11717, -300, 263, -182, -2781, -923, 772, -568, 66, 41, 35, 36, 84, 77, 105, 154
212927622, 918, -11413, -11717, -300, 263, -182, -2781, -923, 772, -568, 66, 41, 35, 36, 84, 77, 105, 154
212932506, 918, -11413, -11717, -300, 263, -182, -2781, -923, 772, -568, 66, 41, 35, 36, 84, 77, 105, 154
212933287, 918, -11413, -11717, -300, 263, -182, -2781, -923, 772, -568, 66, 41, 35, 36, 84, 77, 105, 154
212934096, 918, -11413, -11717, -300, 263, -182, -2781, -923, 772, -568, 66, 41, 35, 36, 84, 77, 105, 154
212934920, 918, -11413, -11717, -300, 263, -182, -2781, -923, 772, -568, 66, 41, 35, 36, 84, 77, 105, 154
212939995, 918, -11413, -11717, -300, 263, -182, -2781, -923, 772, -568, 66, 41, 35, 36, 84, 77, 105, 154
212940975, 901, -11318, -11799, -578, 363, -234, -3059, -1227, 1015, -797, 66, 41, 35, 36, 84, 77, 105, 154
212941771, 901, -11318, -11799, -578, 363, -234, -3059, -1227, 1015, -797, 67, 44, 33, 37, 85, 75, 103, 160
212942626, 901, -11318, -11799, -578, 363, -234, -3059, -1227, 1015, -797, 67, 44, 33, 37, 85, 75, 103, 160
212945379, 901, -11318, -11799, -578, 363, -234, -3059, -1227, 1015, -797, 67, 44, 33, 37, 85, 75, 103, 160
212955021, 901, -11318, -11799, -578, 363, -234, -3059, -1227, 1015, -797, 67, 44, 33, 37, 85, 75, 103, 160
212955858, 901, -11318, -11799, -578, 363, -234, -3059, -1227, 1015, -797, 67, 44, 33, 37, 85, 75, 103, 160
212956637, 901, -11318, -11799, -578, 363, -234, -3059, -1227, 1015, -797, 67, 44, 33, 37, 85, 75, 103, 160
212957450, 901, -11318, -11799, -578, 363, -234, -3059, -1227, 1015, -797, 67, 44, 33, 37, 85, 75, 103, 160
212962501, 901, -11318, -11799, -578, 363, -234, -3059, -1227, 1015, -797, 67, 44, 33, 37, 85, 75, 103, 160
212963321, 901, -11318, -11799, -578, 363, -234, -3059, -1227, 1015, -797, 67, 44, 33, 37, 85, 75, 103, 160
212964146, 901, -11318, -11799, -578, 363, -234, -3059, -1227, 1015, -797, 67, 44, 33, 37, 85, 75, 103, 160
212964986, 901, -11318, -11799, -578, 363, -234, -3059, -1227, 1015, -797, 67, 44, 33, 37, 85, 75, 103, 160
212970119, 901, -11318, -11799, -578, 363, -234, -3059, -1227, 1015, -797, 60, 41, 33, 33, 79, 64, 100, 136
212970921, 901, -11318, -11799, -578, 363, -234, -3059, -1227, 1015, -797, 60, 41, 33, 33, 79, 64, 100, 136
212971744, 901, -11318, -11799, -578, 363, -234, -3059, -1227, 1015, -797, 60, 41, 33, 33, 79, 64, 100, 136
212972621, 901, -11318, -11799, -578, 363, -234, -3059, -1227, 1015, -797, 60, 41, 33, 33, 79, 64, 100, 136
212977523, 901, -11318, -11799, -578, 363, -234, -3059, -1227, 1015, -797, 60, 41, 33, 33, 79, 64, 100, 136
212978310, 901, -11318, -11799, -578, 363, -234, -3059, -1227, 1015, -797, 60, 41, 33, 33, 79, 64, 100, 136
212979120, 901, -11318, -11799, -578, 363, -234, -3059, -1227, 1015, -797, 60, 41, 33, 33, 79, 64, 100, 136
212979943, 901, -11318, -11799, -578, 363, -234, -3059, -1227, 1015, -797, 60, 41, 33, 33, 79, 64, 100, 136
212985068, 901, -11318, -11799, -578, 363, -234, -3059, -1227, 1015, -797, 60, 41, 33, 33, 79, 64, 100, 136
212986020, 819, -11010, -12014, -1495, 483, -678, -3190, -2174, 1822, -1302, 60, 41, 33, 33, 79, 64, 100, 136
212986821, 819, -11010, -12014, -1495, 483, -678, -3190, -2174, 1822, -1302, 58, 42, 32, 31, 60, 60, 95, 114
212987650, 819, -11010, -12014, -1495, 483, -678, -3190, -2174, 1822, -1302, 58, 42, 32, 31, 60, 60, 95, 114
212992650, 819, -11010, -12014, -1495, 483, -678, -3190, -2174, 1822, -1302, 58, 42, 32, 31, 60, 60, 95, 114
212993411, 819, -11010, -12014, -1495, 483, -678, -3190, -2174, 1822, -1302, 58, 42, 32, 31, 60, 60, 95, 114
212994196, 819, -11010, -12014, -1495, 483, -678, -3190, -2174, 1822, -1302, 58, 42, 32, 31, 60, 60, 95, 114
212995050, 819, -11010, -12014, -1495, 483, -678, -3190, -2174, 1822, -1302, 58, 42, 32, 31, 60, 60, 95, 114
213000028, 819, -11010, -12014, -1495, 483, -678, -3190, -2174, 1822, -1302, 58, 42, 32, 31, 60, 60, 95, 114
213000873, 819, -11010, -12014, -1495, 483, -678, -3190, -2174, 1822, -1302, 58, 42, 32, 31, 60, 60, 95, 114
213001647, 819, -11010, -12014, -1495, 483, -678, -3190, -2174, 1822, -1302, 58, 42, 32, 31, 60, 60, 95, 114
213002500, 819, -11010, -12014, -1495, 483, -678, -3190, -2174, 1822, -1302, 58, 42, 32, 31, 60, 60, 95, 114
213007547, 819, -11010, -12014, -1495, 483, -678, -3190, -2174, 1822, -1302, 58, 42, 32, 31, 60, 60, 95, 114
213008514, 837, -10813, -12116, -2011, 518, -717, -3330, -2089, 2130, -1354, 58, 42, 32, 31, 60, 60, 95, 114
213009302, 837, -10813, -12116, -2011, 518, -717, -3330, -2089, 2130, -1354, 54, 41, 33, 34, 54, 60, 93, 110
213010136, 837, -10813, -12116, -2011, 518, -717, -3330, -2089, 2130, -1354, 54, 41, 33, 34, 54, 60, 93, 110
213015121, 837, -10813, -12116, -2011, 518, -717, -3330, -2089, 2130, -1354, 54, 41, 33, 34, 54, 60, 93, 110
213015947, 837, -10813, -12116, -2011, 518, -717, -3330, -2089, 2130, -1354, 54, 41, 33, 34, 54, 60, 93, 110
213016745, 837, -10813, -12116, -2011, 518, -717, -3330, -2089, 2130, -1354, 54, 41, 33, 34, 54, 60, 93, 110
213017618, 837, -10813, -12116, -2011, 518, -717, -3330, -2089, 2130, -1354, 54, 41, 33, 34, 54, 60, 93, 110
213022493, 837, -10813, -12116, -2011, 518, -717, -3330, -2089, 2130, -1354, 54, 41, 33, 34, 54, 60, 93, 110
213023355, 837, -10813, -12116, -2011, 518, -717, -3330, -2089, 2130, -1354, 54, 41, 33, 34, 54, 60, 93, 110
213024146, 837, -10813, -12116, -2011, 518, -717, -3330, -2089, 2130, -1354, 54, 41, 33, 34, 54, 60, 93, 110
213024987, 837, -10813, -12116, -2011, 518, -717, -3330, -2089, 2130, -1354, 54, 41, 33, 34, 54, 60, 93, 110
213030021, 837, -10813, -12116, -2011, 518, -717, -3330, -2089, 2130, -1354, 54, 41, 33, 34, 54, 60, 93, 110
213030974, 928, -10594, -12211, -2502, 626, -654, -3497, -1727, 2370, -1372, 54, 41, 33, 34, 54, 60, 93, 110
213031770, 928, -10594, -12211, -2502, 626, -654, -3497, -1727, 2370, -1372, 46, 33, 26, 34, 49, 51, 91, 104
213032611, 928, -10594, -12211, -2502, 626, -654, -3497, -1727, 2370, -1372, 46, 33, 26, 34, 49, 51, 91, 104
213037619, 928, -10594, -12211, -2502, 626, -654, -3497, -1727, 2370, -1372, 46, 33, 26, 34, 49, 51, 91, 104
213038438, 928, -10594, -12211, -2502, 626, -654, -3497, -1727, 2370, -1372, 46, 33, 26, 34, 49, 51, 91, 104
213039243, 928, -10594, -12211, -2502, 626, -654, -3497, -1727, 2370, -1372, 46, 33, 26, 34, 49, 51, 91, 104
213040076, 928, -10594, -12211, -2502, 626, -654, -3497, -1727, 2370, -1372, 46, 33, 26, 34, 49, 51, 91, 104
213044975, 928, -10594, -12211, -2502, 626, -654, -3497, -1727, 2370, -1372, 46, 33, 26, 34, 49, 51, 91, 104
213045825, 928, -10594, -12211, -2502, 626, -654, -3497, -1727, 2370, -1372, 46, 33, 26, 34, 49, 51, 91, 104
213046620, 928, -10594, -12211, -2502, 626, -654, -3497, -1727, 2370, -1372, 46, 33, 26, 34, 49, 51, 91, 104
213047438, 928, -10594, -12211, -2502, 626, -654, -3497, -1727, 2370, -1372, 46, 33, 26, 34, 49, 51, 91, 104
213052545, 928, -10594, -12211, -2502, 626, -654, -3497, -1727, 2370, -1372, 46, 33, 26, 34, 49, 51, 91, 104
213053539, 1078, -10351, -12298, -2985, 748, -724, -3649, -1505, 2623, -1398, 46, 33, 26, 34, 49, 51, 91, 104
213054302, 1078, -10351, -12298, -2985, 748, -724, -3649, -1505, 2623, -1398, 45, 29, 25, 34, 52, 52, 91, 101
213055150, 1078, -10351, -12298, -2985, 748, -724, -3649, -1505, 2623, -1398, 45, 29, 25, 34, 52, 52, 91, 101
213060121, 1078, -10351, -12298, -2985, 748, -724, -3649, -1505, 2623, -1398, 45, 29, 25, 34, 52, 52, 91, 101
213060986, 1078, -10351, -12298, -2985, 748, -724, -3649, -1505, 2623, -1398, 45, 29, 25, 34, 52, 52, 91, 101
213061747, 1078, -10351, -12298, -2985, 748, -724, -3649, -1505, 2623, -1398, 45, 29, 25, 34, 52, 52, 91, 101
213062650, 1078, -10351, -12298, -2985, 748, -724, -3649, -1505, 2623, -1398, 45, 29, 25, 34, 52, 52, 91, 101
213067521, 1078, -10351, -12298, -2985, 748, -724, -3649, -1505, 2623, -1398, 45, 29, 25, 34, 52, 52, 91, 101
213068349, 1078, -10351, -12298, -2985, 748, -724, -3649, -1505, 2623, -1398, 45, 29, 25, 34, 52, 52, 91, 101
213069162, 1078, -10351, -12298, -2985, 748, -724, -3649, -1505, 2623, -1398, 45, 29, 25, 34, 52, 52, 91, 101
213069993, 1078, -10351, -12298, -2985, 748, -724, -3649, -1505, 2623, -1398, 45, 29, 25, 34, 52, 52, 91, 101
213075062, 1078, -10351, -12298, -2985, 748, -724, -3649, -1505, 2623, -1398, 45, 29, 25, 34, 52, 52, 91, 101
213075995, 1279, -10084, -12377, -3455, 814, -677, -3736, -1280, 2842, -1429, 45, 29, 25, 34, 52, 52, 91, 101
213076823, 1279, -10084, -12377, -3455, 814, -677, -3736, -1280, 2842, -1429, 46, 31, 26, 33, 52, 52, 83, 107
213077611, 1279, -10084, -12377, -3455, 814, -677, -3736, -1280, 2842, -1429, 45, 29, 25, 34, 52, 52, 91, 101
213082611, 1279, -10084, -12377, -3455, 814, -677, -3736, -1280, 2842, -1429, 46, 31, 26, 33, 52, 52, 83, 107
213083422, 1279, -10084, -12377, -3455, 814, -677, -3736, -1280, 2842, -1429, 46, 31, 26, 33, 52, 52, 83, 107
213084243, 1279, -10084, -12377, -3455, 814, -677, -3736, -1280, 2842, -1429, 46, 31, 26, 33, 52, 52, 83, 107
213085072, 1279, -10084, -12377, -3455, 814, -677, -3736, -1280, 2842, -1429, 46, 31, 26, 33, 52, 52, 83, 107
213090017, 1279, -10084, -12377, -3455, 814, -677, -3736, -1280, 2842, -1429, 46, 31, 26, 33, 52, 52, 83, 107
213090821, 1279, -10084, -12377, -3455, 814, -677, -3736, -1280, 2842, -1429, 46, 31, 26, 33, 52, 52, 83, 107
213091623, 1279, -10084, -12377, -3455, 814, -677, -3736, -1280, 2842, -1429, 46, 31, 26, 33, 52, 52, 83, 107
213092451, 1279, -10084, -12377, -3455, 814, -677, -3736, -1280, 2842, -1429, 46, 31, 26, 33, 52, 52, 83, 107
213097519, 1279, -10084, -12377, -3455, 814, -677, -3736, -1280, 2842, -1429, 46, 31, 26, 33, 52, 52, 83, 107
213098445, 1516, -9802, -12445, -3898, 903, -571, -3851, -1054, 2948, -1398, 46, 31, 26, 33, 52, 52, 83, 107
213099280, 1516, -9802, -12445, -3898, 903, -571, -3851, -1054, 2948, -1398, 43, 28, 26, 35, 54, 55, 77, 107
213100068, 1516, -9802, -12445, -3898, 903, -571, -3851, -1054, 2948, -1398, 43, 28, 26, 35, 54, 55, 77, 107
213105076, 1516, -9802, -12445, -3898, 903, -571, -3851, -1054, 2948, -1398, 43, 28, 26, 35, 54, 55, 77, 107
213105919, 1516, -9802, -12445, -3898, 903, -571, -3851, -1054, 2948, -1398, 43, 28, 26, 35, 54, 55, 77, 107
213106721, 1516, -9802, -12445, -3898, 903, -571, -3851, -1054, 2948, -1398, 43, 28, 26, 35, 54, 55, 77, 107
213107564, 1516, -9802, -12445, -3898, 903, -571, -3851, -1054, 2948, -1398, 43, 28, 26, 35, 54, 55, 77, 107
213112493, 1516, -9802, -12445, -3898, 903, -571, -3851, -1054, 2948, -1398, 43, 28, 26, 35, 54, 55, 77, 107
213113330, 1516, -9802, -12445, -3898, 903, -571, -3851, -1054, 2948, -1398, 43, 28, 26, 35, 54, 55, 77, 107
213114109, 1516, -9802, -12445, -3898, 903, -571, -3851, -1054, 2948, -1398, 43, 28, 26, 35, 54, 55, 77, 107
213114962, 1516, -9802, -12445, -3898, 903, -571, -3851, -1054, 2948, -1398, 43, 28, 26, 35, 54, 55, 77, 107
213120046, 1516, -9802, -12445, -3898, 903, -571, -3851, -1054, 2948, -1398, 43, 28, 26, 35, 54, 55, 77, 107
213120996, 1749, -9517, -12490, -4340, 1019, -467, -3803, -1091, 2957, -1349, 43, 28, 26, 35, 54, 55, 77, 107
213121795, 1749, -9517, -12490, -4340, 1019, -467, -3803, -1091, 2957, -1349, 41, 30, 27, 65, 46, 52, 69, 108
213122660, 1749, -9517, -12490, -4340, 1019, -467, -3803, -1091, 2957, -1349, 41, 30, 27, 65, 46, 52, 69, 108
213127626, 1749, -9517, -12490, -4340, 1019, -467, -3803, -1091, 2957, -1349, 41, 30, 27, 65, 46, 52, 69, 108
213128421, 1749, -9517, -12490, -4340, 1019, -467, -3803, -1091, 2957, -1349, 41, 30, 27, 65, 46, 52, 69, 108
213129243, 1749, -9517, -12490, -4340, 1019, -467, -3803, -1091, 2957, -1349, 41, 30, 27, 65, 46, 52, 69, 108
213130096, 1749, -9517, -12490, -4340, 1019, -467, -3803, -1091, 2957, -1349, 41, 30, 27, 65, 46, 52, 69, 108
213135021, 1749, -9517, -12490, -4340, 1019, -467, -3803, -1091, 2957, -1349, 41, 30, 27, 65, 46, 52, 69, 108
213135818, 1749, -9517, -12490, -4340, 1019, -467, -3803, -1091, 2957, -1349, 41, 30, 27, 65, 46, 52, 69, 108
213136639, 1749, -9517, -12490, -4340, 1019, -467, -3803, -1091, 2957, -1349, 41, 30, 27, 65, 46, 52, 69, 108
213137475, 1749, -9517, -12490, -4340, 1019, -467, -3803, -1091, 2957, -1349, 41, 30, 27, 65, 46, 52, 69, 108
213142522, 1749, -9517, -12490, -4340, 1019, -467, -3803, -1091, 2957, -1349, 41, 30, 27, 65, 46, 52, 69, 108
213143502, 1966, -9233, -12514, -4768, 1078, -441, -3746, -1124, 2868, -1295, 41, 30, 27, 65, 46, 52, 69, 108
213144290, 1966, -9233, -12514, -4768, 1078, -441, -3746, -1124, 2868, -1295, 38, 31, 29, 77, 51, 55, 61, 102
213145125, 1966, -9233, -12514, -4768, 1078, -441, -3746, -1124, 2868, -1295, 38, 31, 29, 77, 51, 55, 61, 102
213150090, 1966, -9233, -12514, -4768, 1078, -441, -3746, -1124, 2868, -1295, 38, 31, 29, 77, 51, 55, 61, 102
213150920, 1966, -9233, -12514, -4768, 1078, -441, -3746, -1124, 2868, -1295, 38, 31, 29, 77, 51, 55, 61, 102
213151750, 1966, -9233, -12514, -4768, 1078, -441, -3746, -1124, 2868, -1295, 38, 31, 29, 77, 51, 55, 61, 102
213152624, 1966, -9233, -12514, -4768, 1078, -441, -3746, -1124, 2868, -1295, 38, 31, 29, 77, 51, 55, 61, 102
213165050, 1966, -9233, -12514, -4768, 1078, -441, -3746, -1124, 2868, -1295, 38, 31, 29, 77, 51, 55, 61, 102
213165846, 1966, -9233, -12514, -4768, 1078, -441, -3746, -1124, 2868, -1295, 38, 31, 29, 77, 51, 55, 61, 102
213166685, 1966, -9233, -12514, -4768, 1078, -441, -3746, -1124, 2868, -1295, 38, 31, 29, 77, 51, 55, 61, 102
213167474, 1966, -9233, -12514, -4768, 1078, -441, -3746, -1124, 2868, -1295, 38, 31, 29, 77, 51, 55, 61, 102
213172587, 1966, -9233, -12514, -4768, 1078, -441, -3746, -1124, 2868, -1295, 38, 31, 29, 77, 51, 55, 61, 102
213173474, 2185, -8965, -12525, -5141, 1121, -464, -3777, -926, 2711, -1153, 38, 31, 29, 77, 51, 55, 61, 102
213174305, 2185, -8965, -12525, -5141, 1121, -464, -3777, -926, 2711, -1153, 40, 31, 29, 79, 48, 54, 57, 97
213175096, 2185, -8965, -12525, -5141, 1121, -464, -3777, -926, 2711, -1153, 40, 31, 29, 79, 48, 54, 57, 97
213177895, 2185, -8965, -12525, -5141, 1121, -464, -3777, -926, 2711, -1153, 40, 31, 29, 79, 48, 54, 57, 97
213187494, 2185, -8965, -12525, -5141, 1121, -464, -3777, -926, 2711, -1153, 40, 31, 29, 79, 48, 54, 57, 97
213188341, 2185, -8965, -12525, -5141, 1121, -464, -3777, -926, 2711, -1153, 40, 31, 29, 79, 48, 54, 57, 97
213189143, 2185, -8965, -12525, -5141, 1121, -464, -3777, -926, 2711, -1153, 40, 31, 29, 79, 48, 54, 57, 97
213189957, 2185, -8965, -12525, -5141, 1121, -464, -3777, -926, 2711, -1153, 40, 31, 29, 79, 48, 54, 57, 97
213195008, 2185, -8965, -12525, -5141, 1121, -464, -3777, -926, 2711, -1153, 40, 31, 29, 79, 48, 54, 57, 97
213195817, 2185, -8965, -12525, -5141, 1121, -464, -3777, -926, 2711, -1153, 40, 31, 29, 79, 48, 54, 57, 97
213196662, 2185, -8965, -12525, -5141, 1121, -464, -3777, -926, 2711, -1153, 40, 31, 29, 79, 48, 54, 57, 97
213197452, 2185, -8965, -12525, -5141, 1121, -464, -3777, -926, 2711, -1153, 40, 31, 29, 79, 48, 54, 57, 97
213202648, 2185, -8965, -12525, -5141, 1121, -464, -3777, -926, 2711, -1153, 44, 30, 30, 79, 50, 54, 57, 94
213203448, 2185, -8965, -12525, -5141, 1121, -464, -3777, -926, 2711, -1153, 44, 30, 30, 79, 50, 54, 57, 94
213204246, 2185, -8965, -12525, -5141, 1121, -464, -3777, -926, 2711, -1153, 44, 30, 30, 79, 50, 54, 57, 94
213205095, 2185, -8965, -12525, -5141, 1121, -464, -3777, -926, 2711, -1153, 44, 30, 30, 79, 50, 54, 57, 94
213210045, 2185, -8965, -12525, -5141, 1121, -464, -3777, -926, 2711, -1153, 44, 30, 30, 79, 50, 54, 57, 94
213210826, 2185, -8965, -12525, -5141, 1121, -464, -3777, -926, 2711, -1153, 44, 30, 30, 79, 50, 54, 57, 94
213211650, 2185, -8965, -12525, -5141, 1121, -464, -3777, -926, 2711, -1153, 44, 30, 30, 79, 50, 54, 57, 94
213212476, 2185, -8965, -12525, -5141, 1121, -464, -3777, -926, 2711, -1153, 44, 30, 30, 79, 50, 54, 57, 94
213217531, 2185, -8965, -12525, -5141, 1121, -464, -3777, -926, 2711, -1153, 44, 30, 30, 79, 50, 54, 57, 94
213218477, 2668, -8473, -12530, -5705, 1295, -369, -3835, -411, 2470, -880, 44, 30, 30, 79, 50, 54, 57, 94
213219298, 2668, -8473, -12530, -5705, 1295, -369, -3835, -411, 2470, -880, 48, 32, 30, 79, 58, 55, 52, 94
213220118, 2668, -8473, -12530, -5705, 1295, -369, -3835, -411, 2470, -880, 48, 32, 30, 79, 58, 55, 52, 94
213225108, 2668, -8473, -12530, -5705, 1295, -369, -3835, -411, 2470, -880, 48, 32, 30, 79, 58, 55, 52, 94
213225921, 2668, -8473, -12530, -5705, 1295, -369, -3835, -411, 2470, -880, 48, 32, 30, 79, 58, 55, 52, 94
213226747, 2668, -8473, -12530, -5705, 1295, -369, -3835, -411, 2470, -880, 48, 32, 30, 79, 58, 55, 52, 94
213227622, 2668, -8473, -12530, -5705, 1295, -369, -3835, -411, 2470, -880, 48, 32, 30, 79, 58, 55, 52, 94
213232512, 2668, -8473, -12530, -5705, 1295, -369, -3835, -411, 2470, -880, 48, 32, 30, 79, 58, 55, 52, 94
213233314, 2668, -8473, -12530, -5705, 1295, -369, -3835, -411, 2470, -880, 48, 32, 30, 79, 58, 55, 52, 94
213234162, 2668, -8473, -12530, -5705, 1295, -369, -3835, -411, 2470, -880, 48, 32, 30, 79, 58, 55, 52, 94
213234968, 2668, -8473, -12530, -5705, 1295, -369, -3835, -411, 2470, -880, 48, 32, 30, 79, 58, 55, 52, 94
213240008, 2668, -8473, -12530, -5705, 1295, -369, -3835, -411, 2470, -880, 48, 32, 30, 79, 58, 55, 52, 94
213240948, 2905, -8241, -12520, -5946, 1374, -222, -3835, -368, 2380, -811, 48, 32, 30, 79, 58, 55, 52, 94
213241786, 2905, -8241, -12520, -5946, 1374, -222, -3835, -368, 2380, -811, 54, 33, 39, 71, 71, 57, 55, 85
213242621, 2905, -8241, -12520, -5946, 1374, -222, -3835, -368, 2380, -811, 54, 33, 39, 71, 71, 57, 55, 85
213247648, 2905, -8241, -12520, -5946, 1374, -222, -3835, -368, 2380, -811, 54, 33, 39, 71, 71, 57, 55, 85
213248399, 2905, -8241, -12520, -5946, 1374, -222, -3835, -368, 2380, -811, 54, 33, 39, 71, 71, 57, 55, 85
213249236, 2905, -8241, -12520, -5946, 1374, -222, -3835, -368, 2380, -811, 54, 33, 39, 71, 71, 57, 55, 85
213250020, 2905, -8241, -12520, -5946, 1374, -222, -3835, -368, 2380, -811, 54, 33, 39, 71, 71, 57, 55, 85
213254979, 2905, -8241, -12520, -5946, 1374, -222, -3835, -368, 2380, -811, 54, 33, 39, 71, 71, 57, 55, 85
213255822, 2905, -8241, -12520, -5946, 1374, -222, -3835, -368, 2380, -811, 54, 33, 39, 71, 71, 57, 55, 85
213256622, 2905, -8241, -12520, -5946, 1374, -222, -3835, -368, 2380, -811, 54, 33, 39, 71, 71, 57, 55, 85
213257463, 2905, -8241, -12520, -5946, 1374, -222, -3835, -368, 2380, -811, 54, 33, 39, 71, 71, 57, 55, 85
213262548, 2905, -8241, -12520, -5946, 1374, -222, -3835, -368, 2380, -811, 54, 33, 39, 71, 71, 57, 55, 85
213263476, 3135, -8028, -12499, -6161, 1431, -209, -3866, -327, 2265, -684, 54, 33, 39, 71, 71, 57, 55, 85
213264303, 3135, -8028, -12499, -6161, 1431, -209, -3866, -327, 2265, -684, 52, 32, 39, 59, 79, 55, 55, 83
213265130, 3135, -8028, -12499, -6161, 1431, -209, -3866, -327, 2265, -684, 52, 32, 39, 59, 79, 55, 55, 83
213270120, 3135, -8028, -12499, -6161, 1431, -209, -3866, -327, 2265, -684, 52, 32, 39, 59, 79, 55, 55, 83
213270947, 3135, -8028, -12499, -6161, 1431, -209, -3866, -327, 2265, -684, 52, 32, 39, 59, 79, 55, 55, 83
213271746, 3135, -8028, -12499, -6161, 1431, -209, -3866, -327, 2265, -684, 52, 32, 39, 59, 79, 55, 55, 83
213272648, 3135, -8028, -12499, -6161, 1431, -209, -3866, -327, 2265, -684, 52, 32, 39, 59, 79, 55, 55, 83
213277521, 3135, -8028, -12499, -6161, 1431, -209, -3866, -327, 2265, -684, 52, 32, 39, 59, 79, 55, 55, 83
213278350, 3135, -8028, -12499, -6161, 1431, -209, -3866, -327, 2265, -684, 52, 32, 39, 59, 79, 55, 55, 83
213279146, 3135, -8028, -12499, -6161, 1431, -209, -3866, -327, 2265, -684, 52, 32, 39, 59, 79, 55, 55, 83
213279943, 3135, -8028, -12499, -6161, 1431, -209, -3866, -327, 2265, -684, 52, 32, 39, 59, 79, 55, 55, 83
213285021, 3135, -8028, -12499, -6161, 1431, -209, -3866, -327, 2265, -684, 52, 32, 39, 59, 79, 55, 55, 83
213285974, 3359, -7829, -12468, -6359, 1539, -180, -3981, -309, 2195, -601, 52, 32, 39, 59, 79, 55, 55, 83
213286770, 3359, -7829, -12468, -6359, 1539, -180, -3981, -309, 2195, -601, 49, 33, 42, 56, 81, 59, 54, 63
213287618, 3359, -7829, -12468, -6359, 1539, -180, -3981, -309, 2195, -601, 49, 33, 42, 56, 81, 59, 54, 63
213292622, 3359, -7829, -12468, -6359, 1539, -180, -3981, -309, 2195, -601, 49, 33, 42, 56, 81, 59, 54, 63
213293424, 3359, -7829, -12468, -6359, 1539, -180, -3981, -309, 2195, -601, 49, 33, 42, 56, 81, 59, 54, 63
213294222, 3359, -7829, -12468, -6359, 1539, -180, -3981, -309, 2195, -601, 49, 33, 42, 56, 81, 59, 54, 63
213295076, 3359, -7829, -12468, -6359, 1539, -180, -3981, -309, 2195, -601, 49, 33, 42, 56, 81, 59, 54, 63
213299998, 3359, -7829, -12468, -6359, 1539, -180, -3981, -309, 2195, -601, 49, 33, 42, 56, 81, 59, 54, 63
213300786, 3359, -7829, -12468, -6359, 1539, -180, -3981, -309, 2195, -601, 49, 33, 42, 56, 81, 59, 54, 63
213301660, 3359, -7829, -12468, -6359, 1539, -180, -3981, -309, 2195, -601, 49, 33, 42, 56, 81, 59, 54, 63
213302425, 3359, -7829, -12468, -6359, 1539, -180, -3981, -309, 2195, -601, 49, 33, 42, 56, 81, 59, 54, 63
213307526, 3359, -7829, -12468, -6359, 1539, -180, -3981, -309, 2195, -601, 49, 33, 42, 56, 81, 59, 54, 63
213308442, 3557, -7643, -12412, -6583, 1589, -119, -3979, -564, 2163, -563, 49, 33, 42, 56, 81, 59, 54, 63
213309272, 3557, -7643, -12412, -6583, 1589, -119, -3979, -564, 2163, -563, 47, 35, 43, 60, 97, 61, 55, 60
213310071, 3557, -7643, -12412, -6583, 1589, -119, -3979, -564, 2163, -563, 47, 35, 43, 60, 97, 61, 55, 60
213315063, 3557, -7643, -12412, -6583, 1589, -119, -3979, -564, 2163, -563, 47, 35, 43, 60, 97, 61, 55, 60
213315871, 3557, -7643, -12412, -6583, 1589, -119, -3979, -564, 2163, -563, 47, 35, 43, 60, 97, 61, 55, 60
213316671, 3557, -7643, -12412, -6583, 1589, -119, -3979, -564, 2163, -563, 47, 35, 43, 60, 97, 61, 55, 60
213317500, 3557, -7643, -12412, -6583, 1589, -119, -3979, -564, 2163, -563, 47, 35, 43, 60, 97, 61, 55, 60
213322527, 3557, -7643, -12412, -6583, 1589, -119, -3979, -564, 2163, -563, 47, 35, 43, 60, 97, 61, 55, 60
213323343, 3557, -7643, -12412, -6583, 1589, -119, -3979, -564, 2163, -563, 47, 35, 43, 60, 97, 61, 55, 60
213324174, 3557, -7643, -12412, -6583, 1589, -119, -3979, -564, 2163, -563, 47, 35, 43, 60, 97, 61, 55, 60
213324994, 3557, -7643, -12412, -6583, 1589, -119, -3979, -564, 2163, -563, 47, 35, 43, 60, 97, 61, 55, 60
213330069, 3557, -7643, -12412, -6583, 1589, -119, -3979, -564, 2163, -563, 47, 35, 43, 60, 97, 61, 55, 60
213330973, 3741, -7481, -12336, -6806, 1640, -56, -3878, -663, 2075, -442, 47, 35, 43, 60, 97, 61, 55, 60
213331808, 3741, -7481, -12336, -6806, 1640, -56, -3878, -663, 2075, -442, 43, 36, 46, 61, 125, 64, 59, 54
213332621, 3741, -7481, -12336, -6806, 1640, -56, -3878, -663, 2075, -442, 43, 36, 46, 61, 125, 64, 59, 54
213337619, 3741, -7481, -12336, -6806, 1640, -56, -3878, -663, 2075, -442, 43, 36, 46, 61, 125, 64, 59, 54
213338424, 3741, -7481, -12336, -6806, 1640, -56, -3878, -663, 2075, -442, 43, 36, 46, 61, 125, 64, 59, 54
213339286, 3741, -7481, -12336, -6806, 1640, -56, -3878, -663, 2075, -442, 43, 36, 46, 61, 125, 64, 59, 54
213340045, 3741, -7481, -12336, -6806, 1640, -56, -3878, -663, 2075, -442, 43, 36, 46, 61, 125, 64, 59, 54
213345036, 3741, -7481, -12336, -6806, 1640, -56, -3878, -663, 2075, -442, 43, 36, 46, 61, 125, 64, 59, 54
213345828, 3741, -7481, -12336, -6806, 1640, -56, -3878, -663, 2075, -442, 43, 36, 46, 61, 125, 64, 59, 54
213346623, 3741, -7481, -12336, -6806, 1640, -56, -3878, -663, 2075, -442, 43, 36, 46, 61, 125, 64, 59, 54
213347450, 3741, -7481, -12336, -6806, 1640, -56, -3878, -663, 2075, -442, 43, 36, 46, 61, 125, 64, 59, 54
213352519, 3741, -7481, -12336, -6806, 1640, -56, -3878, -663, 2075, -442, 43, 36, 46, 61, 125, 64, 59, 54
213353474, 3899, -7343, -12256, -7009, 1725, -79, -3784, -686, 1863, -378, 43, 36, 46, 61, 125, 64, 59, 54
213354270, 3899, -7343, -12256, -7009, 1725, -79, -3784, -686, 1863, -378, 42, 38, 49, 84, 135, 69, 52, 52
213355068, 3899, -7343, -12256, -7009, 1725, -79, -3784, -686, 1863, -378, 42, 38, 49, 84, 135, 69, 52, 52
213360092, 3899, -7343, -12256, -7009, 1725, -79, -3784, -686, 1863, -378, 42, 38, 49, 84, 135, 69, 52, 52
213360897, 3899, -7343, -12256, -7009, 1725, -79, -3784, -686, 1863, -378, 42, 38, 49, 84, 135, 69, 52, 52
213361723, 3899, -7343, -12256, -7009, 1725, -79, -3784, -686, 1863, -378, 42, 38, 49, 84, 135, 69, 52, 52
213362514, 3899, -7343, -12256, -7009, 1725, -79, -3784, -686, 1863, -378, 42, 38, 49, 84, 135, 69, 52, 52
213367446, 3899, -7343, -12256, -7009, 1725, -79, -3784, -686, 1863, -378, 42, 38, 49, 84, 135, 69, 52, 52
213368270, 3899, -7343, -12256, -7009, 1725, -79, -3784, -686, 1863, -378, 42, 38, 49, 84, 135, 69, 52, 52
213369095, 3899, -7343, -12256, -7009, 1725, -79, -3784, -686, 1863, -378, 42, 38, 49, 84, 135, 69, 52, 52
213369894, 3899, -7343, -12256, -7009, 1725, -79, -3784, -686, 1863, -378, 42, 38, 49, 84, 135, 69, 52, 52
213374996, 3899, -7343, -12256, -7009, 1725, -79, -3784, -686, 1863, -378, 42, 38, 49, 84, 135, 69, 52, 52
213375950, 4027, -7212, -12186, -7192, 1781, -64, -3789, -667, 1666, -418, 42, 38, 49, 84, 135, 69, 52, 52
213376745, 4027, -7212, -12186, -7192, 1781, -64, -3789, -667, 1666, -418, 44, 46, 65, 92, 157, 89, 58, 58
213377661, 4027, -7212, -12186, -7192, 1781, -64, -3789, -667, 1666, -418, 42, 38, 49, 84, 135, 69, 52, 52
213382623, 4027, -7212, -12186, -7192, 1781, -64, -3789, -667, 1666, -418, 44, 46, 65, 92, 157, 89, 58, 58
213383410, 4027, -7212, -12186, -7192, 1781, -64, -3789, -667, 1666, -418, 44, 46, 65, 92, 157, 89, 58, 58
213384233, 4027, -7212, -12186, -7192, 1781, -64, -3789, -667, 1666, -418, 44, 46, 65, 92, 157, 89, 58, 58
213385044, 4027, -7212, -12186, -7192, 1781, -64, -3789, -667, 1666, -418, 44, 46, 65, 92, 157, 89, 58, 58
213390043, 4027, -7212, -12186, -7192, 1781, -64, -3789, -667, 1666, -418, 44, 46, 65, 92, 157, 89, 58, 58
213390820, 4027, -7212, -12186, -7192, 1781, -64, -3789, -667, 1666, -418, 44, 46, 65, 92, 157, 89, 58, 58
213391643, 4027, -7212, -12186, -7192, 1781, -64, -3789, -667, 1666, -418, 44, 46, 65, 92, 157, 89, 58, 58
213392474, 4027, -7212, -12186, -7192, 1781, -64, -3789, -667, 1666, -418, 44, 46, 65, 92, 157, 89, 58, 58
213397559, 4027, -7212, -12186, -7192, 1781, -64, -3789, -667, 1666, -418, 44, 46, 65, 92, 157, 89, 58, 58
213398472, 4115, -7172, -12189, -7178, 1829, -83, -3871, -624, 1570, -406, 44, 46, 65, 92, 157, 89, 58, 58
213399306, 4115, -7172, -12189, -7178, 1829, -83, -3871, -624, 1570, -406, 47, 48, 74, 141, 210, 106, 69, 63
213400096, 4115, -7172, -12189, -7178, 1829, -83, -3871, -624, 1570, -406, 47, 48, 74, 141, 210, 106, 69, 63
213405101, 4115, -7172, -12189, -7178, 1829, -83, -3871, -624, 1570, -406, 47, 48, 74, 141, 210, 106, 69, 63
213405968, 4115, -7172, -12189, -7178, 1829, -83, -3871, -624, 1570, -406, 47, 48, 74, 141, 210, 106, 69, 63
213406721, 4115, -7172, -12189, -7178, 1829, -83, -3871, -624, 1570, -406, 47, 48, 74, 141, 210, 106, 69, 63
213407642, 4115, -7172, -12189, -7178, 1829, -83, -3871, -624, 1570, -406, 47, 48, 74, 141, 210, 106, 69, 63
213412500, 4115, -7172, -12189, -7178, 1829, -83, -3871, -624, 1570, -406, 47, 48, 74, 141, 210, 106, 69, 63
213413330, 4115, -7172, -12189, -7178, 1829, -83, -3871, -624, 1570, -406, 47, 48, 74, 141, 210, 106, 69, 63
213414121, 4115, -7172, -12189, -7178, 1829, -83, -3871, -624, 1570, -406, 47, 48, 74, 141, 210, 106, 69, 63
213414987, 4115, -7172, -12189, -7178, 1829, -83, -3871, -624, 1570, -406, 47, 48, 74, 141, 210, 106, 69, 63
213419996, 4115, -7172, -12189, -7178, 1829, -83, -3871, -624, 1570, -406, 47, 48, 74, 141, 210, 106, 69, 63
213420989, 4210, -7146, -12184, -7157, 1909, -30, -3865, -585, 1541, -294, 47, 48, 74, 141, 210, 106, 69, 63
213421745, 4210, -7146, -12184, -7157, 1909, -30, -3865, -585, 1541, -294, 46, 52, 123, 161, 222, 114, 74, 63
213422661, 4210, -7146, -12184, -7157, 1909, -30, -3865, -585, 1541, -294, 46, 52, 123, 161, 222, 114, 74, 63
213427621, 4210, -7146, -12184, -7157, 1909, -30, -3865, -585, 1541, -294, 46, 52, 123, 161, 222, 114, 74, 63
213428423, 4210, -7146, -12184, -7157, 1909, -30, -3865, -585, 1541, -294, 46, 52, 123, 161, 222, 114, 74, 63
213429196, 4210, -7146, -12184, -7157, 1909, -30, -3865, -585, 1541, -294, 46, 52, 123, 161, 222, 114, 74, 63
213430062, 4210, -7146, -12184, -7157, 1909, -30, -3865, -585, 1541, -294, 46, 52, 123, 161, 222, 114, 74, 63
213442496, 4210, -7146, -12184, -7157, 1909, -30, -3865, -585, 1541, -294, 46, 52, 123, 161, 222, 114, 74, 63
213443366, 4210, -7146, -12184, -7157, 1909, -30, -3865, -585, 1541, -294, 46, 52, 123, 161, 222, 114, 74, 63
213444161, 4210, -7146, -12184, -7157, 1909, -30, -3865, -585, 1541, -294, 46, 52, 123, 161, 222, 114, 74, 63
213444943, 4210, -7146, -12184, -7157, 1909, -30, -3865, -585, 1541, -294, 46, 52, 123, 161, 222, 114, 74, 63
213450045, 4210, -7146, -12184, -7157, 1909, -30, -3865, -585, 1541, -294, 46, 52, 123, 161, 222, 114, 74, 63
213450940, 4298, -7133, -12175, -7134, 2033, -39, -3798, -598, 1435, -270, 46, 52, 123, 161, 222, 114, 74, 63
213451771, 4298, -7133, -12175, -7134, 2033, -39, -3798, -598, 1435, -270, 56, 63, 149, 237, 229, 125, 78, 68
213452630, 4298, -7133, -12175, -7134, 2033, -39, -3798, -598, 1435, -270, 56, 63, 149, 237, 229, 125, 78, 68
213457649, 4298, -7133, -12175, -7134, 2033, -39, -3798, -598, 1435, -270, 56, 63, 149, 237, 229, 125, 78, 68
213458400, 4298, -7133, -12175, -7134, 2033, -39, -3798, -598, 1435, -270, 56, 63, 149, 237, 229, 125, 78, 68
213459238, 4298, -7133, -12175, -7134, 2033, -39, -3798, -598, 1435, -270, 56, 63, 149, 237, 229, 125, 78, 68
213460056, 4298, -7133, -12175, -7134, 2033, -39, -3798, -598, 1435, -270, 56, 63, 149, 237, 229, 125, 78, 68
213465030, 4298, -7133, -12175, -7134, 2033, -39, -3798, -598, 1435, -270, 56, 63, 149, 237, 229, 125, 78, 68
213465795, 4298, -7133, -12175, -7134, 2033, -39, -3798, -598, 1435, -270, 56, 63, 149, 237, 229, 125, 78, 68
213466648, 4298, -7133, -12175, -7134, 2033, -39, -3798, -598, 1435, -270, 56, 63, 149, 237, 229, 125, 78, 68
213467424, 4298, -7133, -12175, -7134, 2033, -39, -3798, -598, 1435, -270, 56, 63, 149, 237, 229, 125, 78, 68
213472507, 4298, -7133, -12175, -7134, 2033, -39, -3798, -598, 1435, -270, 56, 63, 149, 237, 229, 125, 78, 68
213473429, 4352, -7124, -12161, -7132, 2022, 36, -3799, -758, 1362, -315, 56, 63, 149, 237, 229, 125, 78, 68
213474264, 4352, -7124, -12161, -7132, 2022, 36, -3799, -758, 1362, -315, 56, 66, 152, 261, 235, 131, 77, 65
213475094, 4352, -7124, -12161, -7132, 2022, 36, -3799, -758, 1362, -315, 56, 66, 152, 261, 235, 131, 77, 65
213480081, 4352, -7124, -12161, -7132, 2022, 36, -3799, -758, 1362, -315, 56, 66, 152, 261, 235, 131, 77, 65
213480925, 4352, -7124, -12161, -7132, 2022, 36, -3799, -758, 1362, -315, 56, 66, 152, 261, 235, 131, 77, 65
213481717, 4352, -7124, -12161, -7132, 2022, 36, -3799, -758, 1362, -315, 56, 66, 152, 261, 235, 131, 77, 65
213482552, 4352, -7124, -12161, -7132, 2022, 36, -3799, -758, 1362, -315, 56, 66, 152, 261, 235, 131, 77, 65
213487471, 4352, -7124, -12161, -7132, 2022, 36, -3799, -758, 1362, -315, 56, 66, 152, 261, 235, 131, 77, 65
213488303, 4352, -7124, -12161, -7132, 2022, 36, -3799, -758, 1362, -315, 56, 66, 152, 261, 235, 131, 77, 65
213489096, 4352, -7124, -12161, -7132, 2022, 36, -3799, -758, 1362, -315, 56, 66, 152, 261, 235, 131, 77, 65
213489894, 4352, -7124, -12161, -7132, 2022, 36, -3799, -758, 1362, -315, 56, 66, 152, 261, 235, 131, 77, 65
213495024, 4352, -7124, -12161, -7132, 2022, 36, -3799, -758, 1362, -315, 56, 66, 152, 261, 235, 131, 77, 65
213495975, 4389, -7148, -12146, -7112, 1917, 32, -3666, -734, 1139, -169, 56, 66, 152, 261, 235, 131, 77, 65
213496795, 4389, -7148, -12146, -7112, 1917, 32, -3666, -734, 1139, -169, 57, 62, 150, 266, 234, 122, 79, 64
213497623, 4389, -7148, -12146, -7112, 1917, 32, -3666, -734, 1139, -169, 56, 66, 152, 261, 235, 131, 77, 65
213502647, 4389, -7148, -12146, -7112, 1917, 32, -3666, -734, 1139, -169, 57, 62, 150, 266, 234, 122, 79, 64
213503423, 4389, -7148, -12146, -7112, 1917, 32, -3666, -734, 1139, -169, 57, 62, 150, 266, 234, 122, 79, 64
213504259, 4389, -7148, -12146, -7112, 1917, 32, -3666, -734, 1139, -169, 57, 62, 150, 266, 234, 122, 79, 64
213505047, 4389, -7148, -12146, -7112, 1917, 32, -3666, -734, 1139, -169, 57, 62, 150, 266, 234, 122, 79, 64
213510008, 4389, -7148, -12146, -7112, 1917, 32, -3666, -734, 1139, -169, 57, 62, 150, 266, 234, 122, 79, 64
213510821, 4389, -7148, -12146, -7112, 1917, 32, -3666, -734, 1139, -169, 57, 62, 150, 266, 234, 122, 79, 64
213511661, 4389, -7148, -12146, -7112, 1917, 32, -3666, -734, 1139, -169, 57, 62, 150, 266, 234, 122, 79, 64
213512471, 4389, -7148, -12146, -7112, 1917, 32, -3666, -734, 1139, -169, 57, 62, 150, 266, 234, 122, 79, 64
213517507, 4389, -7148, -12146, -7112, 1917, 32, -3666, -734, 1139, -169, 57, 62, 150, 266, 234, 122, 79, 64
213518454, 4427, -7206, -12142, -7036, 2068, -64, -3769, -552, 915, -33, 57, 62, 150, 266, 234, 122, 79, 64
213519310, 4427, -7206, -12142, -7036, 2068, -64, -3769, -552, 915, -33, 57, 62, 148, 245, 200, 110, 72, 62
213520084, 4427, -7206, -12142, -7036, 2068, -64, -3769, -552, 915, -33, 57, 62, 148, 245, 200, 110, 72, 62
213525100, 4427, -7206, -12142, -7036, 2068, -64, -3769, -552, 915, -33, 57, 62, 148, 245, 200, 110, 72, 62
213525897, 4427, -7206, -12142, -7036, 2068, -64, -3769, -552, 915, -33, 57, 62, 148, 245, 200, 110, 72, 62
213526747, 4427, -7206, -12142, -7036, 2068, -64, -3769, -552, 915, -33, 57, 62, 148, 245, 200, 110, 72, 62
213527524, 4427, -7206, -12142, -7036, 2068, -64, -3769, -552, 915, -33, 57, 62, 148, 245, 200, 110, 72, 62
213532469, 4427, -7206, -12142, -7036, 2068, -64, -3769, -552, 915, -33, 57, 62, 148, 245, 200, 110, 72, 62
213533296, 4427, -7206, -12142, -7036, 2068, -64, -3769, -552, 915, -33, 57, 62, 148, 245, 200, 110, 72, 62
213534125, 4427, -7206, -12142, -7036, 2068, -64, -3769, -552, 915, -33, 57, 62, 148, 245, 200, 110, 72, 62
213534920, 4427, -7206, -12142, -7036, 2068, -64, -3769, -552, 915, -33, 57, 62, 148, 245, 200, 110, 72, 62
213540007, 4427, -7206, -12142, -7036, 2068, -64, -3769, -552, 915, -33, 57, 62, 148, 245, 200, 110, 72, 62
213540924, 4485, -7270, -12142, -6931, 2192, -80, -3785, -360, 875, 62, 57, 62, 148, 245, 200, 110, 72, 62
213541748, 4485, -7270, -12142, -6931, 2192, -80, -3785, -360, 875, 62, 59, 57, 112, 233, 179, 102, 65, 60
213542633, 4485, -7270, -12142, -6931, 2192, -80, -3785, -360, 875, 62, 59, 57, 112, 233, 179, 102, 65, 60
213547619, 4485, -7270, -12142, -6931, 2192, -80, -3785, -360, 875, 62, 59, 57, 112, 233, 179, 102, 65, 60
213548413, 4485, -7270, -12142, -6931, 2192, -80, -3785, -360, 875, 62, 59, 57, 112, 233, 179, 102, 65, 60
213549196, 4485, -7270, -12142, -6931, 2192, -80, -3785, -360, 875, 62, 59, 57, 112, 233, 179, 102, 65, 60
213550035, 4485, -7270, -12142, -6931, 2192, -80, -3785, -360, 875, 62, 59, 57, 112, 233, 179, 102, 65, 60
213555056, 4485, -7270, -12142, -6931, 2192, -80, -3785, -360, 875, 62, 59, 57, 112, 233, 179, 102, 65, 60
213555837, 4485, -7270, -12142, -6931, 2192, -80, -3785, -360, 875, 62, 59, 57, 112, 233, 179, 102, 65, 60
213556646, 4485, -7270, -12142, -6931, 2192, -80, -3785, -360, 875, 62, 59, 57, 112, 233, 179, 102, 65, 60
213557489, 4485, -7270, -12142, -6931, 2192, -80, -3785, -360, 875, 62, 59, 57, 112, 233, 179, 102, 65, 60
213562521, 4485, -7270, -12142, -6931, 2192, -80, -3785, -360, 875, 62, 59, 57, 112, 233, 179, 102, 65, 60
213563514, 4541, -7323, -12173, -6785, 2242, -78, -3803, -72, 729, 9, 59, 57, 112, 233, 179, 102, 65, 60
213564277, 4541, -7323, -12173, -6785, 2242, -78, -3803, -72, 729, 9, 59, 44, 74, 155, 162, 89, 59, 69
213565121, 4541, -7323, -12173, -6785, 2242, -78, -3803, -72, 729, 9, 59, 44, 74, 155, 162, 89, 59, 69
213570096, 4541, -7323, -12173, -6785, 2242, -78, -3803, -72, 729, 9, 59, 44, 74, 155, 162, 89, 59, 69
213570911, 4541, -7323, -12173, -6785, 2242, -78, -3803, -72, 729, 9, 59, 44, 74, 155, 162, 89, 59, 69
213571695, 4541, -7323, -12173, -6785, 2242, -78, -3803, -72, 729, 9, 59, 44, 74, 155, 162, 89, 59, 69
213572603, 4541, -7323, -12173, -6785, 2242, -78, -3803, -72, 729, 9, 59, 44, 74, 155, 162, 89, 59, 69
213577510, 4541, -7323, -12173, -6785, 2242, -78, -3803, -72, 729, 9, 59, 44, 74, 155, 162, 89, 59, 69
213578301, 4541, -7323, -12173, -6785, 2242, -78, -3803, -72, 729, 9, 59, 44, 74, 155, 162, 89, 59, 69
213579118, 4541, -7323, -12173, -6785, 2242, -78, -3803, -72, 729, 9, 59, 44, 74, 155, 162, 89, 59, 69
213579945, 4541, -7323, -12173, -6785, 2242, -78, -3803, -72, 729, 9, 59, 44, 74, 155, 162, 89, 59, 69
213585035, 4541, -7323, -12173, -6785, 2242, -78, -3803, -72, 729, 9, 59, 44, 74, 155, 162, 89, 59, 69
213585949, 4574, -7373, -12217, -6628, 2304, -10, -3834, -5, 571, -38, 59, 44, 74, 155, 162, 89, 59, 69
213586786, 4574, -7373, -12217, -6628, 2304, -10, -3834, -5, 571, -38, 58, 35, 69, 99, 144, 80, 62, 74
213587621, 4574, -7373, -12217, -6628, 2304, -10, -3834, -5, 571, -38, 58, 35, 69, 99, 144, 80, 62, 74
213592661, 4574, -7373, -12217, -6628, 2304, -10, -3834, -5, 571, -38, 58, 35, 69, 99, 144, 80, 62, 74
213593421, 4574, -7373, -12217, -6628, 2304, -10, -3834, -5, 571, -38, 58, 35, 69, 99, 144, 80, 62, 74
213594207, 4574, -7373, -12217, -6628, 2304, -10, -3834, -5, 571, -38, 58, 35, 69, 99, 144, 80, 62, 74
213595020, 4574, -7373, -12217, -6628, 2304, -10, -3834, -5, 571, -38, 58, 35, 69, 99, 144, 80, 62, 74
213599986, 4574, -7373, -12217, -6628, 2304, -10, -3834, -5, 571, -38, 58, 35, 69, 99, 144, 80, 62, 74
213600795, 4574, -7373, -12217, -6628, 2304, -10, -3834, -5, 571, -38, 58, 35, 69, 99, 144, 80, 62, 74
213601652, 4574, -7373, -12217, -6628, 2304, -10, -3834, -5, 571, -38, 58, 35, 69, 99, 144, 80, 62, 74
213602403, 4574, -7373, -12217, -6628, 2304, -10, -3834, -5, 571, -38, 58, 35, 69, 99, 144, 80, 62, 74
213607562, 4574, -7373, -12217, -6628, 2304, -10, -3834, -5, 571, -38, 58, 35, 69, 99, 144, 80, 62, 74
213608473, 4591, -7439, -12244, -6491, 2377, 48, -3835, -142, 508, 31, 58, 35, 69, 99, 144, 80, 62, 74
213609342, 4591, -7439, -12244, -6491, 2377, 48, -3835, -142, 508, 31, 56, 46, 90, 81, 134, 87, 52, 73
213610118, 4591, -7439, -12244, -6491, 2377, 48, -3835, -142, 508, 31, 56, 46, 90, 81, 134, 87, 52, 73
213615143, 4591, -7439, -12244, -6491, 2377, 48, -3835, -142, 508, 31, 56, 46, 90, 81, 134, 87, 52, 73
213615921, 4591, -7439, -12244, -6491, 2377, 48, -3835, -142, 508, 31, 56, 46, 90, 81, 134, 87, 52, 73
213616786, 4591, -7439, -12244, -6491, 2377, 48, -3835, -142, 508, 31, 56, 46, 90, 81, 134, 87, 52, 73
213617621, 4591, -7439, -12244, -6491, 2377, 48, -3835, -142, 508, 31, 56, 46, 90, 81, 134, 87, 52, 73
213622536, 4591, -7439, -12244, -6491, 2377, 48, -3835, -142, 508, 31, 56, 46, 90, 81, 134, 87, 52, 73
213623327, 4591, -7439, -12244, -6491, 2377, 48, -3835, -142, 508, 31, 56, 46, 90, 81, 134, 87, 52, 73
213624144, 4591, -7439, -12244, -6491, 2377, 48, -3835, -142, 508, 31, 56, 46, 90, 81, 134, 87, 52, 73
213624946, 4591, -7439, -12244, -6491, 2377, 48, -3835, -142, 508, 31, 56, 46, 90, 81, 134, 87, 52, 73
213630049, 4591, -7439, -12244, -6491, 2377, 48, -3835, -142, 508, 31, 56, 46, 90, 81, 134, 87, 52, 73
213630947, 4601, -7520, -12250, -6378, 2410, 25, -3892, -324, 532, 94, 56, 46, 90, 81, 134, 87, 52, 73
213631816, 4601, -7520, -12250, -6378, 2410, 25, -3892, -324, 532, 94, 54, 50, 92, 79, 142, 87, 49, 73
213632621, 4601, -7520, -12250, -6378, 2410, 25, -3892, -324, 532, 94, 54, 50, 92, 79, 142, 87, 49, 73
213637648, 4601, -7520, -12250, -6378, 2410, 25, -3892, -324, 532, 94, 54, 50, 92, 79, 142, 87, 49, 73
213638399, 4601, -7520, -12250, -6378, 2410, 25, -3892, -324, 532, 94, 54, 50, 92, 79, 142, 87, 49, 73
213639261, 4601, -7520, -12250, -6378, 2410, 25, -3892, -324, 532, 94, 54, 50, 92, 79, 142, 87, 49, 73
213640046, 4601, -7520, -12250, -6378, 2410, 25, -3892, -324, 532, 94, 54, 50, 92, 79, 142, 87, 49, 73
213645024, 4601, -7520, -12250, -6378, 2410, 25, -3892, -324, 532, 94, 54, 50, 92, 79, 142, 87, 49, 73
213645819, 4601, -7520, -12250, -6378, 2410, 25, -3892, -324, 532, 94, 54, 50, 92, 79, 142, 87, 49, 73
213646649, 4601, -7520, -12250, -6378, 2410, 25, -3892, -324, 532, 94, 54, 50, 92, 79, 142, 87, 49, 73
213647424, 4601, -7520, -12250, -6378, 2410, 25, -3892, -324, 532, 94, 54, 50, 92, 79, 142, 87, 49, 73
213652508, 4601, -7520, -12250, -6378, 2410, 25, -3892, -324, 532, 94, 54, 50, 92, 79, 142, 87, 49, 73
213653431, 4612, -7606, -12249, -6269, 2490, -101, -3866, -363, 499, 80, 54, 50, 92, 79, 142, 87, 49, 73
213654258, 4612, -7606, -12249, -6269, 2490, -101, -3866, -363, 499, 80, 51, 49, 95, 93, 152, 90, 52, 73
213655070, 4612, -7606, -12249, -6269, 2490, -101, -3866, -363, 499, 80, 51, 49, 95, 93, 152, 90, 52, 73
213660112, 4612, -7606, -12249, -6269, 2490, -101, -3866, -363, 499, 80, 51, 49, 95, 93, 152, 90, 52, 73
213660871, 4612, -7606, -12249, -6269, 2490, -101, -3866, -363, 499, 80, 51, 49, 95, 93, 152, 90, 52, 73
213661737, 4612, -7606, -12249, -6269, 2490, -101, -3866, -363, 499, 80, 51, 49, 95, 93, 152, 90, 52, 73
213662547, 4612, -7606, -12249, -6269, 2490, -101, -3866, -363, 499, 80, 51, 49, 95, 93, 152, 90, 52, 73
213667499, 4612, -7606, -12249, -6269, 2490, -101, -3866, -363, 499, 80, 51, 49, 95, 93, 152, 90, 52, 73
213668278, 4612, -7606, -12249, -6269, 2490, -101, -3866, -363, 499, 80, 51, 49, 95, 93, 152, 90, 52, 73
213669136, 4612, -7606, -12249, -6269, 2490, -101, -3866, -363, 499, 80, 51, 49, 95, 93, 152, 90, 52, 73
213669918, 4612, -7606, -12249, -6269, 2490, -101, -3866, -363, 499, 80, 51, 49, 95, 93, 152, 90, 52, 73
213675048, 4612, -7606, -12249, -6269, 2490, -101, -3866, -363, 499, 80, 51, 49, 95, 93, 152, 90, 52, 73
213675973, 4644, -7687, -12266, -6112, 2587, -285, -3841, -81, 382, 58, 51, 49, 95, 93, 152, 90, 52, 73
213676797, 4644, -7687, -12266, -6112, 2587, -285, -3841, -81, 382, 58, 41, 51, 96, 104, 147, 83, 47, 62
213677623, 4644, -7687, -12266, -6112, 2587, -285, -3841, -81, 382, 58, 41, 51, 96, 104, 147, 83, 47, 62
213682661, 4644, -7687, -12266, -6112, 2587, -285, -3841, -81, 382, 58, 41, 51, 96, 104, 147, 83, 47, 62
213683422, 4644, -7687, -12266, -6112, 2587, -285, -3841, -81, 382, 58, 41, 51, 96, 104, 147, 83, 47, 62
213684248, 4644, -7687, -12266, -6112, 2587, -285, -3841, -81, 382, 58, 41, 51, 96, 104, 147, 83, 47, 62
213685048, 4644, -7687, -12266, -6112, 2587, -285, -3841, -81, 382, 58, 41, 51, 96, 104, 147, 83, 47, 62
213690006, 4644, -7687, -12266, -6112, 2587, -285, -3841, -81, 382, 58, 41, 51, 96, 104, 147, 83, 47, 62
213690820, 4644, -7687, -12266, -6112, 2587, -285, -3841, -81, 382, 58, 41, 51, 96, 104, 147, 83, 47, 62
213691661, 4644, -7687, -12266, -6112, 2587, -285, -3841, -81, 382, 58, 41, 51, 96, 104, 147, 83, 47, 62
213692449, 4644, -7687, -12266, -6112, 2587, -285, -3841, -81, 382, 58, 41, 51, 96, 104, 147, 83, 47, 62
213697552, 4644, -7687, -12266, -6112, 2587, -285, -3841, -81, 382, 58, 41, 51, 96, 104, 147, 83, 47, 62
213698448, 4715, -7753, -12309, -5882, 2675, -420, -3824, 419, 288, 96, 41, 51, 96, 104, 147, 83, 47, 62
213699301, 4715, -7753, -12309, -5882, 2675, -420, -3824, 419, 288, 96, 51, 57, 128, 117, 150, 86, 61, 75
213700071, 4715, -7753, -12309, -5882, 2675, -420, -3824, 419, 288, 96, 51, 57, 128, 117, 150, 86, 61, 75
213705062, 4715, -7753, -12309, -5882, 2675, -420, -3824, 419, 288, 96, 51, 57, 128, 117, 150, 86, 61, 75
213705909, 4715, -7753, -12309, -5882, 2675, -420, -3824, 419, 288, 96, 51, 57, 128, 117, 150, 86, 61, 75
213706733, 4715, -7753, -12309, -5882, 2675, -420, -3824, 419, 288, 96, 51, 57, 128, 117, 150, 86, 61, 75
213707503, 4715, -7753, -12309, -5882, 2675, -420, -3824, 419, 288, 96, 51, 57, 128, 117, 150, 86, 61, 75
213720022, 4715, -7753, -12309, -5882, 2675, -420, -3824, 419, 288, 96, 51, 57, 128, 117, 150, 86, 61, 75
213720843, 4715, -7753, -12309, -5882, 2675, -420, -3824, 419, 288, 96, 51, 57, 128, 117, 150, 86, 61, 75
213721647, 4715, -7753, -12309, -5882, 2675, -420, -3824, 419, 288, 96, 51, 57, 128, 117, 150, 86, 61, 75
213722449, 4715, -7753, -12309, -5882, 2675, -420, -3824, 419, 288, 96, 51, 57, 128, 117, 150, 86, 61, 75
213727521, 4715, -7753, -12309, -5882, 2675, -420, -3824, 419, 288, 96, 51, 57, 128, 117, 150, 86, 61, 75
213728515, 4828, -7800, -12378, -5577, 2731, -407, -3865, 996, 228, 203, 51, 57, 128, 117, 150, 86, 61, 75
213729300, 4828, -7800, -12378, -5577, 2731, -407, -3865, 996, 228, 203, 61, 61, 148, 136, 153, 91, 74, 91
213730117, 4828, -7800, -12378, -5577, 2731, -407, -3865, 996, 228, 203, 61, 61, 148, 136, 153, 91, 74, 91
213742645, 4828, -7800, -12378, -5577, 2731, -407, -3865, 996, 228, 203, 61, 61, 148, 136, 153, 91, 74, 91
213743401, 4828, -7800, -12378, -5577, 2731, -407, -3865, 996, 228, 203, 61, 61, 148, 136, 153, 91, 74, 91
213744220, 4828, -7800, -12378, -5577, 2731, -407, -3865, 996, 228, 203, 61, 61, 148, 136, 153, 91, 74, 91
213745059, 4828, -7800, -12378, -5577, 2731, -407, -3865, 996, 228, 203, 61, 61, 148, 136, 153, 91, 74, 91
213749999, 4828, -7800, -12378, -5577, 2731, -407, -3865, 996, 228, 203, 61, 61, 148, 136, 153, 91, 74, 91
213750824, 4828, -7800, -12378, -5577, 2731, -407, -3865, 996, 228, 203, 61, 61, 148, 136, 153, 91, 74, 91
213751621, 4828, -7800, -12378, -5577, 2731, -407, -3865, 996, 228, 203, 61, 61, 148, 136, 153, 91, 74, 91
213752453, 4828, -7800, -12378, -5577, 2731, -407, -3865, 996, 228, 203, 61, 61, 148, 136, 153, 91, 74, 91
213757643, 4828, -7800, -12378, -5577, 2731, -407, -3865, 996, 228, 203, 85, 97, 223, 242, 242, 111, 83, 102
213758463, 4828, -7800, -12378, -5577, 2731, -407, -3865, 996, 228, 203, 85, 97, 223, 242, 242, 111, 83, 102
213759245, 4828, -7800, -12378, -5577, 2731, -407, -3865, 996, 228, 203, 85, 97, 223, 242, 242, 111, 83, 102
213760044, 4828, -7800, -12378, -5577, 2731, -407, -3865, 996, 228, 203, 85, 97, 223, 242, 242, 111, 83, 102
213764994, 4828, -7800, -12378, -5577, 2731, -407, -3865, 996, 228, 203, 85, 97, 223, 242, 242, 111, 83, 102
213765861, 4828, -7800, -12378, -5577, 2731, -407, -3865, 996, 228, 203, 85, 97, 223, 242, 242, 111, 83, 102
213766642, 4828, -7800, -12378, -5577, 2731, -407, -3865, 996, 228, 203, 85, 97, 223, 242, 242, 111, 83, 102
213767476, 4828, -7800, -12378, -5577, 2731, -407, -3865, 996, 228, 203, 85, 97, 223, 242, 242, 111, 83, 102
213772520, 4828, -7800, -12378, -5577, 2731, -407, -3865, 996, 228, 203, 85, 97, 223, 242, 242, 111, 83, 102
213773446, 5062, -7892, -12487, -4962, 2644, -291, -3876, 1066, 230, 458, 85, 97, 223, 242, 242, 111, 83, 102
213774271, 5062, -7892, -12487, -4962, 2644, -291, -3876, 1066, 230, 458, 106, 117, 237, 287, 271, 118, 90, 111
213775082, 5062, -7892, -12487, -4962, 2644, -291, -3876, 1066, 230, 458, 106, 117, 237, 287, 271, 118, 90, 111
213779195, 5062, -7892, -12487, -4962, 2644, -291, -3876, 1066, 230, 458, 106, 117, 237, 287, 271, 118, 90, 111
213780023, 5062, -7892, -12487, -4962, 2644, -291, -3876, 1066, 230, 458, 106, 117, 237, 287, 271, 118, 90, 111
213780819, 5062, -7892, -12487, -4962, 2644, -291, -3876, 1066, 230, 458, 106, 117, 237, 287, 271, 118, 90, 111
213787482, 5062, -7892, -12487, -4962, 2644, -291, -3876, 1066, 230, 458, 106, 117, 237, 287, 271, 118, 90, 111
213788276, 5062, -7892, -12487, -4962, 2644, -291, -3876, 1066, 230, 458, 106, 117, 237, 287, 271, 118, 90, 111
213789122, 5062, -7892, -12487, -4962, 2644, -291, -3876, 1066, 230, 458, 106, 117, 237, 287, 271, 118, 90, 111
213789920, 5062, -7892, -12487, -4962, 2644, -291, -3876, 1066, 230, 458, 106, 117, 237, 287, 271, 118, 90, 111
213794956, 5062, -7892, -12487, -4962, 2644, -291, -3876, 1066, 230, 458, 106, 117, 237, 287, 271, 118, 90, 111
213795812, 5062, -7892, -12487, -4962, 2644, -291, -3876, 1066, 230, 458, 106, 117, 237, 287, 271, 118, 90, 111
213796747, 5143, -7957, -12527, -4666, 2611, -520, -3848, 961, 73, 406, 106, 117, 237, 287, 271, 118, 90, 111
213797639, 5143, -7957, -12527, -4666, 2611, -520, -3848, 961, 73, 406, 114, 124, 255, 297, 281, 136, 118, 142
213802530, 5143, -7957, -12527, -4666, 2611, -520, -3848, 961, 73, 406, 114, 124, 255, 297, 281, 136, 118, 142
213803346, 5143, -7957, -12527, -4666, 2611, -520, -3848, 961, 73, 406, 114, 124, 255, 297, 281, 136, 118, 142
213804170, 5143, -7957, -12527, -4666, 2611, -520, -3848, 961, 73, 406, 114, 124, 255, 297, 281, 136, 118, 142
213804971, 5143, -7957, -12527, -4666, 2611, -520, -3848, 961, 73, 406, 114, 124, 255, 297, 281, 136, 118, 142
213810012, 5143, -7957, -12527, -4666, 2611, -520, -3848, 961, 73, 406, 114, 124, 255, 297, 281, 136, 118, 142
213810822, 5143, -7957, -12527, -4666, 2611, -520, -3848, 961, 73, 406, 114, 124, 255, 297, 281, 136, 118, 142
213811638, 5143, -7957, -12527, -4666, 2611, -520, -3848, 961, 73, 406, 114, 124, 255, 297, 281, 136, 118, 142
213812425, 5143, -7957, -12527, -4666, 2611, -520, -3848, 961, 73, 406, 114, 124, 255, 297, 281, 136, 118, 142
213817495, 5143, -7957, -12527, -4666, 2611, -520, -3848, 961, 73, 406, 114, 124, 255, 297, 281, 136, 118, 142
213818422, 5249, -8015, -12565, -4334, 2666, -721, -3821, 1196, 27, 462, 114, 124, 255, 297, 281, 136, 118, 142
213819245, 5249, -8015, -12565, -4334, 2666, -721, -3821, 1196, 27, 462, 114, 133, 292, 299, 314, 161, 126, 147
213820095, 5249, -8015, -12565, -4334, 2666, -721, -3821, 1196, 27, 462, 114, 133, 292, 299, 314, 161, 126, 147
213825092, 5249, -8015, -12565, -4334, 2666, -721, -3821, 1196, 27, 462, 114, 133, 292, 299, 314, 161, 126, 147
213825921, 5249, -8015, -12565, -4334, 2666, -721, -3821, 1196, 27, 462, 114, 133, 292, 299, 314, 161, 126, 147
213826760, 5249, -8015, -12565, -4334, 2666, -721, -3821, 1196, 27, 462, 114, 133, 292, 299, 314, 161, 126, 147
213827625, 5249, -8015, -12565, -4334, 2666, -721, -3821, 1196, 27, 462, 114, 133, 292, 299, 314, 161, 126, 147
213832496, 5249, -8015, -12565, -4334, 2666, -721, -3821, 1196, 27, 462, 114, 133, 292, 299, 314, 161, 126, 147
213833342, 5249, -8015, -12565, -4334, 2666, -721, -3821, 1196, 27, 462, 114, 133, 292, 299, 314, 161, 126, 147
213834121, 5249, -8015, -12565, -4334, 2666, -721, -3821, 1196, 27, 462, 114, 133, 292, 299, 314, 161, 126, 147
213834960, 5249, -8015, -12565, -4334, 2666, -721, -3821, 1196, 27, 462, 114, 133, 292, 299, 314, 161, 126, 147
213839996, 5249, -8015, -12565, -4334, 2666, -721, -3821, 1196, 27, 462, 114, 133, 292, 299, 314, 161, 126, 147
213840988, 5440, -8028, -12578, -4025, 2627, -597, -3848, 1764, 92, 778, 114, 133, 292, 299, 314, 161, 126, 147
213841746, 5440, -8028, -12578, -4025, 2627, -597, -3848, 1764, 92, 778, 112, 137, 364, 320, 352, 164, 123, 137
213842663, 5440, -8028, -12578, -4025, 2627, -597, -3848, 1764, 92, 778, 112, 137, 364, 320, 352, 164, 123, 137
213847664, 5440, -8028, -12578, -4025, 2627, -597, -3848, 1764, 92, 778, 112, 137, 364, 320, 352, 164, 123, 137
213848439, 5440, -8028, -12578, -4025, 2627, -597, -3848, 1764, 92, 778, 112, 137, 364, 320, 352, 164, 123, 137
213849196, 5440, -8028, -12578, -4025, 2627, -597, -3848, 1764, 92, 778, 112, 137, 364, 320, 352, 164, 123, 137
213850034, 5440, -8028, -12578, -4025, 2627, -597, -3848, 1764, 92, 778, 112, 137, 364, 320, 352, 164, 123, 137
213854970, 5440, -8028, -12578, -4025, 2627, -597, -3848, 1764, 92, 778, 112, 137, 364, 320, 352, 164, 123, 137
213855769, 5440, -8028, -12578, -4025, 2627, -597, -3848, 1764, 92, 778, 112, 137, 364, 320, 352, 164, 123, 137
213856618, 5440, -8028, -12578, -4025, 2627, -597, -3848, 1764, 92, 778, 112, 137, 364, 320, 352, 164, 123, 137
213857389, 5440, -8028, -12578, -4025, 2627, -597, -3848, 1764, 92, 778, 112, 137, 364, 320, 352, 164, 123, 137
213862469, 5440, -8028, -12578, -4025, 2627, -597, -3848, 1764, 92, 778, 112, 137, 364, 320, 352, 164, 123, 137
213863451, 5680, -8014, -12607, -3611, 2604, -676, -4005, 2440, 37, 900, 112, 137, 364, 320, 352, 164, 123, 137
213864243, 5680, -8014, -12607, -3611, 2604, -676, -4005, 2440, 37, 900, 111, 126, 337, 274, 390, 209, 129, 137
213865073, 5680, -8014, -12607, -3611, 2604, -676, -4005, 2440, 37, 900, 111, 126, 337, 274, 390, 209, 129, 137
213870046, 5680, -8014, -12607, -3611, 2604, -676, -4005, 2440, 37, 900, 111, 126, 337, 274, 390, 209, 129, 137
213870885, 5680, -8014, -12607, -3611, 2604, -676, -4005, 2440, 37, 900, 111, 126, 337, 274, 390, 209, 129, 137
213871670, 5680, -8014, -12607, -3611, 2604, -676, -4005, 2440, 37, 900, 111, 126, 337, 274, 390, 209, 129, 137
213872528, 5680, -8014, -12607, -3611, 2604, -676, -4005, 2440, 37, 900, 111, 126, 337, 274, 390, 209, 129, 137
213877520, 5680, -8014, -12607, -3611, 2604, -676, -4005, 2440, 37, 900, 111, 126, 337, 274, 390, 209, 129, 137
213878338, 5680, -8014, -12607, -3611, 2604, -676, -4005, 2440, 37, 900, 111, 126, 337, 274, 390, 209, 129, 137
213879121, 5680, -8014, -12607, -3611, 2604, -676, -4005, 2440, 37, 900, 111, 126, 337, 274, 390, 209, 129, 137
213879986, 5680, -8014, -12607, -3611, 2604, -676, -4005, 2440, 37, 900, 111, 126, 337, 274, 390, 209, 129, 137
213885034, 5680, -8014, -12607, -3611, 2604, -676, -4005, 2440, 37, 900, 111, 126, 337, 274, 390, 209, 129, 137
213885970, 5940, -7929, -12657, -3179, 2661, -726, -3893, 2757, 101, 606, 111, 126, 337, 274, 390, 209, 129, 137
213886772, 5940, -7929, -12657, -3179, 2661, -726, -3893, 2757, 101, 606, 93, 116, 349, 249, 397, 247, 133, 131
213887648, 5940, -7929, -12657, -3179, 2661, -726, -3893, 2757, 101, 606, 93, 116, 349, 249, 397, 247, 133, 131
213892620, 5940, -7929, -12657, -3179, 2661, -726, -3893, 2757, 101, 606, 93, 116, 349, 249, 397, 247, 133, 131
213893441, 5940, -7929, -12657, -3179, 2661, -726, -3893, 2757, 101, 606, 93, 116, 349, 249, 397, 247, 133, 131
213894222, 5940, -7929, -12657, -3179, 2661, -726, -3893, 2757, 101, 606, 93, 116, 349, 249, 397, 247, 133, 131
213895029, 5940, -7929, -12657, -3179, 2661, -726, -3893, 2757, 101, 606, 93, 116, 349, 249, 397, 247, 133, 131
213899996, 5940, -7929, -12657, -3179, 2661, -726, -3893, 2757, 101, 606, 93, 116, 349, 249, 397, 247, 133, 131
213900780, 5940, -7929, -12657, -3179, 2661, -726, -3893, 2757, 101, 606, 93, 116, 349, 249, 397, 247, 133, 131
213901615, 5940, -7929, -12657, -3179, 2661, -726, -3893, 2757, 101, 606, 93, 116, 349, 249, 397, 247, 133, 131
213902415, 5940, -7929, -12657, -3179, 2661, -726, -3893, 2757, 101, 606, 93, 116, 349, 249, 397, 247, 133, 131
213907541, 5940, -7929, -12657, -3179, 2661, -726, -3893, 2757, 101, 606, 93, 116, 349, 249, 397, 247, 133, 131
213908472, 6140, -7855, -12686, -2848, 2627, -385, -3769, 2165, 139, 480, 93, 116, 349, 249, 397, 247, 133, 131
213909269, 6140, -7855, -12686, -2848, 2627, -385, -3769, 2165, 139, 480, 89, 114, 353, 256, 418, 246, 115, 101
213910085, 6140, -7855, -12686, -2848, 2627, -385, -3769, 2165, 139, 480, 89, 114, 353, 256, 418, 246, 115, 101
213915092, 6140, -7855, -12686, -2848, 2627, -385, -3769, 2165, 139, 480, 89, 114, 353, 256, 418, 246, 115, 101
213915871, 6140, -7855, -12686, -2848, 2627, -385, -3769, 2165, 139, 480, 89, 114, 353, 256, 418, 246, 115, 101
213916737, 6140, -7855, -12686, -2848, 2627, -385, -3769, 2165, 139, 480, 89, 114, 353, 256, 418, 246, 115, 101
213917499, 6140, -7855, -12686, -2848, 2627, -385, -3769, 2165, 139, 480, 89, 114, 353, 256, 418, 246, 115, 101
213922492, 6140, -7855, -12686, -2848, 2627, -385, -3769, 2165, 139, 480, 89, 114, 353, 256, 418, 246, 115, 101
213923272, 6140, -7855, -12686, -2848, 2627, -385, -3769, 2165, 139, 480, 89, 114, 353, 256, 418, 246, 115, 101
213924138, 6140, -7855, -12686, -2848, 2627, -385, -3769, 2165, 139, 480, 89, 114, 353, 256, 418, 246, 115, 101
213924896, 6140, -7855, -12686, -2848, 2627, -385, -3769, 2165, 139, 480, 89, 114, 353, 256, 418, 246, 115, 101
213930049, 6140, -7855, -12686, -2848, 2627, -385, -3769, 2165, 139, 480, 89, 114, 353, 256, 418, 246, 115, 101
213930973, 6162, -7911, -12689, -2624, 2459, -346, -3658, 1020, 31, 754, 89, 114, 353, 256, 418, 246, 115, 101
213931812, 6162, -7911, -12689, -2624, 2459, -346, -3658, 1020, 31, 754, 101, 106, 327, 267, 424, 257, 107, 88
213932621, 6162, -7911, -12689, -2624, 2459, -346, -3658, 1020, 31, 754, 101, 106, 327, 267, 424, 257, 107, 88
213937629, 6162, -7911, -12689, -2624, 2459, -346, -3658, 1020, 31, 754, 101, 106, 327, 267, 424, 257, 107, 88
213938425, 6162, -7911, -12689, -2624, 2459, -346, -3658, 1020, 31, 754, 101, 106, 327, 267, 424, 257, 107, 88
213939243, 6162, -7911, -12689, -2624, 2459, -346, -3658, 1020, 31, 754, 101, 106, 327, 267, 424, 257, 107, 88
213940046, 6162, -7911, -12689, -2624, 2459, -346, -3658, 1020, 31, 754, 101, 106, 327, 267, 424, 257, 107, 88
213945037, 6162, -7911, -12689, -2624, 2459, -346, -3658, 1020, 31, 754, 101, 106, 327, 267, 424, 257, 107, 88
213945821, 6162, -7911, -12689, -2624, 2459, -346, -3658, 1020, 31, 754, 101, 106, 327, 267, 424, 257, 107, 88
213946635, 6162, -7911, -12689, -2624, 2459, -346, -3658, 1020, 31, 754, 101, 106, 327, 267, 424, 257, 107, 88
213947449, 6162, -7911, -12689, -2624, 2459, -346, -3658, 1020, 31, 754, 101, 106, 327, 267, 424, 257, 107, 88
213952521, 6162, -7911, -12689, -2624, 2459, -346, -3658, 1020, 31, 754, 101, 106, 327, 267, 424, 257, 107, 88
213953455, 6160, -8067, -12635, -2404, 2445, -923, -3586, 501, -94, 1102, 101, 106, 327, 267, 424, 257, 107, 88
213954286, 6160, -8067, -12635, -2404, 2445, -923, -3586, 501, -94, 1102, 108, 101, 237, 256, 437, 260, 111, 98
213955077, 6160, -8067, -12635, -2404, 2445, -923, -3586, 501, -94, 1102, 108, 101, 237, 256, 437, 260, 111, 98
213960094, 6160, -8067, -12635, -2404, 2445, -923, -3586, 501, -94, 1102, 108, 101, 237, 256, 437, 260, 111, 98
213960908, 6160, -8067, -12635, -2404, 2445, -923, -3586, 501, -94, 1102, 108, 101, 237, 256, 437, 260, 111, 98
213961696, 6160, -8067, -12635, -2404, 2445, -923, -3586, 501, -94, 1102, 108, 101, 237, 256, 437, 260, 111, 98
213962553, 6160, -8067, -12635, -2404, 2445, -923, -3586, 501, -94, 1102, 108, 101, 237, 256, 437, 260, 111, 98
213967472, 6160, -8067, -12635, -2404, 2445, -923, -3586, 501, -94, 1102, 108, 101, 237, 256, 437, 260, 111, 98
213968305, 6160, -8067, -12635, -2404, 2445, -923, -3586, 501, -94, 1102, 108, 101, 237, 256, 437, 260, 111, 98
213969095, 6160, -8067, -12635, -2404, 2445, -923, -3586, 501, -94, 1102, 108, 101, 237, 256, 437, 260, 111, 98
213969962, 6160, -8067, -12635, -2404, 2445, -923, -3586, 501, -94, 1102, 108, 101, 237, 256, 437, 260, 111, 98
213974971, 6160, -8067, -12635, -2404, 2445, -923, -3586, 501, -94, 1102, 108, 101, 237, 256, 437, 260, 111, 98
213975963, 6224, -8213, -12568, -2077, 2542, -1419, -3669, 1059, -106, 1259, 108, 101, 237, 256, 437, 260, 111, 98
213976768, 6224, -8213, -12568, -2077, 2542, -1419, -3669, 1059, -106, 1259, 113, 119, 250, 329, 406, 229, 114, 100
213977650, 6224, -8213, -12568, -2077, 2542, -1419, -3669, 1059, -106, 1259, 113, 119, 250, 329, 406, 229, 114, 100
213982569, 6224, -8213, -12568, -2077, 2542, -1419, -3669, 1059, -106, 1259, 113, 119, 250, 329, 406, 229, 114, 100
213983384, 6224, -8213, -12568, -2077, 2542, -1419, -3669, 1059, -106, 1259, 113, 119, 250, 329, 406, 229, 114, 100
213984174, 6224, -8213, -12568, -2077, 2542, -1419, -3669, 1059, -106, 1259, 113, 119, 250, 329, 406, 229, 114, 100
213984975, 6224, -8213, -12568, -2077, 2542, -1419, -3669, 1059, -106, 1259, 113, 119, 250, 329, 406, 229, 114, 100
213997494, 6224, -8213, -12568, -2077, 2542, -1419, -3669, 1059, -106, 1259, 113, 119, 250, 329, 406, 229, 114, 100
213998292, 6224, -8213, -12568, -2077, 2542, -1419, -3669, 1059, -106, 1259, 113, 119, 250, 329, 406, 229, 114, 100
213999118, 6224, -8213, -12568, -2077, 2542, -1419, -3669, 1059, -106, 1259, 113, 119, 250, 329, 406, 229, 114, 100
213999917, 6224, -8213, -12568, -2077, 2542, -1419, -3669, 1059, -106, 1259, 113, 119, 250, 329, 406, 229, 114, 100
214004985, 6224, -8213, -12568, -2077, 2542, -1419, -3669, 1059, -106, 1259, 113, 119, 250, 329, 406, 229, 114, 100
214005972, 6406, -8244, -12510, -1716, 2592, -1297, -3675, 1951, -17, 1155, 113, 119, 250, 329, 406, 229, 114, 100
214006759, 6406, -8244, -12510, -1716, 2592, -1297, -3675, 1951, -17, 1155, 128, 132, 232, 333, 402, 191, 113, 112
214007644, 6406, -8244, -12510, -1716, 2592, -1297, -3675, 1951, -17, 1155, 128, 132, 232, 333, 402, 191, 113, 112
214012623, 6406, -8244, -12510, -1716, 2592, -1297, -3675, 1951, -17, 1155, 128, 132, 232, 333, 402, 191, 113, 112
214013411, 6406, -8244, -12510, -1716, 2592, -1297, -3675, 1951, -17, 1155, 128, 132, 232, 333, 402, 191, 113, 112
214014196, 6406, -8244, -12510, -1716, 2592, -1297, -3675, 1951, -17, 1155, 128, 132, 232, 333, 402, 191, 113, 112
214015062, 6406, -8244, -12510, -1716, 2592, -1297, -3675, 1951, -17, 1155, 128, 132, 232, 333, 402, 191, 113, 112
214019971, 6406, -8244, -12510, -1716, 2592, -1297, -3675, 1951, -17, 1155, 128, 132, 232, 333, 402, 191, 113, 112
214020769, 6406, -8244, -12510, -1716, 2592, -1297, -3675, 1951, -17, 1155, 128, 132, 232, 333, 402, 191, 113, 112
214021622, 6406, -8244, -12510, -1716, 2592, -1297, -3675, 1951, -17, 1155, 128, 132, 232, 333, 402, 191, 113, 112
214022439, 6406, -8244, -12510, -1716, 2592, -1297, -3675, 1951, -17, 1155, 128, 132, 232, 333, 402, 191, 113, 112
214027471, 6406, -8244, -12510, -1716, 2592, -1297, -3675, 1951, -17, 1155, 128, 132, 232, 333, 402, 191, 113, 112
214028445, 6614, -8251, -12445, -1323, 2500, -1145, -3620, 2248, 40, 1184, 128, 132, 232, 333, 402, 191, 113, 112
214029221, 6614, -8251, -12445, -1323, 2500, -1145, -3620, 2248, 40, 1184, 166, 135, 211, 333, 399, 229, 126, 129
214030068, 6614, -8251, -12445, -1323, 2500, -1145, -3620, 2248, 40, 1184, 166, 135, 211, 333, 399, 229, 126, 129
214035046, 6614, -8251, -12445, -1323, 2500, -1145, -3620, 2248, 40, 1184, 166, 135, 211, 333, 399, 229, 126, 129
214035869, 6614, -8251, -12445, -1323, 2500, -1145, -3620, 2248, 40, 1184, 166, 135, 211, 333, 399, 229, 126, 129
214036668, 6614, -8251, -12445, -1323, 2500, -1145, -3620, 2248, 40, 1184, 166, 135, 211, 333, 399, 229, 126, 129
214037517, 6614, -8251, -12445, -1323, 2500, -1145, -3620, 2248, 40, 1184, 166, 135, 211, 333, 399, 229, 126, 129
214042496, 6614, -8251, -12445, -1323, 2500, -1145, -3620, 2248, 40, 1184, 166, 135, 211, 333, 399, 229, 126, 129
214043314, 6614, -8251, -12445, -1323, 2500, -1145, -3620, 2248, 40, 1184, 166, 135, 211, 333, 399, 229, 126, 129
214044127, 6614, -8251, -12445, -1323, 2500, -1145, -3620, 2248, 40, 1184, 166, 135, 211, 333, 399, 229, 126, 129
214044946, 6614, -8251, -12445, -1323, 2500, -1145, -3620, 2248, 40, 1184, 166, 135, 211, 333, 399, 229, 126, 129
214050003, 6614, -8251, -12445, -1323, 2500, -1145, -3620, 2248, 40, 1184, 166, 135, 211, 333, 399, 229, 126, 129
214050946, 6810, -8285, -12353, -913, 2461, -1409, -3455, 2212, -24, 1405, 166, 135, 211, 333, 399, 229, 126, 129
214051767, 6810, -8285, -12353, -913, 2461, -1409, -3455, 2212, -24, 1405, 203, 163, 219, 363, 392, 213, 121, 134
214052631, 6810, -8285, -12353, -913, 2461, -1409, -3455, 2212, -24, 1405, 203, 163, 219, 363, 392, 213, 121, 134
214057621, 6810, -8285, -12353, -913, 2461, -1409, -3455, 2212, -24, 1405, 203, 163, 219, 363, 392, 213, 121, 134
214058426, 6810, -8285, -12353, -913, 2461, -1409, -3455, 2212, -24, 1405, 203, 163, 219, 363, 392, 213, 121, 134
214059221, 6810, -8285, -12353, -913, 2461, -1409, -3455, 2212, -24, 1405, 203, 163, 219, 363, 392, 213, 121, 134
214060062, 6810, -8285, -12353, -913, 2461, -1409, -3455, 2212, -24, 1405, 203, 163, 219, 363, 392, 213, 121, 134
214064971, 6810, -8285, -12353, -913, 2461, -1409, -3455, 2212, -24, 1405, 203, 163, 219, 363, 392, 213, 121, 134
214065837, 6810, -8285, -12353, -913, 2461, -1409, -3455, 2212, -24, 1405, 203, 163, 219, 363, 392, 213, 121, 134
214066642, 6810, -8285, -12353, -913, 2461, -1409, -3455, 2212, -24, 1405, 203, 163, 219, 363, 392, 213, 121, 134
214067463, 6810, -8285, -12353, -913, 2461, -1409, -3455, 2212, -24, 1405, 203, 163, 219, 363, 392, 213, 121, 134
214072496, 6810, -8285, -12353, -913, 2461, -1409, -3455, 2212, -24, 1405, 203, 163, 219, 363, 392, 213, 121, 134
214073458, 6998, -8309, -12257, -447, 2499, -1552, -3405, 2459, -216, 1509, 203, 163, 219, 363, 392, 213, 121, 134
214074268, 6998, -8309, -12257, -447, 2499, -1552, -3405, 2459, -216, 1509, 254, 165, 215, 374, 372, 228, 123, 141
214075073, 6998, -8309, -12257, -447, 2499, -1552, -3405, 2459, -216, 1509, 254, 165, 215, 374, 372, 228, 123, 141
214080080, 6998, -8309, -12257, -447, 2499, -1552, -3405, 2459, -216, 1509, 254, 165, 215, 374, 372, 228, 123, 141
214080909, 6998, -8309, -12257, -447, 2499, -1552, -3405, 2459, -216, 1509, 254, 165, 215, 374, 372, 228, 123, 141
214081696, 6998, -8309, -12257, -447, 2499, -1552, -3405, 2459, -216, 1509, 254, 165, 215, 374, 372, 228, 123, 141
214082512, 6998, -8309, -12257, -447, 2499, -1552, -3405, 2459, -216, 1509, 254, 165, 215, 374, 372, 228, 123, 141
214087446, 6998, -8309, -12257, -447, 2499, -1552, -3405, 2459, -216, 1509, 254, 165, 215, 374, 372, 228, 123, 141
214088311, 6998, -8309, -12257, -447, 2499, -1552, -3405, 2459, -216, 1509, 254, 165, 215, 374, 372, 228, 123, 141
214089071, 6998, -8309, -12257, -447, 2499, -1552, -3405, 2459, -216, 1509, 254, 165, 215, 374, 372, 228, 123, 141
214089936, 6998, -8309, -12257, -447, 2499, -1552, -3405, 2459, -216, 1509, 254, 165, 215, 374, 372, 228, 123, 141
214095022, 6998, -8309, -12257, -447, 2499, -1552, -3405, 2459, -216, 1509, 254, 165, 215, 374, 372, 228, 123, 141
214095971, 7178, -8316, -12156, 50, 2428, -1547, -3364, 2630, -324, 1549, 254, 165, 215, 374, 372, 228, 123, 141
214096771, 7178, -8316, -12156, 50, 2428, -1547, -3364, 2630, -324, 1549, 306, 161, 192, 307, 342, 225, 125, 150
214097606, 7178, -8316, -12156, 50, 2428, -1547, -3364, 2630, -324, 1549, 306, 161, 192, 307, 342, 225, 125, 150
214102532, 7178, -8316, -12156, 50, 2428, -1547, -3364, 2630, -324, 1549, 306, 161, 192, 307, 342, 225, 125, 150
214103321, 7178, -8316, -12156, 50, 2428, -1547, -3364, 2630, -324, 1549, 306, 161, 192, 307, 342, 225, 125, 150
214104185, 7178, -8316, -12156, 50, 2428, -1547, -3364, 2630, -324, 1549, 306, 161, 192, 307, 342, 225, 125, 150
214105036, 7178, -8316, -12156, 50, 2428, -1547, -3364, 2630, -324, 1549, 306, 161, 192, 307, 342, 225, 125, 150
214110004, 7178, -8316, -12156, 50, 2428, -1547, -3364, 2630, -324, 1549, 306, 161, 192, 307, 342, 225, 125, 150
214110802, 7178, -8316, -12156, 50, 2428, -1547, -3364, 2630, -324, 1549, 306, 161, 192, 307, 342, 225, 125, 150
214111613, 7178, -8316, -12156, 50, 2428, -1547, -3364, 2630, -324, 1549, 306, 161, 192, 307, 342, 225, 125, 150
214112422, 7178, -8316, -12156, 50, 2428, -1547, -3364, 2630, -324, 1549, 306, 161, 192, 307, 342, 225, 125, 150
214117493, 7178, -8316, -12156, 50, 2428, -1547, -3364, 2630, -324, 1549, 306, 161, 192, 307, 342, 225, 125, 150
214118494, 7341, -8329, -12035, 580, 2275, -1775, -3249, 2717, -442, 1701, 306, 161, 192, 307, 342, 225, 125, 150
214119268, 7341, -8329, -12035, 580, 2275, -1775, -3249, 2717, -442, 1701, 327, 173, 180, 296, 340, 251, 133, 147
214120111, 7341, -8329, -12035, 580, 2275, -1775, -3249, 2717, -442, 1701, 327, 173, 180, 296, 340, 251, 133, 147
214125093, 7341, -8329, -12035, 580, 2275, -1775, -3249, 2717, -442, 1701, 327, 173, 180, 296, 340, 251, 133, 147
214125924, 7341, -8329, -12035, 580, 2275, -1775, -3249, 2717, -442, 1701, 327, 173, 180, 296, 340, 251, 133, 147
214126698, 7341, -8329, -12035, 580, 2275, -1775, -3249, 2717, -442, 1701, 327, 173, 180, 296, 340, 251, 133, 147
214127567, 7341, -8329, -12035, 580, 2275, -1775, -3249, 2717, -442, 1701, 327, 173, 180, 296, 340, 251, 133, 147
214132494, 7341, -8329, -12035, 580, 2275, -1775, -3249, 2717, -442, 1701, 327, 173, 180, 296, 340, 251, 133, 147
214133300, 7341, -8329, -12035, 580, 2275, -1775, -3249, 2717, -442, 1701, 327, 173, 180, 296, 340, 251, 133, 147
214134096, 7341, -8329, -12035, 580, 2275, -1775, -3249, 2717, -442, 1701, 327, 173, 180, 296, 340, 251, 133, 147
214134962, 7341, -8329, -12035, 580, 2275, -1775, -3249, 2717, -442, 1701, 327, 173, 180, 296, 340, 251, 133, 147
214139971, 7341, -8329, -12035, 580, 2275, -1775, -3249, 2717, -442, 1701, 327, 173, 180, 296, 340, 251, 133, 147
214140963, 7505, -8330, -11888, 1191, 2176, -1884, -3234, 3107, -602, 1948, 327, 173, 180, 296, 340, 251, 133, 147
214141742, 7505, -8330, -11888, 1191, 2176, -1884, -3234, 3107, -602, 1948, 330, 182, 186, 328, 343, 220, 117, 130
214142660, 7505, -8330, -11888, 1191, 2176, -1884, -3234, 3107, -602, 1948, 330, 182, 186, 328, 343, 220, 117, 130
214147546, 7505, -8330, -11888, 1191, 2176, -1884, -3234, 3107, -602, 1948, 330, 182, 186, 328, 343, 220, 117, 130
214148363, 7505, -8330, -11888, 1191, 2176, -1884, -3234, 3107, -602, 1948, 330, 182, 186, 328, 343, 220, 117, 130
214149172, 7505, -8330, -11888, 1191, 2176, -1884, -3234, 3107, -602, 1948, 330, 182, 186, 328, 343, 220, 117, 130
214149970, 7505, -8330, -11888, 1191, 2176, -1884, -3234, 3107, -602, 1948, 330, 182, 186, 328, 343, 220, 117, 130
214154939, 7505, -8330, -11888, 1191, 2176, -1884, -3234, 3107, -602, 1948, 330, 182, 186, 328, 343, 220, 117, 130
214155768, 7505, -8330, -11888, 1191, 2176, -1884, -3234, 3107, -602, 1948, 330, 182, 186, 328, 343, 220, 117, 130
214156613, 7505, -8330, -11888, 1191, 2176, -1884, -3234, 3107, -602, 1948, 330, 182, 186, 328, 343, 220, 117, 130
214157388, 7505, -8330, -11888, 1191, 2176, -1884, -3234, 3107, -602, 1948, 330, 182, 186, 328, 343, 220, 117, 130
214162521, 7505, -8330, -11888, 1191, 2176, -1884, -3234, 3107, -602, 1948, 330, 182, 186, 328, 343, 220, 117, 130
214163489, 7676, -8293, -11716, 1865, 2072, -1719, -3237, 3542, -705, 2053, 330, 182, 186, 328, 343, 220, 117, 130
214164271, 7676, -8293, -11716, 1865, 2072, -1719, -3237, 3542, -705, 2053, 340, 168, 148, 317, 368, 228, 119, 122
214165108, 7676, -8293, -11716, 1865, 2072, -1719, -3237, 3542, -705, 2053, 340, 168, 148, 317, 368, 228, 119, 122
214170089, 7676, -8293, -11716, 1865, 2072, -1719, -3237, 3542, -705, 2053, 340, 168, 148, 317, 368, 228, 119, 122
214170875, 7676, -8293, -11716, 1865, 2072, -1719, -3237, 3542, -705, 2053, 340, 168, 148, 317, 368, 228, 119, 122
214171695, 7676, -8293, -11716, 1865, 2072, -1719, -3237, 3542, -705, 2053, 340, 168, 148, 317, 368, 228, 119, 122
214172498, 7676, -8293, -11716, 1865, 2072, -1719, -3237, 3542, -705, 2053, 340, 168, 148, 317, 368, 228, 119, 122
214177470, 7676, -8293, -11716, 1865, 2072, -1719, -3237, 3542, -705, 2053, 340, 168, 148, 317, 368, 228, 119, 122
214178281, 7676, -8293, -11716, 1865, 2072, -1719, -3237, 3542, -705, 2053, 340, 168, 148, 317, 368, 228, 119, 122
214179098, 7676, -8293, -11716, 1865, 2072, -1719, -3237, 3542, -705, 2053, 340, 168, 148, 317, 368, 228, 119, 122
214179895, 7676, -8293, -11716, 1865, 2072, -1719, -3237, 3542, -705, 2053, 340, 168, 148, 317, 368, 228, 119, 122
214184999, 7676, -8293, -11716, 1865, 2072, -1719, -3237, 3542, -705, 2053, 340, 168, 148, 317, 368, 228, 119, 122
214185902, 7841, -8231, -11521, 2547, 1968, -1543, -3234, 3688, -707, 2071, 340, 168, 148, 317, 368, 228, 119, 122
214186715, 7841, -8231, -11521, 2547, 1968, -1543, -3234, 3688, -707, 2071, 346, 176, 135, 319, 357, 212, 114, 108
214187615, 7841, -8231, -11521, 2547, 1968, -1543, -3234, 3688, -707, 2071, 346, 176, 135, 319, 357, 212, 114, 108
214192623, 7841, -8231, -11521, 2547, 1968, -1543, -3234, 3688, -707, 2071, 346, 176, 135, 319, 357, 212, 114, 108
214193368, 7841, -8231, -11521, 2547, 1968, -1543, -3234, 3688, -707, 2071, 346, 176, 135, 319, 357, 212, 114, 108
214194187, 7841, -8231, -11521, 2547, 1968, -1543, -3234, 3688, -707, 2071, 346, 176, 135, 319, 357, 212, 114, 108
214195012, 7841, -8231, -11521, 2547, 1968, -1543, -3234, 3688, -707, 2071, 346, 176, 135, 319, 357, 212, 114, 108
214199984, 7841, -8231, -11521, 2547, 1968, -1543, -3234, 3688, -707, 2071, 346, 176, 135, 319, 357, 212, 114, 108
214200773, 7841, -8231, -11521, 2547, 1968, -1543, -3234, 3688, -707, 2071, 346, 176, 135, 319, 357, 212, 114, 108
214201662, 7841, -8231, -11521, 2547, 1968, -1543, -3234, 3688, -707, 2071, 346, 176, 135, 319, 357, 212, 114, 108
214202421, 7841, -8231, -11521, 2547, 1968, -1543, -3234, 3688, -707, 2071, 346, 176, 135, 319, 357, 212, 114, 108
214207484, 7841, -8231, -11521, 2547, 1968, -1543, -3234, 3688, -707, 2071, 346, 176, 135, 319, 357, 212, 114, 108
214208405, 7999, -8157, -11304, 3185, 1861, -1479, -3119, 3568, -562, 1993, 346, 176, 135, 319, 357, 212, 114, 108
214209261, 7999, -8157, -11304, 3185, 1861, -1479, -3119, 3568, -562, 1993, 334, 175, 121, 321, 358, 208, 104, 101
214210069, 7999, -8157, -11304, 3185, 1861, -1479, -3119, 3568, -562, 1993, 334, 175, 121, 321, 358, 208, 104, 101
214215073, 7999, -8157, -11304, 3185, 1861, -1479, -3119, 3568, -562, 1993, 334, 175, 121, 321, 358, 208, 104, 101
214215870, 7999, -8157, -11304, 3185, 1861, -1479, -3119, 3568, -562, 1993, 334, 175, 121, 321, 358, 208, 104, 101
214216668, 7999, -8157, -11304, 3185, 1861, -1479, -3119, 3568, -562, 1993, 334, 175, 121, 321, 358, 208, 104, 101
214217496, 7999, -8157, -11304, 3185, 1861, -1479, -3119, 3568, -562, 1993, 334, 175, 121, 321, 358, 208, 104, 101
214222531, 7999, -8157, -11304, 3185, 1861, -1479, -3119, 3568, -562, 1993, 334, 175, 121, 321, 358, 208, 104, 101
214223324, 7999, -8157, -11304, 3185, 1861, -1479, -3119, 3568, -562, 1993, 334, 175, 121, 321, 358, 208, 104, 101
214224148, 7999, -8157, -11304, 3185, 1861, -1479, -3119, 3568, -562, 1993, 334, 175, 121, 321, 358, 208, 104, 101
214224947, 7999, -8157, -11304, 3185, 1861, -1479, -3119, 3568, -562, 1993, 334, 175, 121, 321, 358, 208, 104, 101
214230013, 7999, -8157, -11304, 3185, 1861, -1479, -3119, 3568, -562, 1993, 334, 175, 121, 321, 358, 208, 104, 101
214230925, 8146, -8067, -11085, 3759, 1759, -1231, -2967, 3367, -448, 1793, 334, 175, 121, 321, 358, 208, 104, 101
214231746, 8146, -8067, -11085, 3759, 1759, -1231, -2967, 3367, -448, 1793, 385, 179, 117, 347, 367, 190, 98, 130
214232628, 8146, -8067, -11085, 3759, 1759, -1231, -2967, 3367, -448, 1793, 385, 179, 117, 347, 367, 190, 98, 130
214237662, 8146, -8067, -11085, 3759, 1759, -1231, -2967, 3367, -448, 1793, 385, 179, 117, 347, 367, 190, 98, 130
214238399, 8146, -8067, -11085, 3759, 1759, -1231, -2967, 3367, -448, 1793, 385, 179, 117, 347, 367, 190, 98, 130
214239261, 8146, -8067, -11085, 3759, 1759, -1231, -2967, 3367, -448, 1793, 385, 179, 117, 347, 367, 190, 98, 130
214240027, 8146, -8067, -11085, 3759, 1759, -1231, -2967, 3367, -448, 1793, 385, 179, 117, 347, 367, 190, 98, 130
214244972, 8146, -8067, -11085, 3759, 1759, -1231, -2967, 3367, -448, 1793, 385, 179, 117, 347, 367, 190, 98, 130
214245836, 8146, -8067, -11085, 3759, 1759, -1231, -2967, 3367, -448, 1793, 385, 179, 117, 347, 367, 190, 98, 130
214246643, 8146, -8067, -11085, 3759, 1759, -1231, -2967, 3367, -448, 1793, 385, 179, 117, 347, 367, 190, 98, 130
214247453, 8146, -8067, -11085, 3759, 1759, -1231, -2967, 3367, -448, 1793, 385, 179, 117, 347, 367, 190, 98, 130
214252503, 8146, -8067, -11085, 3759, 1759, -1231, -2967, 3367, -448, 1793, 385, 179, 117, 347, 367, 190, 98, 130
214253431, 8260, -7994, -10874, 4251, 1712, -1116, -2772, 2909, -358, 1658, 385, 179, 117, 347, 367, 190, 98, 130
214254248, 8260, -7994, -10874, 4251, 1712, -1116, -2772, 2909, -358, 1658, 491, 203, 107, 358, 355, 190, 101, 162
214255044, 8260, -7994, -10874, 4251, 1712, -1116, -2772, 2909, -358, 1658, 491, 203, 107, 358, 355, 190, 101, 162
214260070, 8260, -7994, -10874, 4251, 1712, -1116, -2772, 2909, -358, 1658, 491, 203, 107, 358, 355, 190, 101, 162
214260911, 8260, -7994, -10874, 4251, 1712, -1116, -2772, 2909, -358, 1658, 491, 203, 107, 358, 355, 190, 101, 162
214261718, 8260, -7994, -10874, 4251, 1712, -1116, -2772, 2909, -358, 1658, 491, 203, 107, 358, 355, 190, 101, 162
214262511, 8260, -7994, -10874, 4251, 1712, -1116, -2772, 2909, -358, 1658, 491, 203, 107, 358, 355, 190, 101, 162
214265267, 8260, -7994, -10874, 4251, 1712, -1116, -2772, 2909, -358, 1658, 491, 203, 107, 358, 355, 190, 101, 162
214275048, 8260, -7994, -10874, 4251, 1712, -1116, -2772, 2909, -358, 1658, 491, 203, 107, 358, 355, 190, 101, 162
214275821, 8260, -7994, -10874, 4251, 1712, -1116, -2772, 2909, -358, 1658, 491, 203, 107, 358, 355, 190, 101, 162
214276686, 8260, -7994, -10874, 4251, 1712, -1116, -2772, 2909, -358, 1658, 491, 203, 107, 358, 355, 190, 101, 162
214277449, 8260, -7994, -10874, 4251, 1712, -1116, -2772, 2909, -358, 1658, 491, 203, 107, 358, 355, 190, 101, 162
214282663, 8345, -7920, -10688, 4676, 1721, -1101, -2637, 2549, -361, 1456, 491, 203, 107, 358, 355, 190, 101, 162
214283423, 8345, -7920, -10688, 4676, 1721, -1101, -2637, 2549, -361, 1456, 500, 205, 102, 333, 342, 210, 113, 169
214284249, 8345, -7920, -10688, 4676, 1721, -1101, -2637, 2549, -361, 1456, 500, 205, 102, 333, 342, 210, 113, 169
214285042, 8345, -7920, -10688, 4676, 1721, -1101, -2637, 2549, -361, 1456, 500, 205, 102, 333, 342, 210, 113, 169
214290011, 8345, -7920, -10688, 4676, 1721, -1101, -2637, 2549, -361, 1456, 500, 205, 102, 333, 342, 210, 113, 169
214290796, 8345, -7920, -10688, 4676, 1721, -1101, -2637, 2549, -361, 1456, 500, 205, 102, 333, 342, 210, 113, 169
214291662, 8345, -7920, -10688, 4676, 1721, -1101, -2637, 2549, -361, 1456, 500, 205, 102, 333, 342, 210, 113, 169
214292423, 8345, -7920, -10688, 4676, 1721, -1101, -2637, 2549, -361, 1456, 500, 205, 102, 333, 342, 210, 113, 169
214297506, 8345, -7920, -10688, 4676, 1721, -1101, -2637, 2549, -361, 1456, 500, 205, 102, 333, 342, 210, 113, 169
214298428, 8415, -7832, -10535, 5030, 1685, -965, -2540, 2241, -347, 1148, 500, 205, 102, 333, 342, 210, 113, 169
214299285, 8415, -7832, -10535, 5030, 1685, -965, -2540, 2241, -347, 1148, 480, 203, 101, 308, 322, 210, 117, 173
214300093, 8415, -7832, -10535, 5030, 1685, -965, -2540, 2241, -347, 1148, 480, 203, 101, 308, 322, 210, 117, 173
214305083, 8415, -7832, -10535, 5030, 1685, -965, -2540, 2241, -347, 1148, 480, 203, 101, 308, 322, 210, 117, 173
214305878, 8415, -7832, -10535, 5030, 1685, -965, -2540, 2241, -347, 1148, 480, 203, 101, 308, 322, 210, 117, 173
214306736, 8415, -7832, -10535, 5030, 1685, -965, -2540, 2241, -347, 1148, 480, 203, 101, 308, 322, 210, 117, 173
214307521, 8415, -7832, -10535, 5030, 1685, -965, -2540, 2241, -347, 1148, 480, 203, 101, 308, 322, 210, 117, 173
214312468, 8415, -7832, -10535, 5030, 1685, -965, -2540, 2241, -347, 1148, 480, 203, 101, 308, 322, 210, 117, 173
214313271, 8415, -7832, -10535, 5030, 1685, -965, -2540, 2241, -347, 1148, 480, 203, 101, 308, 322, 210, 117, 173
214314136, 8415, -7832, -10535, 5030, 1685, -965, -2540, 2241, -347, 1148, 480, 203, 101, 308, 322, 210, 117, 173
214314918, 8415, -7832, -10535, 5030, 1685, -965, -2540, 2241, -347, 1148, 480, 203, 101, 308, 322, 210, 117, 173
214319999, 8415, -7832, -10535, 5030, 1685, -965, -2540, 2241, -347, 1148, 480, 203, 101, 308, 322, 210, 117, 173
214320898, 8451, -7759, -10428, 5297, 1653, -917, -2377, 1711, -347, 888, 480, 203, 101, 308, 322, 210, 117, 173
214321747, 8451, -7759, -10428, 5297, 1653, -917, -2377, 1711, -347, 888, 512, 213, 116, 317, 333, 216, 113, 169
214322620, 8451, -7759, -10428, 5297, 1653, -917, -2377, 1711, -347, 888, 512, 213, 116, 317, 333, 216, 113, 169
214327543, 8451, -7759, -10428, 5297, 1653, -917, -2377, 1711, -347, 888, 512, 213, 116, 317, 333, 216, 113, 169
214328344, 8451, -7759, -10428, 5297, 1653, -917, -2377, 1711, -347, 888, 512, 213, 116, 317, 333, 216, 113, 169
214329198, 8451, -7759, -10428, 5297, 1653, -917, -2377, 1711, -347, 888, 512, 213, 116, 317, 333, 216, 113, 169
214329995, 8451, -7759, -10428, 5297, 1653, -917, -2377, 1711, -347, 888, 512, 213, 116, 317, 333, 216, 113, 169
214334737, 8451, -7759, -10428, 5297, 1653, -917, -2377, 1711, -347, 888, 512, 213, 116, 317, 333, 216, 113, 169
214335636, 8451, -7759, -10428, 5297, 1653, -917, -2377, 1711, -347, 888, 512, 213, 116, 317, 333, 216, 113, 169
214336398, 8451, -7759, -10428, 5297, 1653, -917, -2377, 1711, -347, 888, 512, 213, 116, 317, 333, 216, 113, 169
214337236, 8451, -7759, -10428, 5297, 1653, -917, -2377, 1711, -347, 888, 512, 213, 116, 317, 333, 216, 113, 169
214342496, 8451, -7759, -10428, 5297, 1653, -917, -2377, 1711, -347, 888, 512, 213, 116, 317, 333, 216, 113, 169
214343480, 8410, -7709, -10474, 5348, 1668, -947, -2337, 1148, -297, 571, 512, 213, 116, 317, 333, 216, 113, 169
214344246, 8410, -7709, -10474, 5348, 1668, -947, -2337, 1148, -297, 571, 481, 201, 111, 309, 325, 211, 104, 149
214345111, 8410, -7709, -10474, 5348, 1668, -947, -2337, 1148, -297, 571, 512, 213, 116, 317, 333, 216, 113, 169
214350071, 8410, -7709, -10474, 5348, 1668, -947, -2337, 1148, -297, 571, 481, 201, 111, 309, 325, 211, 104, 149
214350923, 8410, -7709, -10474, 5348, 1668, -947, -2337, 1148, -297, 571, 481, 201, 111, 309, 325, 211, 104, 149
214351695, 8410, -7709, -10474, 5348, 1668, -947, -2337, 1148, -297, 571, 481, 201, 111, 309, 325, 211, 104, 149
214352537, 8410, -7709, -10474, 5348, 1668, -947, -2337, 1148, -297, 571, 481, 201, 111, 309, 325, 211, 104, 149
214357470, 8410, -7709, -10474, 5348, 1668, -947, -2337, 1148, -297, 571, 481, 201, 111, 309, 325, 211, 104, 149
214358268, 8410, -7709, -10474, 5348, 1668, -947, -2337, 1148, -297, 571, 481, 201, 111, 309, 325, 211, 104, 149
214359072, 8410, -7709, -10474, 5348, 1668, -947, -2337, 1148, -297, 571, 481, 201, 111, 309, 325, 211, 104, 149
214359896, 8410, -7709, -10474, 5348, 1668, -947, -2337, 1148, -297, 571, 481, 201, 111, 309, 325, 211, 104, 149
214364995, 8410, -7709, -10474, 5348, 1668, -947, -2337, 1148, -297, 571, 481, 201, 111, 309, 325, 211, 104, 149
214365920, 8359, -7669, -10548, 5338, 1656, -1006, -2195, 745, -265, 352, 481, 201, 111, 309, 325, 211, 104, 149
214366764, 8359, -7669, -10548, 5338, 1656, -1006, -2195, 745, -265, 352, 360, 170, 109, 285, 309, 211, 132, 128
