Timestamp, Orientation x, Orientation y, Orientation z, Orientation w, Acceleration x, Acceleration y, Acceleration z, Rotation x, Rotation y, Rotation z, EMG 0, EMG 1, EMG 2, EMG 3, EMG 4, EMG 5, EMG 6, EMG 7
162051437, -7875, 6058, 12667, 3043, 3954, -302, -2087, -14, -21, 23, 0, 0, 0, 0, 0, 0, 0, 0
162052228, -7875, 6058, 12667, 3042, 3957, -283, -2072, 6, -20, 17, 0, 0, 0, 0, 0, 0, 0, 0
162058254, -7874, 6059, 12667, 3043, 3960, -272, -2083, -5, -17, 18, 0, 0, 0, 0, 0, 0, 0, 0
162080763, -7874, 6059, 12667, 3044, 3959, -290, -2098, -16, -14, 15, 0, 0, 0, 0, 0, 0, 0, 0
162103273, -7874, 6059, 12667, 3044, 3977, -305, -2084, -6, -11, 7, 0, 0, 0, 0, 0, 0, 0, 0
162119532, -7874, 6059, 12667, 3044, 3977, -305, -2084, -6, -11, 7, 24, 25, 30, 45, 110, 52, 24, 29
162120388, -7874, 6059, 12667, 3044, 3977, -305, -2084, -6, -11, 7, 24, 25, 30, 45, 110, 52, 24, 29
162121286, -7876, 6056, 12667, 3043, 3948, -293, -2078, 20, -10, -1, 24, 25, 30, 45, 110, 52, 24, 29
162149569, -7876, 6056, 12667, 3043, 3948, -293, -2078, 20, -10, -1, 24, 27, 37, 56, 124, 61, 26, 29
162150395, -7876, 6056, 12667, 3043, 3948, -293, -2078, 20, -10, -1, 24, 27, 37, 56, 124, 61, 26, 29
162151311, -7875, 6052, 12671, 3040, 3956, -282, -2110, 31, -12, -9, 24, 27, 37, 56, 124, 61, 26, 29
162164536, -7875, 6052, 12671, 3040, 3956, -282, -2110, 31, -12, -9, 27, 31, 56, 94, 173, 94, 31, 31
162165385, -7875, 6052, 12671, 3040, 3956, -282, -2110, 31, -12, -9, 27, 31, 56, 94, 173, 94, 31, 31
162166286, -7876, 6046, 12673, 3039, 3951, -290, -2095, 27, -3, -16, 27, 31, 56, 94, 173, 94, 31, 31
162179542, -7876, 6046, 12673, 3039, 3951, -290, -2095, 27, -3, -16, 25, 31, 58, 117, 161, 100, 30, 27
162180319, -7876, 6046, 12673, 3039, 3951, -290, -2095, 27, -3, -16, 25, 31, 58, 117, 161, 100, 30, 27
162181281, -7879, 6039, 12675, 3036, 3950, -300, -2094, 44, 1, -25, 25, 31, 58, 117, 161, 100, 30, 27
162202086, -7879, 6039, 12675, 3036, 3950, -300, -2094, 44, 1, -25, 26, 48, 69, 129, 170, 109, 32, 27
162202935, -7879, 6039, 12675, 3036, 3950, -300, -2094, 44, 1, -25, 26, 48, 69, 129, 170, 109, 32, 27
162203829, -7881, 6026, 12682, 3028, 3938, -280, -2105, 84, -12, -35, 26, 48, 69, 129, 170, 109, 32, 27
162224555, -7881, 6026, 12682, 3028, 3938, -280, -2105, 84, -12, -35, 27, 53, 80, 140, 189, 119, 33, 26
162225406, -7881, 6026, 12682, 3028, 3938, -280, -2105, 84, -12, -35, 27, 53, 80, 140, 189, 119, 33, 26
162226330, -7883, 6015, 12688, 3019, 3958, -296, -2092, 78, -18, -31, 27, 53, 80, 140, 189, 119, 33, 26
162239597, -7883, 6015, 12688, 3019, 3958, -296, -2092, 78, -18, -31, 32, 74, 103, 153, 271, 184, 45, 25
162240409, -7883, 6015, 12688, 3019, 3958, -296, -2092, 78, -18, -31, 32, 74, 103, 153, 271, 184, 45, 25
162241336, -7889, 6001, 12693, 3012, 3958, -295, -2089, 90, 3, -41, 32, 74, 103, 153, 271, 184, 45, 25
162262065, -7889, 6001, 12693, 3012, 3958, -295, -2089, 90, 3, -41, 42, 90, 189, 195, 314, 231, 58, 30
162262974, -7889, 6001, 12693, 3012, 3958, -295, -2089, 90, 3, -41, 42, 90, 189, 195, 314, 231, 58, 30
162263808, -7892, 5986, 12700, 3004, 3941, -292, -2100, 93, -7, -48, 42, 90, 189, 195, 314, 231, 58, 30
162284508, -7892, 5986, 12700, 3004, 3941, -292, -2100, 93, -7, -48, 48, 99, 198, 196, 363, 251, 62, 35
162285356, -7892, 5986, 12700, 3004, 3941, -292, -2100, 93, -7, -48, 48, 99, 198, 196, 363, 251, 62, 35
162286261, -7897, 5967, 12707, 2998, 3966, -301, -2093, 87, -1, -76, 48, 99, 198, 196, 363, 251, 62, 35
162299576, -7897, 5967, 12707, 2998, 3966, -301, -2093, 87, -1, -76, 52, 103, 206, 217, 446, 277, 65, 37
162300367, -7897, 5967, 12707, 2998, 3966, -301, -2093, 87, -1, -76, 52, 103, 206, 217, 446, 277, 65, 37
162301311, -7904, 5951, 12711, 2993, 3956, -294, -2089, 88, 18, -55, 52, 103, 206, 217, 446, 277, 65, 37
162322050, -7904, 5951, 12711, 2993, 3956, -294, -2089, 88, 18, -55, 57, 112, 300, 236, 599, 318, 71, 51
162322939, -7904, 5951, 12711, 2993, 3956, -294, -2089, 88, 18, -55, 57, 112, 300, 236, 599, 318, 71, 51
162323816, -7907, 5942, 12714, 2991, 3959, -295, -2114, 41, 20, -36, 57, 112, 300, 236, 599, 318, 71, 51
162344558, -7907, 5942, 12714, 2991, 3959, -295, -2114, 41, 20, -36, 87, 141, 363, 313, 590, 314, 76, 76
162345423, -7907, 5942, 12714, 2991, 3959, -295, -2114, 41, 20, -36, 87, 141, 363, 313, 590, 314, 76, 76
162346312, -7912, 5932, 12715, 2995, 4000, -320, -2119, 20, 38, -62, 87, 141, 363, 313, 590, 314, 76, 76
162358862, -7912, 5932, 12715, 2995, 4000, -320, -2119, 20, 38, -62, 205, 287, 573, 388, 581, 303, 110, 106
162359659, -7912, 5932, 12715, 2995, 4000, -320, -2119, 20, 38, -62, 205, 287, 573, 388, 581, 303, 110, 106
162365811, -7925, 5903, 12714, 3019, 3998, -220, -2075, 12, 121, -143, 205, 287, 573, 388, 581, 303, 110, 106
162382086, -7925, 5903, 12714, 3019, 3998, -220, -2075, 12, 121, -143, 334, 445, 723, 611, 647, 376, 159, 195
162382970, -7925, 5903, 12714, 3019, 3998, -220, -2075, 12, 121, -143, 334, 445, 723, 611, 647, 376, 159, 195
162383814, -7965, 5819, 12726, 3027, 4003, -226, -2020, 290, 215, -353, 334, 445, 723, 611, 647, 376, 159, 195
162404580, -8043, 5652, 12758, 3005, 4169, -91, -2106, 783, 382, -567, 334, 445, 723, 611, 647, 376, 159, 195
162405399, -8043, 5652, 12758, 3005, 4169, -91, -2106, 783, 382, -567, 438, 614, 903, 770, 665, 556, 191, 244
162406158, -8043, 5652, 12758, 3005, 4169, -91, -2106, 783, 382, -567, 438, 614, 903, 770, 665, 556, 191, 244
162427095, -8171, 5489, 12760, 2951, 4014, -283, -1885, 916, 578, -461, 438, 614, 903, 770, 665, 556, 191, 244
162427947, -8171, 5489, 12760, 2951, 4014, -283, -1885, 916, 578, -461, 523, 688, 1009, 846, 607, 608, 230, 350
162428698, -8171, 5489, 12760, 2951, 4014, -283, -1885, 916, 578, -461, 523, 688, 1009, 846, 607, 608, 230, 350
162442073, -8292, 5383, 12761, 2801, 4311, -833, -2109, 1052, 375, -185, 523, 688, 1009, 846, 607, 608, 230, 350
162442934, -8292, 5383, 12761, 2801, 4311, -833, -2109, 1052, 375, -185, 606, 811, 1217, 956, 748, 687, 325, 453
162443663, -8292, 5383, 12761, 2801, 4311, -833, -2109, 1052, 375, -185, 606, 811, 1217, 956, 748, 687, 325, 453
162464535, -8310, 5401, 12759, 2720, 3639, -431, -2246, 325, 178, 265, 606, 811, 1217, 956, 748, 687, 325, 453
162465317, -8310, 5401, 12759, 2720, 3639, -431, -2246, 325, 178, 265, 647, 855, 1227, 1051, 739, 756, 364, 506
162466137, -8310, 5401, 12759, 2720, 3639, -431, -2246, 325, 178, 265, 647, 855, 1227, 1051, 739, 756, 364, 506
162487085, -8271, 5374, 12760, 2883, 3933, 55, -1835, -633, 134, -463, 647, 855, 1227, 1051, 739, 756, 364, 506
162487962, -8271, 5374, 12760, 2883, 3933, 55, -1835, -633, 134, -463, 622, 832, 1232, 1010, 727, 725, 350, 516
162488636, -8271, 5374, 12760, 2883, 3933, 55, -1835, -633, 134, -463, 622, 832, 1232, 1010, 727, 725, 350, 516
162502071, -8332, 5392, 12741, 2754, 3997, -934, -1760, 451, -2, 228, 622, 832, 1232, 1010, 727, 725, 350, 516
162502935, -8332, 5392, 12741, 2754, 3997, -934, -1760, 451, -2, 228, 616, 790, 1190, 903, 753, 596, 337, 502
162503612, -8332, 5392, 12741, 2754, 3997, -934, -1760, 451, -2, 228, 616, 790, 1190, 903, 753, 596, 337, 502
162524600, -8326, 5310, 12808, 2616, 3723, 80, -2057, 997, -262, 116, 616, 790, 1190, 903, 753, 596, 337, 502
162525395, -8326, 5310, 12808, 2616, 3723, 80, -2057, 997, -262, 116, 651, 842, 1114, 925, 876, 767, 358, 461
162526227, -8326, 5310, 12808, 2616, 3723, 80, -2057, 997, -262, 116, 651, 842, 1114, 925, 876, 767, 358, 461
162547063, -8301, 5319, 12838, 2531, 4063, -90, -2050, 404, -331, 356, 651, 842, 1114, 925, 876, 767, 358, 461
162547933, -8301, 5319, 12838, 2531, 4063, -90, -2050, 404, -331, 356, 655, 805, 969, 822, 860, 753, 289, 376
162548641, -8301, 5319, 12838, 2531, 4063, -90, -2050, 404, -331, 356, 655, 805, 969, 822, 860, 753, 289, 376
162562039, -8275, 5346, 12852, 2491, 4051, -177, -1972, 119, -270, 305, 655, 805, 969, 822, 860, 753, 289, 376
162562850, -8275, 5346, 12852, 2491, 4051, -177, -1972, 119, -270, 305, 816, 991, 966, 722, 1114, 919, 282, 400
162563660, -8275, 5346, 12852, 2491, 4051, -177, -1972, 119, -270, 305, 816, 991, 966, 722, 1114, 919, 282, 400
162584561, -8226, 5407, 12854, 2509, 3994, -224, -1925, -294, -284, 264, 816, 991, 966, 722, 1114, 919, 282, 400
162585423, -8226, 5407, 12854, 2509, 3994, -224, -1925, -294, -284, 264, 852, 1010, 988, 735, 1112, 979, 295, 365
162586211, -8226, 5407, 12854, 2509, 3994, -224, -1925, -294, -284, 264, 852, 1010, 988, 735, 1112, 979, 295, 365
162598243, -8149, 5508, 12857, 2527, 3984, -474, -2056, -519, -406, 293, 852, 1010, 988, 735, 1112, 979, 295, 365
162606359, -8149, 5508, 12857, 2527, 3984, -474, -2056, -519, -406, 293, 996, 1068, 916, 744, 1130, 1012, 301, 377
162607158, -8149, 5508, 12857, 2527, 3984, -474, -2056, -519, -406, 293, 996, 1068, 916, 744, 1130, 1012, 301, 377
162622058, -8055, 5610, 12877, 2499, 4011, -430, -2339, -309, -517, 412, 996, 1068, 916, 744, 1130, 1012, 301, 377
162622930, -8055, 5610, 12877, 2499, 4011, -430, -2339, -309, -517, 412, 1036, 1047, 957, 647, 1124, 908, 258, 357
162623608, -8055, 5610, 12877, 2499, 4011, -430, -2339, -309, -517, 412, 1036, 1047, 957, 647, 1124, 908, 258, 357
162644612, -7966, 5716, 12886, 2496, 3982, -217, -2498, -364, -364, 500, 1036, 1047, 957, 647, 1124, 908, 258, 357
162645383, -7966, 5716, 12886, 2496, 3982, -217, -2498, -364, -364, 500, 1004, 1022, 853, 674, 1136, 898, 251, 340
162646249, -7966, 5716, 12886, 2496, 3982, -217, -2498, -364, -364, 500, 1004, 1022, 853, 674, 1136, 898, 251, 340
162658185, -7924, 5857, 12830, 2595, 3767, -164, -2121, -871, 62, 551, 1004, 1022, 853, 674, 1136, 898, 251, 340
162666398, -7924, 5857, 12830, 2595, 3767, -164, -2121, -871, 62, 551, 842, 771, 711, 672, 957, 700, 193, 219
162667159, -7924, 5857, 12830, 2595, 3767, -164, -2121, -871, 62, 551, 842, 771, 711, 672, 957, 700, 193, 219
162682101, -7866, 5979, 12773, 2764, 3974, 135, -2130, -1098, 100, 404, 842, 771, 711, 672, 957, 700, 193, 219
162682933, -7866, 5979, 12773, 2764, 3974, 135, -2130, -1098, 100, 404, 784, 698, 617, 618, 936, 639, 177, 212
162683715, -7866, 5979, 12773, 2764, 3974, 135, -2130, -1098, 100, 404, 784, 698, 617, 618, 936, 639, 177, 212
162704562, -7859, 6010, 12733, 2901, 4345, -366, -1948, -750, 117, -150, 784, 698, 617, 618, 936, 639, 177, 212
162705333, -7859, 6010, 12733, 2901, 4345, -366, -1948, -750, 117, -150, 552, 609, 770, 662, 859, 599, 184, 242
162706184, -7859, 6010, 12733, 2901, 4345, -366, -1948, -750, 117, -150, 552, 609, 770, 662, 859, 599, 184, 242
162718206, -7915, 5936, 12735, 2893, 4099, -598, -2113, 284, 252, -371, 552, 609, 770, 662, 859, 599, 184, 242
162726357, -7915, 5936, 12735, 2893, 4099, -598, -2113, 284, 252, -371, 427, 650, 961, 843, 715, 528, 236, 316
162727223, -7915, 5936, 12735, 2893, 4099, -598, -2113, 284, 252, -371, 427, 650, 961, 843, 715, 528, 236, 316
162742061, -8030, 5765, 12754, 2839, 4027, -296, -2027, 958, 476, -500, 427, 650, 961, 843, 715, 528, 236, 316
162742972, -8030, 5765, 12754, 2839, 4027, -296, -2027, 958, 476, -500, 457, 727, 1118, 903, 579, 571, 323, 397
162743725, -8030, 5765, 12754, 2839, 4027, -296, -2027, 958, 476, -500, 457, 727, 1118, 903, 579, 571, 323, 397
162764562, -8176, 5554, 12746, 2874, 4160, 196, -1727, 815, 763, -609, 457, 727, 1118, 903, 579, 571, 323, 397
162765351, -8176, 5554, 12746, 2874, 4160, 196, -1727, 815, 763, -609, 538, 830, 1253, 968, 471, 614, 453, 528
162766184, -8176, 5554, 12746, 2874, 4160, 196, -1727, 815, 763, -609, 538, 830, 1253, 968, 471, 614, 453, 528
162778257, -8290, 5414, 12731, 2881, 3760, -93, -1549, 596, 571, -405, 538, 830, 1253, 968, 471, 614, 453, 528
162786323, -8290, 5414, 12731, 2881, 3760, -93, -1549, 596, 571, -405, 654, 978, 1315, 1004, 463, 644, 465, 551
162787175, -8290, 5414, 12731, 2881, 3760, -93, -1549, 596, 571, -405, 654, 978, 1315, 1004, 463, 644, 465, 551
162802011, -8305, 5346, 12751, 2878, 4159, -265, -1803, 247, -3, -307, 654, 978, 1315, 1004, 463, 644, 465, 551
162802878, -8305, 5346, 12751, 2878, 4159, -265, -1803, 247, -3, -307, 674, 1011, 1309, 1043, 484, 749, 490, 543
162803647, -8305, 5346, 12751, 2878, 4159, -265, -1803, 247, -3, -307, 674, 1011, 1309, 1043, 484, 749, 490, 543
162824571, -8305, 5457, 12709, 2857, 3992, -1084, -1895, -457, -24, 212, 674, 1011, 1309, 1043, 484, 749, 490, 543
162825401, -8305, 5457, 12709, 2857, 3992, -1084, -1895, -457, -24, 212, 643, 1007, 1203, 1058, 564, 836, 530, 512
162826186, -8305, 5457, 12709, 2857, 3992, -1084, -1895, -457, -24, 212, 643, 1007, 1203, 1058, 564, 836, 530, 512
162838239, -8279, 5464, 12712, 2907, 3782, -216, -1900, -268, 21, -122, 643, 1007, 1203, 1058, 564, 836, 530, 512
162846314, -8279, 5464, 12712, 2907, 3782, -216, -1900, -268, 21, -122, 642, 971, 1155, 1028, 583, 849, 526, 482
162847158, -8279, 5464, 12712, 2907, 3782, -216, -1900, -268, 21, -122, 642, 971, 1155, 1028, 583, 849, 526, 482
162862036, -8328, 5453, 12715, 2768, 4003, -1036, -1874, 562, -56, 34, 642, 971, 1155, 1028, 583, 849, 526, 482
162862840, -8328, 5453, 12715, 2768, 4003, -1036, -1874, 562, -56, 34, 655, 1007, 1210, 971, 658, 868, 467, 386
162863659, -8328, 5453, 12715, 2768, 4003, -1036, -1874, 562, -56, 34, 655, 1007, 1210, 971, 658, 868, 467, 386
162884559, -8360, 5324, 12782, 2608, 3846, -44, -2226, 1275, -28, -40, 655, 1007, 1210, 971, 658, 868, 467, 386
162885422, -8360, 5324, 12782, 2608, 3846, -44, -2226, 1275, -28, -40, 580, 908, 1239, 985, 669, 824, 451, 378
162886183, -8360, 5324, 12782, 2608, 3846, -44, -2226, 1275, -28, -40, 580, 908, 1239, 985, 669, 824, 451, 378
162898273, -8352, 5282, 12810, 2583, 3977, 158, -2221, 381, 35, 97, 580, 908, 1239, 985, 669, 824, 451, 378
162906361, -8352, 5282, 12810, 2583, 3977, 158, -2221, 381, 35, 97, 554, 857, 1231, 961, 709, 716, 418, 365
162907151, -8352, 5282, 12810, 2583, 3977, 158, -2221, 381, 35, 97, 554, 857, 1231, 961, 709, 716, 418, 365
162922067, -8328, 5315, 12801, 2638, 3922, -114, -2081, -320, 93, 100, 554, 857, 1231, 961, 709, 716, 418, 365
162922919, -8328, 5315, 12801, 2638, 3922, -114, -2081, -320, 93, 100, 624, 880, 1176, 787, 663, 584, 332, 350
162923588, -8328, 5315, 12801, 2638, 3922, -114, -2081, -320, 93, 100, 624, 880, 1176, 787, 663, 584, 332, 350
162944524, -8298, 5393, 12780, 2674, 3893, -415, -2001, -465, -18, 210, 624, 880, 1176, 787, 663, 584, 332, 350
162945333, -8298, 5393, 12780, 2674, 3893, -415, -2001, -465, -18, 210, 814, 947, 1140, 755, 695, 487, 258, 336
162946163, -8298, 5393, 12780, 2674, 3893, -415, -2001, -465, -18, 210, 814, 947, 1140, 755, 695, 487, 258, 336
162958186, -8281, 5460, 12755, 2711, 4021, -388, -1863, -418, -35, 204, 814, 947, 1140, 755, 695, 487, 258, 336
162966375, -8281, 5460, 12755, 2711, 4021, -388, -1863, -418, -35, 204, 922, 1011, 1085, 708, 742, 500, 162, 276
162967166, -8281, 5460, 12755, 2711, 4021, -388, -1863, -418, -35, 204, 922, 1011, 1085, 708, 742, 500, 162, 276
162981136, -8280, 5509, 12720, 2781, 4070, -275, -1703, -472, 50, 112, 922, 1011, 1085, 708, 742, 500, 162, 276
162988834, -8280, 5509, 12720, 2781, 4070, -275, -1703, -472, 50, 112, 1028, 1164, 996, 686, 870, 711, 220, 311
162989659, -8280, 5509, 12720, 2781, 4070, -275, -1703, -472, 50, 112, 1028, 1164, 996, 686, 870, 711, 220, 311
163004537, -8257, 5587, 12693, 2813, 3829, -458, -1723, -468, -105, 212, 1028, 1164, 996, 686, 870, 711, 220, 311
163005358, -8257, 5587, 12693, 2813, 3829, -458, -1723, -468, -105, 212, 1127, 1257, 980, 631, 850, 742, 233, 322
163006180, -8257, 5587, 12693, 2813, 3829, -458, -1723, -468, -105, 212, 1127, 1257, 980, 631, 850, 742, 233, 322
163018211, -8201, 5685, 12696, 2769, 3878, -558, -2008, -231, -384, 396, 1127, 1257, 980, 631, 850, 742, 233, 322
163026306, -8201, 5685, 12696, 2769, 3878, -558, -2008, -231, -384, 396, 1148, 1182, 999, 674, 844, 765, 231, 325
163027131, -8201, 5685, 12696, 2769, 3878, -558, -2008, -231, -384, 396, 1148, 1182, 999, 674, 844, 765, 231, 325
163040721, -8144, 5782, 12701, 2710, 4075, -478, -2279, -122, -366, 501, 1148, 1182, 999, 674, 844, 765, 231, 325
163048808, -8144, 5782, 12701, 2710, 4075, -478, -2279, -122, -366, 501, 1003, 1080, 947, 622, 873, 806, 231, 300
163049655, -8144, 5782, 12701, 2710, 4075, -478, -2279, -122, -366, 501, 1003, 1080, 947, 622, 873, 806, 231, 300
163064560, -8135, 5867, 12667, 2712, 4036, -226, -2152, -230, 29, 536, 1003, 1080, 947, 622, 873, 806, 231, 300
163065381, -8135, 5867, 12667, 2712, 4036, -226, -2152, -230, 29, 536, 846, 894, 756, 596, 768, 704, 214, 291
163066159, -8135, 5867, 12667, 2712, 4036, -226, -2152, -230, 29, 536, 846, 894, 756, 596, 768, 704, 214, 291
163078211, -8082, 5913, 12657, 2818, 3822, 518, -2077, -465, 28, 331, 846, 894, 756, 596, 768, 704, 214, 291
163086371, -8082, 5913, 12657, 2818, 3822, 518, -2077, -465, 28, 331, 693, 624, 639, 454, 600, 513, 152, 209
163087186, -8082, 5913, 12657, 2818, 3822, 518, -2077, -465, 28, 331, 693, 624, 639, 454, 600, 513, 152, 209
163100694, -7988, 6020, 12635, 2955, 4151, -214, -2087, -1057, -203, 118, 693, 624, 639, 454, 600, 513, 152, 209
163108594, -7988, 6020, 12635, 2955, 4151, -214, -2087, -1057, -203, 118, 505, 286, 467, 409, 573, 468, 119, 167
163115676, -7988, 6020, 12635, 2955, 4151, -214, -2087, -1057, -203, 118, 505, 286, 467, 409, 573, 468, 119, 167
163124646, -7997, 5971, 12651, 2960, 4320, -476, -2055, 107, -40, -301, 505, 286, 467, 409, 573, 468, 119, 167
163125433, -7997, 5971, 12651, 2960, 4320, -476, -2055, 107, -40, -301, 291, 220, 317, 278, 518, 425, 98, 137
163126271, -7997, 5971, 12651, 2960, 4320, -476, -2055, 107, -40, -301, 291, 220, 317, 278, 518, 425, 98, 137
163131359, -7997, 5971, 12651, 2960, 4320, -476, -2055, 107, -40, -301, 291, 220, 317, 278, 518, 425, 98, 137
163132198, -7997, 5971, 12651, 2960, 4320, -476, -2055, 107, -40, -301, 291, 220, 317, 278, 518, 425, 98, 137
163138311, -8025, 5844, 12698, 2936, 3836, 13, -2095, 647, 136, -392, 291, 220, 317, 278, 518, 425, 98, 137
163146326, -8025, 5844, 12698, 2936, 3836, 13, -2095, 647, 136, -392, 251, 209, 234, 242, 345, 282, 66, 123
163147108, -8025, 5844, 12698, 2936, 3836, 13, -2095, 647, 136, -392, 251, 209, 234, 242, 345, 282, 66, 123
163160691, -8015, 5793, 12722, 2963, 3745, -72, -2051, 82, 56, -245, 251, 209, 234, 242, 345, 282, 66, 123
163168852, -8015, 5793, 12722, 2963, 3745, -72, -2051, 82, 56, -245, 216, 178, 184, 217, 334, 251, 66, 106
163169670, -8015, 5793, 12722, 2963, 3745, -72, -2051, 82, 56, -245, 216, 178, 184, 217, 334, 251, 66, 106
163192058, -7987, 5784, 12727, 3031, 3967, -234, -2009, -317, -5, -258, 216, 178, 184, 217, 334, 251, 66, 106
163192825, -7987, 5784, 12727, 3031, 3967, -234, -2009, -317, -5, -258, 161, 150, 158, 195, 275, 173, 54, 75
163193635, -7987, 5784, 12727, 3031, 3967, -234, -2009, -317, -5, -258, 161, 150, 158, 195, 275, 173, 54, 75
163198290, -7970, 5778, 12722, 3108, 3992, -402, -1934, -409, 42, -335, 161, 150, 158, 195, 275, 173, 54, 75
163206334, -7970, 5778, 12722, 3108, 3992, -402, -1934, -409, 42, -335, 109, 109, 109, 194, 177, 147, 44, 56
163207181, -7970, 5778, 12722, 3108, 3992, -402, -1934, -409, 42, -335, 109, 109, 109, 194, 177, 147, 44, 56
163220711, -7976, 5766, 12711, 3159, 3982, -481, -1894, -263, 107, -311, 109, 109, 109, 194, 177, 147, 44, 56
163228842, -7976, 5766, 12711, 3159, 3982, -481, -1894, -263, 107, -311, 80, 70, 83, 191, 171, 124, 40, 44
163229653, -7976, 5766, 12711, 3159, 3982, -481, -1894, -263, 107, -311, 80, 70, 83, 191, 171, 124, 40, 44
163243879, -7997, 5748, 12702, 3180, 3998, -477, -1897, -89, 118, -240, 80, 70, 83, 191, 171, 124, 40, 44
163244683, -7997, 5748, 12702, 3180, 3998, -477, -1897, -89, 118, -240, 64, 55, 69, 189, 140, 85, 33, 40
163250652, -7997, 5748, 12702, 3180, 3998, -477, -1897, -89, 118, -240, 64, 55, 69, 189, 140, 85, 33, 40
163258301, -8015, 5729, 12697, 3184, 3969, -411, -1903, 6, 82, -180, 64, 55, 69, 189, 140, 85, 33, 40
163266337, -8015, 5729, 12697, 3184, 3969, -411, -1903, 6, 82, -180, 59, 55, 60, 189, 118, 61, 31, 33
163267177, -8015, 5729, 12697, 3184, 3969, -411, -1903, 6, 82, -180, 59, 55, 60, 189, 118, 61, 31, 33
163280719, -8020, 5724, 12697, 3183, 3959, -386, -1955, -29, 15, -119, 59, 55, 60, 189, 118, 61, 31, 33
163288809, -8020, 5724, 12697, 3183, 3959, -386, -1955, -29, 15, -119, 45, 51, 71, 273, 109, 53, 29, 27
163289665, -8020, 5724, 12697, 3183, 3959, -386, -1955, -29, 15, -119, 45, 51, 71, 273, 109, 53, 29, 27
163303227, -8013, 5726, 12702, 3176, 3968, -378, -2004, -31, -49, -86, 45, 51, 71, 273, 109, 53, 29, 27
