Timestamp, Orientation x, Orientation y, Orientation z, Orientation w, Acceleration x, Acceleration y, Acceleration z, Rotation x, Rotation y, Rotation z, EMG 0, EMG 1, EMG 2, EMG 3, EMG 4, EMG 5, EMG 6, EMG 7
140534655, -9264, 1244, 12410, 5202, 3811, -476, -2446, 57, 37, -150, 0, 0, 0, 0, 0, 0, 0, 0
140535448, -9257, 1235, 12412, 5211, 3840, -548, -2452, -7, -14, -79, 0, 0, 0, 0, 0, 0, 0, 0
140541414, -9247, 1231, 12422, 5205, 3822, -581, -2418, 51, -70, -21, 0, 0, 0, 0, 0, 0, 0, 0
140563990, -9226, 1234, 12449, 5179, 3818, -495, -2334, 135, -194, 46, 0, 0, 0, 0, 0, 0, 0, 0
140586470, -9137, 1411, 12579, 4970, 3800, -379, -2296, 9, -433, 213, 0, 0, 0, 0, 0, 0, 0, 0
140602100, -9137, 1411, 12579, 4970, 3800, -379, -2296, 9, -433, 213, 309, 107, 103, 96, 119, 209, 350, 264
140602935, -9137, 1411, 12579, 4970, 3800, -379, -2296, 9, -433, 213, 309, 107, 103, 96, 119, 209, 350, 264
140609089, -9016, 1662, 12714, 4767, 3803, -463, -2326, -238, -757, 474, 309, 107, 103, 96, 119, 209, 350, 264
140625284, -9016, 1662, 12714, 4767, 3803, -463, -2326, -238, -757, 474, 415, 126, 109, 125, 299, 277, 408, 301
140626150, -9016, 1662, 12714, 4767, 3803, -463, -2326, -238, -757, 474, 415, 126, 109, 125, 299, 277, 408, 301
140627038, -8855, 1984, 12861, 4549, 3853, -539, -2407, -385, -1136, 771, 415, 126, 109, 125, 299, 277, 408, 301
140655240, -8855, 1984, 12861, 4549, 3853, -539, -2407, -385, -1136, 771, 443, 152, 124, 113, 336, 313, 446, 343
140656100, -8855, 1984, 12861, 4549, 3853, -539, -2407, -385, -1136, 771, 443, 152, 124, 113, 336, 313, 446, 343
140656986, -8678, 2254, 12957, 4490, 3825, -612, -2633, -529, -1529, 1026, 443, 152, 124, 113, 336, 313, 446, 343
140664208, -8678, 2254, 12957, 4490, 3825, -612, -2633, -529, -1529, 1026, 516, 173, 130, 123, 440, 333, 528, 372
140665027, -8678, 2254, 12957, 4490, 3825, -612, -2633, -529, -1529, 1026, 516, 173, 130, 123, 440, 333, 528, 372
140665812, -8678, 2254, 12957, 4490, 3825, -612, -2633, -529, -1529, 1026, 516, 173, 130, 123, 440, 333, 528, 372
140666645, -8678, 2254, 12957, 4490, 3825, -612, -2633, -529, -1529, 1026, 516, 173, 130, 123, 440, 333, 528, 372
140671561, -8678, 2254, 12957, 4490, 3825, -612, -2633, -529, -1529, 1026, 516, 173, 130, 123, 440, 333, 528, 372
140672399, -8678, 2254, 12957, 4490, 3825, -612, -2633, -529, -1529, 1026, 516, 173, 130, 123, 440, 333, 528, 372
140673232, -8678, 2254, 12957, 4490, 3825, -612, -2633, -529, -1529, 1026, 516, 173, 130, 123, 440, 333, 528, 372
140674008, -8678, 2254, 12957, 4490, 3825, -612, -2633, -529, -1529, 1026, 516, 173, 130, 123, 440, 333, 528, 372
140676536, -8452, 2580, 13074, 4404, 3671, -722, -2898, -580, -1912, 1262, 516, 173, 130, 123, 440, 333, 528, 372
140685282, -8452, 2580, 13074, 4404, 3671, -722, -2898, -580, -1912, 1262, 487, 183, 130, 130, 453, 344, 554, 373
140686104, -8452, 2580, 13074, 4404, 3671, -722, -2898, -580, -1912, 1262, 487, 183, 130, 130, 453, 344, 554, 373
140687035, -8191, 2968, 13203, 4265, 3446, -920, -3192, -535, -2247, 1625, 487, 183, 130, 130, 453, 344, 554, 373
140707784, -8191, 2968, 13203, 4265, 3446, -920, -3192, -535, -2247, 1625, 486, 182, 137, 125, 457, 315, 560, 340
140708558, -8191, 2968, 13203, 4265, 3446, -920, -3192, -535, -2247, 1625, 486, 182, 137, 125, 457, 315, 560, 340
140709521, -7901, 3427, 13332, 4062, 3142, -1157, -3456, -479, -2542, 2085, 486, 182, 137, 125, 457, 315, 560, 340
140722105, -7901, 3427, 13332, 4062, 3142, -1157, -3456, -479, -2542, 2085, 388, 180, 135, 112, 370, 273, 546, 316
140722932, -7901, 3427, 13332, 4062, 3142, -1157, -3456, -479, -2542, 2085, 388, 180, 135, 112, 370, 273, 546, 316
140729062, -7573, 3944, 13454, 3809, 2767, -1321, -3632, -459, -2840, 2438, 388, 180, 135, 112, 370, 273, 546, 316
140745253, -7573, 3944, 13454, 3809, 2767, -1321, -3632, -459, -2840, 2438, 368, 163, 112, 133, 385, 277, 533, 266
140746043, -7573, 3944, 13454, 3809, 2767, -1321, -3632, -459, -2840, 2438, 368, 163, 112, 133, 385, 277, 533, 266
140746994, -7217, 4496, 13556, 3516, 2429, -1476, -3802, -427, -3017, 2697, 368, 163, 112, 133, 385, 277, 533, 266
140767812, -7217, 4496, 13556, 3516, 2429, -1476, -3802, -427, -3017, 2697, 243, 153, 96, 130, 282, 302, 465, 206
140768585, -7217, 4496, 13556, 3516, 2429, -1476, -3802, -427, -3017, 2697, 243, 153, 96, 130, 282, 302, 465, 206
140769512, -6833, 5059, 13641, 3172, 2147, -1617, -3847, -284, -3198, 2863, 243, 153, 96, 130, 282, 302, 465, 206
140782084, -6833, 5059, 13641, 3172, 2147, -1617, -3847, -284, -3198, 2863, 268, 143, 93, 155, 266, 337, 421, 178
140782932, -6833, 5059, 13641, 3172, 2147, -1617, -3847, -284, -3198, 2863, 268, 143, 93, 155, 266, 337, 421, 178
140789089, -6436, 5618, 13702, 2774, 1986, -1577, -3875, -70, -3290, 3004, 268, 143, 93, 155, 266, 337, 421, 178
140805259, -6436, 5618, 13702, 2774, 1986, -1577, -3875, -70, -3290, 3004, 249, 136, 69, 191, 244, 337, 346, 166
140806058, -6436, 5618, 13702, 2774, 1986, -1577, -3875, -70, -3290, 3004, 249, 136, 69, 191, 244, 337, 346, 166
140807015, -6019, 6185, 13734, 2305, 1821, -1559, -3869, 51, -3259, 3085, 249, 136, 69, 191, 244, 337, 346, 166
140827785, -6019, 6185, 13734, 2305, 1821, -1559, -3869, 51, -3259, 3085, 254, 133, 72, 214, 237, 367, 371, 177
140828584, -6019, 6185, 13734, 2305, 1821, -1559, -3869, 51, -3259, 3085, 254, 133, 72, 214, 237, 367, 371, 177
140829577, -5610, 6730, 13723, 1828, 1757, -1512, -3826, 142, -3167, 3125, 254, 133, 72, 214, 237, 367, 371, 177
140842035, -5610, 6730, 13723, 1828, 1757, -1512, -3826, 142, -3167, 3125, 233, 129, 80, 234, 157, 336, 357, 177
140842974, -5610, 6730, 13723, 1828, 1757, -1512, -3826, 142, -3167, 3125, 233, 129, 80, 234, 157, 336, 357, 177
140856511, -5218, 7228, 13680, 1344, 1782, -1477, -3734, 299, -3071, 3031, 233, 129, 80, 234, 157, 336, 357, 177
140865282, -5218, 7228, 13680, 1344, 1782, -1477, -3734, 299, -3071, 3031, 218, 111, 160, 255, 157, 294, 307, 170
140866083, -5218, 7228, 13680, 1344, 1782, -1477, -3734, 299, -3071, 3031, 218, 111, 160, 255, 157, 294, 307, 170
140867069, -4846, 7671, 13613, 876, 1817, -1397, -3759, 390, -2907, 2840, 218, 111, 160, 255, 157, 294, 307, 170
140887734, -4846, 7671, 13613, 876, 1817, -1397, -3759, 390, -2907, 2840, 175, 135, 173, 263, 159, 244, 284, 164
140888582, -4846, 7671, 13613, 876, 1817, -1397, -3759, 390, -2907, 2840, 175, 135, 173, 263, 159, 244, 284, 164
140889487, -4487, 8065, 13530, 428, 1856, -1281, -3764, 433, -2796, 2658, 175, 135, 173, 263, 159, 244, 284, 164
140902066, -4487, 8065, 13530, 428, 1856, -1281, -3764, 433, -2796, 2658, 165, 168, 205, 259, 174, 304, 288, 164
140902943, -4487, 8065, 13530, 428, 1856, -1281, -3764, 433, -2796, 2658, 165, 168, 205, 259, 174, 304, 288, 164
140909065, -4145, 8432, 13421, 33, 1960, -1241, -3746, 288, -2576, 2551, 165, 168, 205, 259, 174, 304, 288, 164
140925336, -3822, 8782, 13288, -326, 2017, -1188, -3584, 211, -2403, 2511, 165, 168, 205, 259, 174, 304, 288, 164
140926131, -3822, 8782, 13288, -326, 2017, -1188, -3584, 211, -2403, 2511, 190, 204, 244, 291, 254, 343, 219, 134
140926963, -3822, 8782, 13288, -326, 2017, -1188, -3584, 211, -2403, 2511, 190, 204, 244, 291, 254, 343, 219, 134
140947762, -3527, 9064, 13169, -639, 2044, -1127, -3533, 191, -2201, 2115, 190, 204, 244, 291, 254, 343, 219, 134
140948592, -3527, 9064, 13169, -639, 2044, -1127, -3533, 191, -2201, 2115, 206, 223, 346, 336, 350, 348, 189, 134
140949410, -3527, 9064, 13169, -639, 2044, -1127, -3533, 191, -2201, 2115, 206, 223, 346, 336, 350, 348, 189, 134
140970288, -3247, 9303, 13057, -915, 2021, -1140, -3450, 117, -2062, 1864, 206, 223, 346, 336, 350, 348, 189, 134
140971098, -3247, 9303, 13057, -915, 2021, -1140, -3450, 117, -2062, 1864, 217, 250, 373, 357, 419, 493, 196, 157
140971909, -3247, 9303, 13057, -915, 2021, -1140, -3450, 117, -2062, 1864, 217, 250, 373, 357, 419, 493, 196, 157
140985278, -2983, 9509, 12951, -1167, 1950, -1111, -3425, 101, -1945, 1673, 217, 250, 373, 357, 419, 493, 196, 157
140986104, -2983, 9509, 12951, -1167, 1950, -1111, -3425, 101, -1945, 1673, 266, 326, 467, 400, 460, 515, 168, 149
140986933, -2983, 9509, 12951, -1167, 1950, -1111, -3425, 101, -1945, 1673, 266, 326, 467, 400, 460, 515, 168, 149
141007790, -2753, 9649, 12876, -1397, 1999, -999, -3358, 183, -1811, 1254, 266, 326, 467, 400, 460, 515, 168, 149
141008569, -2753, 9649, 12876, -1397, 1999, -999, -3358, 183, -1811, 1254, 394, 420, 555, 473, 526, 605, 238, 229
141009377, -2753, 9649, 12876, -1397, 1999, -999, -3358, 183, -1811, 1254, 394, 420, 555, 473, 526, 605, 238, 229
141030300, -2660, 9727, 12821, -1529, 1958, -889, -3224, 381, -1515, 994, 394, 420, 555, 473, 526, 605, 238, 229
141031108, -2660, 9727, 12821, -1529, 1958, -889, -3224, 381, -1515, 994, 406, 437, 577, 482, 567, 657, 254, 241
141031963, -2660, 9727, 12821, -1529, 1958, -889, -3224, 381, -1515, 994, 406, 437, 577, 482, 567, 657, 254, 241
141045286, -2590, 9788, 12776, -1632, 1834, -892, -3166, 333, -1307, 835, 406, 437, 577, 482, 567, 657, 254, 241
141046106, -2590, 9788, 12776, -1632, 1834, -892, -3166, 333, -1307, 835, 535, 625, 683, 567, 569, 744, 275, 271
141046934, -2590, 9788, 12776, -1632, 1834, -892, -3166, 333, -1307, 835, 535, 625, 683, 567, 569, 744, 275, 271
141068423, -2528, 9820, 12753, -1716, 1691, -897, -3146, 293, -1193, 597, 535, 625, 683, 567, 569, 744, 275, 271
141069206, -2528, 9820, 12753, -1716, 1691, -897, -3146, 293, -1193, 597, 584, 694, 792, 682, 593, 784, 285, 288
141070062, -2528, 9820, 12753, -1716, 1691, -897, -3146, 293, -1193, 597, 584, 694, 792, 682, 593, 784, 285, 288
141090321, -2468, 9833, 12744, -1793, 1658, -909, -3151, 272, -1185, 460, 584, 694, 792, 682, 593, 784, 285, 288
141091077, -2468, 9833, 12744, -1793, 1658, -909, -3151, 272, -1185, 460, 594, 718, 885, 770, 796, 856, 289, 291
141091901, -2468, 9833, 12744, -1793, 1658, -909, -3151, 272, -1185, 460, 594, 718, 885, 770, 796, 856, 289, 291
141105277, -2432, 9834, 12742, -1854, 1626, -884, -3113, 299, -1043, 361, 594, 718, 885, 770, 796, 856, 289, 291
141106053, -2432, 9834, 12742, -1854, 1626, -884, -3113, 299, -1043, 361, 631, 883, 989, 825, 851, 893, 250, 272
141106900, -2432, 9834, 12742, -1854, 1626, -884, -3113, 299, -1043, 361, 631, 883, 989, 825, 851, 893, 250, 272
141127732, -2397, 9832, 12745, -1889, 1425, -881, -3005, 173, -865, 273, 631, 883, 989, 825, 851, 893, 250, 272
141128528, -2397, 9832, 12745, -1889, 1425, -881, -3005, 173, -865, 273, 723, 975, 1162, 910, 940, 1006, 305, 337
141129328, -2397, 9832, 12745, -1889, 1425, -881, -3005, 173, -865, 273, 723, 975, 1162, 910, 940, 1006, 305, 337
141150282, -2361, 9814, 12766, -1886, 1270, -833, -2961, 13, -695, 78, 723, 975, 1162, 910, 940, 1006, 305, 337
141151060, -2361, 9814, 12766, -1886, 1270, -833, -2961, 13, -695, 78, 823, 1092, 1263, 1007, 992, 1091, 444, 349
141151899, -2361, 9814, 12766, -1886, 1270, -833, -2961, 13, -695, 78, 823, 1092, 1263, 1007, 992, 1091, 444, 349
141165284, -2342, 9768, 12808, -1865, 1212, -1050, -2899, -130, -566, -157, 823, 1092, 1263, 1007, 992, 1091, 444, 349
141166057, -2342, 9768, 12808, -1865, 1212, -1050, -2899, -130, -566, -157, 846, 1145, 1244, 1019, 1052, 1048, 474, 336
141166899, -2342, 9768, 12808, -1865, 1212, -1050, -2899, -130, -566, -157, 846, 1145, 1244, 1019, 1052, 1048, 474, 336
141187832, -2276, 9692, 12856, -2002, 74, -2220, -1675, -406, -796, -427, 846, 1145, 1244, 1019, 1052, 1048, 474, 336
141188616, -2276, 9692, 12856, -2002, 74, -2220, -1675, -406, -796, -427, 927, 1216, 1392, 1076, 999, 1138, 504, 362
141189376, -2276, 9692, 12856, -2002, 74, -2220, -1675, -406, -796, -427, 927, 1216, 1392, 1076, 999, 1138, 504, 362
141210294, -2331, 9424, 13008, -2228, 881, 1343, -4679, 1278, -810, -1542, 927, 1216, 1392, 1076, 999, 1138, 504, 362
141211072, -2331, 9424, 13008, -2228, 881, 1343, -4679, 1278, -810, -1542, 1030, 1188, 1331, 1220, 1021, 1067, 518, 507
141211902, -2331, 9424, 13008, -2228, 881, 1343, -4679, 1278, -810, -1542, 1030, 1188, 1331, 1220, 1021, 1067, 518, 507
141225284, -2451, 9587, 12927, -1842, 2803, -642, -1940, -1327, 648, 1113, 1030, 1188, 1331, 1220, 1021, 1067, 518, 507
141226095, -2451, 9587, 12927, -1842, 2803, -642, -1940, -1327, 648, 1113, 1146, 1166, 1213, 1406, 1007, 921, 504, 598
141226959, -2451, 9587, 12927, -1842, 2803, -642, -1940, -1327, 648, 1113, 1146, 1166, 1213, 1406, 1007, 921, 504, 598
141247812, -2565, 9888, 12708, -1604, 996, -929, -2479, -795, 1569, 1806, 1146, 1166, 1213, 1406, 1007, 921, 504, 598
141248576, -2565, 9888, 12708, -1604, 996, -929, -2479, -795, 1569, 1806, 1071, 963, 1039, 1383, 992, 771, 470, 675
141249386, -2565, 9888, 12708, -1604, 996, -929, -2479, -795, 1569, 1806, 1071, 963, 1039, 1383, 992, 771, 470, 675
141270379, -2600, 9846, 12748, -1485, 770, -1890, -3138, -788, 334, -443, 1071, 963, 1039, 1383, 992, 771, 470, 675
141271054, -2600, 9846, 12748, -1485, 770, -1890, -3138, -788, 334, -443, 1039, 887, 989, 1441, 957, 804, 443, 693
141271928, -2600, 9846, 12748, -1485, 770, -1890, -3138, -788, 334, -443, 1039, 887, 989, 1441, 957, 804, 443, 693
141285252, -2660, 9951, 12661, -1420, 1368, -1077, -3131, -108, 149, 826, 1039, 887, 989, 1441, 957, 804, 443, 693
141286166, -2660, 9951, 12661, -1420, 1368, -1077, -3131, -108, 149, 826, 967, 771, 701, 1418, 873, 610, 408, 707
141287011, -2660, 9951, 12661, -1420, 1368, -1077, -3131, -108, 149, 826, 967, 771, 701, 1418, 873, 610, 408, 707
141307804, -2645, 10022, 12610, -1401, 907, -872, -3230, -34, -127, 572, 967, 771, 701, 1418, 873, 610, 408, 707
141308582, -2645, 10022, 12610, -1401, 907, -872, -3230, -34, -127, 572, 788, 619, 648, 1248, 756, 579, 380, 605
141309408, -2645, 10022, 12610, -1401, 907, -872, -3230, -34, -127, 572, 788, 619, 648, 1248, 756, 579, 380, 605
141330261, -2615, 10024, 12615, -1401, 831, -1023, -3050, -83, -332, 80, 788, 619, 648, 1248, 756, 579, 380, 605
141331049, -2615, 10024, 12615, -1401, 831, -1023, -3050, -83, -332, 80, 478, 499, 562, 952, 603, 558, 331, 470
141331933, -2615, 10024, 12615, -1401, 831, -1023, -3050, -83, -332, 80, 478, 499, 562, 952, 603, 558, 331, 470
141345358, -2627, 10014, 12622, -1385, 964, -975, -2890, -6, -174, 5, 478, 499, 562, 952, 603, 558, 331, 470
141346243, -2627, 10014, 12622, -1385, 964, -975, -2890, -6, -174, 5, 340, 488, 522, 824, 480, 519, 172, 321
141346961, -2627, 10014, 12622, -1385, 964, -975, -2890, -6, -174, 5, 340, 488, 522, 824, 480, 519, 172, 321
141367774, -2663, 9977, 12648, -1345, 955, -982, -2906, -14, -6, -210, 340, 488, 522, 824, 480, 519, 172, 321
141368581, -2663, 9977, 12648, -1345, 955, -982, -2906, -14, -6, -210, 295, 406, 488, 596, 294, 354, 132, 267
141369368, -2663, 9977, 12648, -1345, 955, -982, -2906, -14, -6, -210, 295, 406, 488, 596, 294, 354, 132, 267
141390258, -2733, 9926, 12681, -1271, 1076, -1023, -2867, -69, 203, -334, 295, 406, 488, 596, 294, 354, 132, 267
141391044, -2733, 9926, 12681, -1271, 1076, -1023, -2867, -69, 203, -334, 212, 317, 319, 362, 171, 250, 117, 169
141391933, -2733, 9926, 12681, -1271, 1076, -1023, -2867, -69, 203, -334, 212, 317, 319, 362, 171, 250, 117, 169
141405291, -2834, 9862, 12719, -1164, 1164, -998, -2843, -93, 425, -444, 212, 317, 319, 362, 171, 250, 117, 169
141406049, -2834, 9862, 12719, -1164, 1164, -998, -2843, -93, 425, -444, 177, 242, 252, 305, 131, 233, 102, 138
141406946, -2834, 9862, 12719, -1164, 1164, -998, -2843, -93, 425, -444, 177, 242, 252, 305, 131, 233, 102, 138
141427793, -2972, 9759, 12779, -1021, 1376, -955, -2851, -79, 601, -715, 177, 242, 252, 305, 131, 233, 102, 138
141428570, -2972, 9759, 12779, -1021, 1376, -955, -2851, -79, 601, -715, 325, 427, 279, 278, 138, 183, 88, 164
141429383, -2972, 9759, 12779, -1021, 1376, -955, -2851, -79, 601, -715, 325, 427, 279, 278, 138, 183, 88, 164
141450348, -3164, 9603, 12864, -844, 1690, -972, -2781, -30, 798, -1052, 325, 427, 279, 278, 138, 183, 88, 164
141451044, -3164, 9603, 12864, -844, 1690, -972, -2781, -30, 798, -1052, 417, 492, 338, 252, 216, 147, 71, 178
141451916, -3164, 9603, 12864, -844, 1690, -972, -2781, -30, 798, -1052, 417, 492, 338, 252, 216, 147, 71, 178
141465319, -3423, 9400, 12958, -667, 1887, -1083, -2748, 178, 1035, -1316, 417, 492, 338, 252, 216, 147, 71, 178
141466123, -3423, 9400, 12958, -667, 1887, -1083, -2748, 178, 1035, -1316, 601, 707, 553, 298, 330, 184, 77, 206
141466936, -3423, 9400, 12958, -667, 1887, -1083, -2748, 178, 1035, -1316, 601, 707, 553, 298, 330, 184, 77, 206
141487820, -3666, 9153, 13073, -550, 1931, -1176, -2820, 492, 1145, -1623, 601, 707, 553, 298, 330, 184, 77, 206
141488586, -3666, 9153, 13073, -550, 1931, -1176, -2820, 492, 1145, -1623, 732, 758, 577, 390, 409, 258, 92, 233
141489408, -3666, 9153, 13073, -550, 1931, -1176, -2820, 492, 1145, -1623, 732, 758, 577, 390, 409, 258, 92, 233
141510311, -3921, 8886, 13187, -427, 2025, -1171, -3004, 542, 1231, -1728, 732, 758, 577, 390, 409, 258, 92, 233
141511077, -3921, 8886, 13187, -427, 2025, -1171, -3004, 542, 1231, -1728, 797, 754, 576, 448, 422, 282, 93, 255
141511944, -3921, 8886, 13187, -427, 2025, -1171, -3004, 542, 1231, -1728, 797, 754, 576, 448, 422, 282, 93, 255
141523964, -4165, 8578, 13320, -258, 2039, -1002, -3160, 379, 1319, -2026, 797, 754, 576, 448, 422, 282, 93, 255
141532051, -4165, 8578, 13320, -258, 2039, -1002, -3160, 379, 1319, -2026, 771, 671, 557, 444, 422, 285, 90, 236
141532933, -4165, 8578, 13320, -258, 2039, -1002, -3160, 379, 1319, -2026, 771, 671, 557, 444, 422, 285, 90, 236
141547127, -4400, 8208, 13479, -39, 1989, -1157, -3164, 186, 1411, -2481, 771, 671, 557, 444, 422, 285, 90, 236
141547963, -4400, 8208, 13479, -39, 1989, -1157, -3164, 186, 1411, -2481, 763, 632, 529, 441, 393, 289, 88, 228
141553951, -4400, 8208, 13479, -39, 1989, -1157, -3164, 186, 1411, -2481, 763, 632, 529, 441, 393, 289, 88, 228
141570374, -4673, 7749, 13656, 195, 1957, -1279, -3210, 336, 1635, -2982, 763, 632, 529, 441, 393, 289, 88, 228
141571129, -4673, 7749, 13656, 195, 1957, -1279, -3210, 336, 1635, -2982, 648, 388, 290, 371, 311, 259, 73, 210
141571963, -4673, 7749, 13656, 195, 1957, -1279, -3210, 336, 1635, -2982, 648, 388, 290, 371, 311, 259, 73, 210
141583957, -4985, 7193, 13844, 420, 1827, -1307, -3295, 631, 1827, -3470, 648, 388, 290, 371, 311, 259, 73, 210
141592030, -4985, 7193, 13844, 420, 1827, -1307, -3295, 631, 1827, -3470, 545, 301, 236, 276, 215, 181, 62, 193
141592862, -4985, 7193, 13844, 420, 1827, -1307, -3295, 631, 1827, -3470, 545, 301, 236, 276, 215, 181, 62, 193
141606439, -5300, 6566, 14028, 663, 1834, -1213, -3377, 682, 1939, -3839, 545, 301, 236, 276, 215, 181, 62, 193
