Timestamp, Orientation x, Orientation y, Orientation z, Orientation w, Acceleration x, Acceleration y, Acceleration z, Rotation x, Rotation y, Rotation z, EMG 0, EMG 1, EMG 2, EMG 3, EMG 4, EMG 5, EMG 6, EMG 7
83153934, 10931, -2754, -11885, 338, 3238, -683, -751, 60, -32, 40, 0, 0, 0, 0, 0, 0, 0, 0
83154783, 10897, -2755, -11916, 336, 3299, -739, -747, 10, -57, 39, 0, 0, 0, 0, 0, 0, 0, 0
83175735, 10871, -2756, -11939, 344, 3322, -828, -757, 54, -13, 42, 0, 0, 0, 0, 0, 0, 0, 0
83190732, 10849, -2742, -11962, 358, 3267, -737, -743, 142, -18, 46, 0, 0, 0, 0, 0, 0, 0, 0
83213243, 10825, -2733, -11986, 355, 3275, -667, -760, 53, -7, 39, 0, 0, 0, 0, 0, 0, 0, 0
83221357, 10825, -2733, -11986, 355, 3275, -667, -760, 53, -7, 39, 53, 452, 513, 495, 83, 95, 492, 128
83222153, 10825, -2733, -11986, 355, 3275, -667, -760, 53, -7, 39, 53, 452, 513, 495, 83, 95, 492, 128
83235730, 10800, -2742, -12007, 344, 3299, -764, -760, -53, -4, 31, 53, 452, 513, 495, 83, 95, 492, 128
83243828, 10800, -2742, -12007, 344, 3299, -764, -760, -53, -4, 31, 55, 520, 589, 511, 91, 88, 451, 125
83244725, 10800, -2742, -12007, 344, 3299, -764, -760, -53, -4, 31, 55, 520, 589, 511, 91, 88, 451, 125
83250803, 10781, -2744, -12024, 346, 3327, -828, -746, 22, 12, 29, 55, 520, 589, 511, 91, 88, 451, 125
83266379, 10781, -2744, -12024, 346, 3327, -828, -746, 22, 12, 29, 57, 464, 574, 428, 77, 87, 447, 119
83267198, 10781, -2744, -12024, 346, 3327, -828, -746, 22, 12, 29, 57, 464, 574, 428, 77, 87, 447, 119
83273356, 10763, -2737, -12041, 354, 3267, -754, -735, 87, -1, 38, 57, 464, 574, 428, 77, 87, 447, 119
83281329, 10763, -2737, -12041, 354, 3267, -754, -735, 87, -1, 38, 61, 511, 624, 531, 85, 86, 457, 124
83282147, 10763, -2737, -12041, 354, 3267, -754, -735, 87, -1, 38, 61, 511, 624, 531, 85, 86, 457, 124
83295730, 10741, -2739, -12060, 352, 3259, -732, -742, 8, -17, 52, 61, 511, 624, 531, 85, 86, 457, 124
83303835, 10741, -2739, -12060, 352, 3259, -732, -742, 8, -17, 52, 63, 482, 631, 526, 99, 92, 523, 126
83304635, 10741, -2739, -12060, 352, 3259, -732, -742, 8, -17, 52, 63, 482, 631, 526, 99, 92, 523, 126
83310889, 10717, -2743, -12080, 342, 3238, -708, -775, -27, -4, 37, 63, 482, 631, 526, 99, 92, 523, 126
83326383, 10717, -2743, -12080, 342, 3238, -708, -775, -27, -4, 37, 65, 531, 616, 544, 101, 80, 482, 118
83327186, 10717, -2743, -12080, 342, 3238, -708, -775, -27, -4, 37, 65, 531, 616, 544, 101, 80, 482, 118
83333361, 10696, -2750, -12098, 330, 3288, -761, -751, -59, -13, 23, 65, 531, 616, 544, 101, 80, 482, 118
83341330, 10696, -2750, -12098, 330, 3288, -761, -751, -59, -13, 23, 67, 471, 608, 564, 102, 81, 481, 109
83342156, 10696, -2750, -12098, 330, 3288, -761, -751, -59, -13, 23, 67, 471, 608, 564, 102, 81, 481, 109
83355733, 10682, -2755, -12110, 328, 3310, -816, -732, -6, 19, 28, 67, 471, 608, 564, 102, 81, 481, 109
83363880, 10682, -2755, -12110, 328, 3310, -816, -732, -6, 19, 28, 63, 499, 656, 576, 99, 93, 521, 113
83364725, 10682, -2755, -12110, 328, 3310, -816, -732, -6, 19, 28, 63, 499, 656, 576, 99, 93, 521, 113
83370849, 10671, -2757, -12118, 330, 3243, -761, -722, 26, 37, 51, 63, 499, 656, 576, 99, 93, 521, 113
83386383, 10671, -2757, -12118, 330, 3243, -761, -722, 26, 37, 51, 63, 524, 565, 523, 96, 100, 563, 110
83387177, 10671, -2757, -12118, 330, 3243, -761, -722, 26, 37, 51, 63, 524, 565, 523, 96, 100, 563, 110
83393328, 10654, -2767, -12131, 325, 3242, -768, -750, -41, 11, 53, 63, 524, 565, 523, 96, 100, 563, 110
83401381, 10654, -2767, -12131, 325, 3242, -768, -750, -41, 11, 53, 63, 512, 567, 485, 86, 95, 540, 108
83402200, 10654, -2767, -12131, 325, 3242, -768, -750, -41, 11, 53, 63, 512, 567, 485, 86, 95, 540, 108
83415726, 10638, -2773, -12144, 310, 3258, -731, -762, -57, 23, 24, 63, 512, 567, 485, 86, 95, 540, 108
83423875, 10638, -2773, -12144, 310, 3258, -731, -762, -57, 23, 24, 62, 453, 578, 454, 96, 103, 561, 99
83424721, 10638, -2773, -12144, 310, 3258, -731, -762, -57, 23, 24, 62, 453, 578, 454, 96, 103, 561, 99
83430831, 10624, -2785, -12155, 298, 3292, -799, -760, -77, 29, 23, 62, 453, 578, 454, 96, 103, 561, 99
83446349, 10624, -2785, -12155, 298, 3292, -799, -760, -77, 29, 23, 60, 468, 536, 431, 90, 104, 609, 104
83447177, 10624, -2785, -12155, 298, 3292, -799, -760, -77, 29, 23, 60, 468, 536, 431, 90, 104, 609, 104
83453331, 10614, -2791, -12162, 293, 3279, -770, -741, -18, 40, 41, 60, 468, 536, 431, 90, 104, 609, 104
83461375, 10614, -2791, -12162, 293, 3279, -770, -741, -18, 40, 41, 69, 571, 543, 437, 112, 122, 597, 109
83462203, 10614, -2791, -12162, 293, 3279, -770, -741, -18, 40, 41, 69, 571, 543, 437, 112, 122, 597, 109
83475727, 10601, -2805, -12170, 285, 3228, -763, -745, -62, 29, 66, 69, 571, 543, 437, 112, 122, 597, 109
83483855, 10601, -2805, -12170, 285, 3228, -763, -745, -62, 29, 66, 63, 477, 562, 446, 115, 130, 593, 121
83484722, 10601, -2805, -12170, 285, 3228, -763, -745, -62, 29, 66, 63, 477, 562, 446, 115, 130, 593, 121
83490830, 10586, -2820, -12180, 267, 3225, -735, -772, -106, 39, 35, 63, 477, 562, 446, 115, 130, 593, 121
83506350, 10586, -2820, -12180, 267, 3225, -735, -772, -106, 39, 35, 64, 510, 569, 443, 115, 128, 571, 198
83507178, 10586, -2820, -12180, 267, 3225, -735, -772, -106, 39, 35, 64, 510, 569, 443, 115, 128, 571, 198
83513332, 10569, -2844, -12190, 237, 3224, -747, -785, -189, 37, 28, 64, 510, 569, 443, 115, 128, 571, 198
83521349, 10569, -2844, -12190, 237, 3224, -747, -785, -189, 37, 28, 65, 533, 676, 488, 115, 120, 561, 333
83522176, 10569, -2844, -12190, 237, 3224, -747, -785, -189, 37, 28, 65, 533, 676, 488, 115, 120, 561, 333
83535747, 10553, -2890, -12194, 182, 3288, -738, -742, -384, 61, 43, 65, 533, 676, 488, 115, 120, 561, 333
83543858, 10553, -2890, -12194, 182, 3288, -738, -742, -384, 61, 43, 138, 656, 691, 543, 125, 121, 521, 529
83544729, 10553, -2890, -12194, 182, 3288, -738, -742, -384, 61, 43, 138, 656, 691, 543, 125, 121, 521, 529
83550839, 10518, -2975, -12204, 116, 3226, -796, -787, -588, -10, 126, 138, 656, 691, 543, 125, 121, 521, 529
83566365, 10518, -2975, -12204, 116, 3226, -796, -787, -588, -10, 126, 210, 627, 659, 573, 142, 94, 480, 658
83567165, 10518, -2975, -12204, 116, 3226, -796, -787, -588, -10, 126, 210, 627, 659, 573, 142, 94, 480, 658
83573308, 10475, -3089, -12214, 13, 3254, -694, -815, -846, -2, 166, 210, 627, 659, 573, 142, 94, 480, 658
83581352, 10475, -3089, -12214, 13, 3254, -694, -815, -846, -2, 166, 228, 756, 672, 574, 144, 77, 500, 875
83582169, 10475, -3089, -12214, 13, 3254, -694, -815, -846, -2, 166, 228, 756, 672, 574, 144, 77, 500, 875
83595763, 10431, -3252, -12208, -111, 3298, -803, -867, -1112, 82, 263, 228, 756, 672, 574, 144, 77, 500, 875
83603847, 10431, -3252, -12208, -111, 3298, -803, -867, -1112, 82, 263, 290, 738, 731, 698, 159, 102, 603, 901
83604723, 10431, -3252, -12208, -111, 3298, -803, -867, -1112, 82, 263, 290, 738, 731, 698, 159, 102, 603, 901
83610856, 10393, -3451, -12184, -260, 3280, -834, -865, -1348, 184, 327, 290, 738, 731, 698, 159, 102, 603, 901
83626325, 10393, -3451, -12184, -260, 3280, -834, -865, -1348, 184, 327, 345, 820, 657, 725, 161, 106, 627, 998
83627153, 10393, -3451, -12184, -260, 3280, -834, -865, -1348, 184, 327, 345, 820, 657, 725, 161, 106, 627, 998
83633307, 10378, -3656, -12133, -397, 3312, -949, -968, -1289, 415, 376, 345, 820, 657, 725, 161, 106, 627, 998
83641375, 10378, -3656, -12133, -397, 3312, -949, -968, -1289, 415, 376, 328, 769, 696, 725, 184, 98, 653, 1040
83642179, 10378, -3656, -12133, -397, 3312, -949, -968, -1289, 415, 376, 328, 769, 696, 725, 184, 98, 653, 1040
83655730, 10405, -3852, -12044, -509, 3210, -1043, -864, -1131, 654, 429, 328, 769, 696, 725, 184, 98, 653, 1040
83663848, 10405, -3852, -12044, -509, 3210, -1043, -864, -1131, 654, 429, 372, 736, 750, 803, 171, 106, 684, 1121
83664727, 10405, -3852, -12044, -509, 3210, -1043, -864, -1131, 654, 429, 372, 736, 750, 803, 171, 106, 684, 1121
83670806, 10440, -4028, -11952, -614, 3102, -911, -827, -1004, 696, 439, 372, 736, 750, 803, 171, 106, 684, 1121
83686349, 10440, -4028, -11952, -614, 3102, -911, -827, -1004, 696, 439, 404, 658, 761, 816, 182, 108, 673, 1034
83687158, 10440, -4028, -11952, -614, 3102, -911, -827, -1004, 696, 439, 404, 658, 761, 816, 182, 108, 673, 1034
83702180, 10460, -4235, -11854, -760, 3133, -929, -910, -1285, 755, 430, 404, 658, 761, 816, 182, 108, 673, 1034
83703031, 10460, -4235, -11854, -760, 3133, -929, -910, -1285, 755, 430, 378, 702, 829, 770, 224, 89, 629, 1073
83703803, 10460, -4235, -11854, -760, 3133, -929, -910, -1285, 755, 430, 378, 702, 829, 770, 224, 89, 629, 1073
83715731, 10454, -4461, -11765, -915, 3011, -1086, -1053, -1423, 708, 357, 378, 702, 829, 770, 224, 89, 629, 1073
83723825, 10454, -4461, -11765, -915, 3011, -1086, -1053, -1423, 708, 357, 337, 628, 812, 806, 242, 100, 581, 992
83724722, 10454, -4461, -11765, -915, 3011, -1086, -1053, -1423, 708, 357, 337, 628, 812, 806, 242, 100, 581, 992
83730800, 10452, -4649, -11683, -1038, 3013, -1211, -963, -1171, 622, 258, 337, 628, 812, 806, 242, 100, 581, 992
83746400, 10452, -4649, -11683, -1038, 3013, -1211, -963, -1171, 622, 258, 479, 628, 810, 935, 257, 116, 672, 967
83747154, 10452, -4649, -11683, -1038, 3013, -1211, -963, -1171, 622, 258, 479, 628, 810, 935, 257, 116, 672, 967
83753306, 10454, -4807, -11608, -1146, 3116, -1240, -1040, -982, 629, 188, 479, 628, 810, 935, 257, 116, 672, 967
83761363, 10454, -4807, -11608, -1146, 3116, -1240, -1040, -982, 629, 188, 460, 642, 796, 916, 262, 121, 678, 929
83762171, 10454, -4807, -11608, -1146, 3116, -1240, -1040, -982, 629, 188, 460, 642, 796, 916, 262, 121, 678, 929
83775730, 10446, -4962, -11540, -1243, 3017, -1197, -1056, -930, 571, 211, 460, 642, 796, 916, 262, 121, 678, 929
83783837, 10446, -4962, -11540, -1243, 3017, -1197, -1056, -930, 571, 211, 432, 646, 861, 1007, 266, 119, 698, 877
83784654, 10446, -4962, -11540, -1243, 3017, -1197, -1056, -930, 571, 211, 432, 646, 861, 1007, 266, 119, 698, 877
83790806, 10423, -5119, -11480, -1342, 2928, -1229, -1068, -973, 493, 171, 432, 646, 861, 1007, 266, 119, 698, 877
83806385, 10423, -5119, -11480, -1342, 2928, -1229, -1068, -973, 493, 171, 434, 616, 723, 1018, 238, 124, 747, 846
83807208, 10423, -5119, -11480, -1342, 2928, -1229, -1068, -973, 493, 171, 434, 616, 723, 1018, 238, 124, 747, 846
83813362, 10399, -5265, -11426, -1423, 2987, -1291, -1079, -862, 440, 160, 434, 616, 723, 1018, 238, 124, 747, 846
83820735, 10399, -5265, -11426, -1423, 2987, -1291, -1079, -862, 440, 160, 473, 603, 757, 1072, 247, 125, 804, 875
83828186, 10399, -5265, -11426, -1423, 2987, -1291, -1079, -862, 440, 160, 473, 603, 757, 1072, 247, 125, 804, 875
83835812, 10392, -5380, -11370, -1497, 2926, -1194, -1058, -685, 511, 130, 473, 603, 757, 1072, 247, 125, 804, 875
83843853, 10392, -5380, -11370, -1497, 2926, -1194, -1058, -685, 511, 130, 412, 741, 864, 964, 216, 128, 840, 796
83844895, 10392, -5380, -11370, -1497, 2926, -1194, -1058, -685, 511, 130, 412, 741, 864, 964, 216, 128, 840, 796
83850813, 10358, -5529, -11316, -1594, 2934, -1154, -1135, -930, 457, 189, 412, 741, 864, 964, 216, 128, 840, 796
83866330, 10358, -5529, -11316, -1594, 2934, -1154, -1135, -930, 457, 189, 392, 793, 876, 930, 248, 151, 891, 741
83867148, 10358, -5529, -11316, -1594, 2934, -1154, -1135, -930, 457, 189, 392, 793, 876, 930, 248, 151, 891, 741
83873289, 10293, -5719, -11265, -1701, 2881, -1383, -1194, -1184, 345, 161, 392, 793, 876, 930, 248, 151, 891, 741
83880732, 10293, -5719, -11265, -1701, 2881, -1383, -1194, -1184, 345, 161, 451, 762, 825, 844, 253, 174, 899, 864
83888177, 10293, -5719, -11265, -1701, 2881, -1383, -1194, -1184, 345, 161, 451, 762, 825, 844, 253, 174, 899, 864
83895812, 10254, -5863, -11217, -1760, 2958, -1454, -1168, -804, 340, 152, 451, 762, 825, 844, 253, 174, 899, 864
83903859, 10254, -5863, -11217, -1760, 2958, -1454, -1168, -804, 340, 152, 448, 801, 903, 787, 245, 199, 909, 885
83904729, 10254, -5863, -11217, -1760, 2958, -1454, -1168, -804, 340, 152, 448, 801, 903, 787, 245, 199, 909, 885
83910832, 10233, -5970, -11171, -1820, 2936, -1290, -1103, -630, 386, 108, 448, 801, 903, 787, 245, 199, 909, 885
83926350, 10233, -5970, -11171, -1820, 2936, -1290, -1103, -630, 386, 108, 483, 848, 885, 744, 237, 205, 1010, 966
83927152, 10233, -5970, -11171, -1820, 2936, -1290, -1103, -630, 386, 108, 483, 848, 885, 744, 237, 205, 1010, 966
83933314, 10193, -6098, -11126, -1892, 2942, -1292, -1136, -779, 335, 132, 483, 848, 885, 744, 237, 205, 1010, 966
83948818, 10193, -6098, -11126, -1892, 2942, -1292, -1136, -779, 335, 132, 463, 743, 850, 789, 261, 205, 970, 1012
83949647, 10193, -6098, -11126, -1892, 2942, -1292, -1136, -779, 335, 132, 463, 743, 850, 789, 261, 205, 970, 1012
83955814, 10117, -6257, -11089, -1993, 2960, -1409, -1183, -1081, 215, 51, 463, 743, 850, 789, 261, 205, 970, 1012
83963857, 10117, -6257, -11089, -1993, 2960, -1409, -1183, -1081, 215, 51, 451, 691, 872, 789, 229, 211, 1061, 1033
83964660, 10117, -6257, -11089, -1993, 2960, -1409, -1183, -1081, 215, 51, 451, 691, 872, 789, 229, 211, 1061, 1033
83970810, 10071, -6369, -11059, -2039, 2895, -1529, -1073, -679, 157, 8, 451, 691, 872, 789, 229, 211, 1061, 1033
83986329, 10071, -6369, -11059, -2039, 2895, -1529, -1073, -679, 157, 8, 433, 676, 871, 790, 235, 208, 1157, 1047
83987150, 10071, -6369, -11059, -2039, 2895, -1529, -1073, -679, 157, 8, 433, 676, 871, 790, 235, 208, 1157, 1047
83993315, 10042, -6416, -11055, -2050, 2869, -1320, -1145, -233, 140, -58, 433, 676, 871, 790, 235, 208, 1157, 1047
84008842, 10042, -6416, -11055, -2050, 2869, -1320, -1145, -233, 140, -58, 474, 641, 839, 812, 241, 189, 1220, 1051
84009732, 10042, -6416, -11055, -2050, 2869, -1320, -1145, -233, 140, -58, 474, 641, 839, 812, 241, 189, 1220, 1051
84015816, 10002, -6483, -11049, -2073, 2858, -1392, -1085, -389, 78, -62, 474, 641, 839, 812, 241, 189, 1220, 1051
84023856, 10002, -6483, -11049, -2073, 2858, -1392, -1085, -389, 78, -62, 409, 568, 857, 747, 232, 190, 1169, 923
84024726, 10002, -6483, -11049, -2073, 2858, -1392, -1085, -389, 78, -62, 409, 568, 857, 747, 232, 190, 1169, 923
84030808, 9966, -6532, -11054, -2063, 2876, -1503, -1209, -185, 42, -88, 409, 568, 857, 747, 232, 190, 1169, 923
84046322, 9966, -6532, -11054, -2063, 2876, -1503, -1209, -185, 42, -88, 405, 624, 807, 724, 198, 189, 1153, 879
84047155, 9966, -6532, -11054, -2063, 2876, -1503, -1209, -185, 42, -88, 405, 624, 807, 724, 198, 189, 1153, 879
84053298, 9946, -6563, -11058, -2041, 2927, -1506, -1211, -44, 84, -78, 405, 624, 807, 724, 198, 189, 1153, 879
84068882, 9946, -6563, -11058, -2041, 2927, -1506, -1211, -44, 84, -78, 401, 584, 710, 691, 188, 168, 1092, 791
84069730, 9946, -6563, -11058, -2041, 2927, -1506, -1211, -44, 84, -78, 401, 584, 710, 691, 188, 168, 1092, 791
84075855, 9926, -6585, -11070, -2006, 2859, -1474, -1251, 49, 50, -81, 401, 584, 710, 691, 188, 168, 1092, 791
84083819, 9926, -6585, -11070, -2006, 2859, -1474, -1251, 49, 50, -81, 416, 630, 638, 729, 170, 167, 1063, 672
84084643, 9926, -6585, -11070, -2006, 2859, -1474, -1251, 49, 50, -81, 416, 630, 638, 729, 170, 167, 1063, 672
84090806, 9902, -6600, -11089, -1969, 2867, -1366, -1241, 91, 2, -59, 416, 630, 638, 729, 170, 167, 1063, 672
84106350, 9902, -6600, -11089, -1969, 2867, -1366, -1241, 91, 2, -59, 374, 722, 581, 738, 171, 190, 1144, 706
84107151, 9902, -6600, -11089, -1969, 2867, -1366, -1241, 91, 2, -59, 374, 722, 581, 738, 171, 190, 1144, 706
84113353, 9872, -6630, -11101, -1947, 2876, -1361, -1262, -39, 27, -28, 374, 722, 581, 738, 171, 190, 1144, 706
84128876, 9872, -6630, -11101, -1947, 2876, -1361, -1262, -39, 27, -28, 394, 806, 506, 705, 157, 177, 1089, 760
84129725, 9872, -6630, -11101, -1947, 2876, -1361, -1262, -39, 27, -28, 394, 806, 506, 705, 157, 177, 1089, 760
84135853, 9843, -6678, -11104, -1916, 2883, -1545, -1282, -86, 26, 6, 394, 806, 506, 705, 157, 177, 1089, 760
84152027, 9843, -6678, -11104, -1916, 2883, -1545, -1282, -86, 26, 6, 385, 777, 337, 709, 176, 178, 1079, 775
84152870, 9843, -6678, -11104, -1916, 2883, -1545, -1282, -86, 26, 6, 385, 777, 337, 709, 176, 178, 1079, 775
84153769, 9831, -6701, -11109, -1866, 2871, -1468, -1268, 120, 41, 35, 385, 777, 337, 709, 176, 178, 1079, 775
84166376, 9831, -6701, -11109, -1866, 2871, -1468, -1268, 120, 41, 35, 444, 836, 281, 724, 182, 184, 1178, 890
84167226, 9831, -6701, -11109, -1866, 2871, -1468, -1268, 120, 41, 35, 444, 836, 281, 724, 182, 184, 1178, 890
84173330, 9815, -6727, -11115, -1820, 2851, -1428, -1262, 91, 23, 49, 444, 836, 281, 724, 182, 184, 1178, 890
84188857, 9815, -6727, -11115, -1820, 2851, -1428, -1262, 91, 23, 49, 395, 872, 255, 719, 199, 178, 1184, 859
84189726, 9815, -6727, -11115, -1820, 2851, -1428, -1262, 91, 23, 49, 395, 872, 255, 719, 199, 178, 1184, 859
84195810, 9798, -6756, -11120, -1774, 2838, -1421, -1239, 68, 4, 78, 395, 872, 255, 719, 199, 178, 1184, 859
84212064, 9798, -6756, -11120, -1774, 2838, -1421, -1239, 68, 4, 78, 417, 781, 195, 794, 193, 152, 1077, 780
84212872, 9798, -6756, -11120, -1774, 2838, -1421, -1239, 68, 4, 78, 417, 781, 195, 794, 193, 152, 1077, 780
84213795, 9775, -6794, -11124, -1728, 2884, -1463, -1280, 29, -16, 107, 417, 781, 195, 794, 193, 152, 1077, 780
84226326, 9775, -6794, -11124, -1728, 2884, -1463, -1280, 29, -16, 107, 398, 686, 188, 808, 197, 159, 1112, 742
84227157, 9775, -6794, -11124, -1728, 2884, -1463, -1280, 29, -16, 107, 398, 686, 188, 808, 197, 159, 1112, 742
84233303, 9756, -6825, -11130, -1678, 2853, -1472, -1247, 75, -34, 92, 398, 686, 188, 808, 197, 159, 1112, 742
84248881, 9756, -6825, -11130, -1678, 2853, -1472, -1247, 75, -34, 92, 365, 649, 183, 785, 192, 159, 1119, 689
84249729, 9756, -6825, -11130, -1678, 2853, -1472, -1247, 75, -34, 92, 365, 649, 183, 785, 192, 159, 1119, 689
84255860, 9742, -6839, -11141, -1626, 2828, -1369, -1247, 167, -30, 81, 365, 649, 183, 785, 192, 159, 1119, 689
84272028, 9742, -6839, -11141, -1626, 2828, -1369, -1247, 167, -30, 81, 309, 556, 166, 780, 195, 155, 962, 565
84272853, 9742, -6839, -11141, -1626, 2828, -1369, -1247, 167, -30, 81, 309, 556, 166, 780, 195, 155, 962, 565
84273774, 9721, -6858, -11153, -1587, 2892, -1366, -1249, 86, -48, 73, 309, 556, 166, 780, 195, 155, 962, 565
84286353, 9721, -6858, -11153, -1587, 2892, -1366, -1249, 86, -48, 73, 429, 450, 160, 768, 184, 152, 858, 543
84287170, 9721, -6858, -11153, -1587, 2892, -1366, -1249, 86, -48, 73, 429, 450, 160, 768, 184, 152, 858, 543
84293328, 9702, -6875, -11165, -1548, 2906, -1417, -1247, 88, -50, 53, 429, 450, 160, 768, 184, 152, 858, 543
84308871, 9702, -6875, -11165, -1548, 2906, -1417, -1247, 88, -50, 53, 414, 503, 156, 667, 178, 140, 722, 529
84309731, 9702, -6875, -11165, -1548, 2906, -1417, -1247, 88, -50, 53, 414, 503, 156, 667, 178, 140, 722, 529
84315835, 9694, -6878, -11176, -1504, 2910, -1367, -1207, 180, -40, 57, 414, 503, 156, 667, 178, 140, 722, 529
84332052, 9694, -6878, -11176, -1504, 2910, -1367, -1207, 180, -40, 57, 409, 581, 142, 676, 191, 135, 681, 529
84332878, 9694, -6878, -11176, -1504, 2910, -1367, -1207, 180, -40, 57, 409, 581, 142, 676, 191, 135, 681, 529
84333798, 9680, -6882, -11191, -1467, 2865, -1307, -1221, 148, -49, 49, 409, 581, 142, 676, 191, 135, 681, 529
84354527, 9680, -6882, -11191, -1467, 2865, -1307, -1221, 148, -49, 49, 402, 548, 129, 660, 185, 122, 728, 587
84355337, 9680, -6882, -11191, -1467, 2865, -1307, -1221, 148, -49, 49, 402, 548, 129, 660, 185, 122, 728, 587
84356285, 9660, -6895, -11203, -1439, 2911, -1386, -1246, 59, -43, 36, 402, 548, 129, 660, 185, 122, 728, 587
84368888, 9660, -6895, -11203, -1439, 2911, -1386, -1246, 59, -43, 36, 408, 660, 140, 647, 189, 99, 684, 513
84369716, 9660, -6895, -11203, -1439, 2911, -1386, -1246, 59, -43, 36, 408, 660, 140, 647, 189, 99, 684, 513
84375841, 9648, -6903, -11213, -1406, 2881, -1429, -1253, 107, -18, 19, 408, 660, 140, 647, 189, 99, 684, 513
84392045, 9648, -6903, -11213, -1406, 2881, -1429, -1253, 107, -18, 19, 316, 686, 139, 554, 178, 115, 763, 550
84392824, 9648, -6903, -11213, -1406, 2881, -1429, -1253, 107, -18, 19, 316, 686, 139, 554, 178, 115, 763, 550
84393770, 9649, -6895, -11221, -1370, 2892, -1403, -1210, 200, 18, -1, 316, 686, 139, 554, 178, 115, 763, 550
84414563, 9649, -6895, -11221, -1370, 2892, -1403, -1210, 200, 18, -1, 322, 664, 138, 536, 179, 121, 847, 682
84415358, 9649, -6895, -11221, -1370, 2892, -1403, -1210, 200, 18, -1, 322, 664, 138, 536, 179, 121, 847, 682
84416296, 9646, -6885, -11233, -1344, 2892, -1293, -1197, 175, 7, 2, 322, 664, 138, 536, 179, 121, 847, 682
84428629, 9646, -6885, -11233, -1344, 2892, -1293, -1197, 175, 7, 2, 324, 687, 136, 509, 151, 110, 895, 678
84436378, 9646, -6885, -11233, -1344, 2892, -1293, -1197, 175, 7, 2, 324, 687, 136, 509, 151, 110, 895, 678
84437321, 9623, -6898, -11246, -1337, 2923, -1325, -1240, -21, -32, 8, 324, 687, 136, 509, 151, 110, 895, 678
84452038, 9623, -6898, -11246, -1337, 2923, -1325, -1240, -21, -32, 8, 386, 698, 156, 461, 153, 138, 973, 639
84452858, 9623, -6898, -11246, -1337, 2923, -1325, -1240, -21, -32, 8, 386, 698, 156, 461, 153, 138, 973, 639
84453782, 9605, -6914, -11254, -1321, 2896, -1454, -1229, -7, -27, 0, 386, 698, 156, 461, 153, 138, 973, 639