Timestamp, Orientation x, Orientation y, Orientation z, Orientation w, Acceleration x, Acceleration y, Acceleration z, Rotation x, Rotation y, Rotation z, EMG 0, EMG 1, EMG 2, EMG 3, EMG 4, EMG 5, EMG 6, EMG 7
179587893, 10593, -4761, -11555, -229, 2991, -973, -738, 19, 21, 7, 0, 0, 0, 0, 0, 0, 0, 0
179595438, 10580, -4753, -11569, -250, 2990, -937, -750, -15, 41, -21, 0, 0, 0, 0, 0, 0, 0, 0
179617894, 10560, -4753, -11587, -279, 3024, -981, -744, -92, -4, -48, 0, 0, 0, 0, 0, 0, 0, 0
179640419, 10544, -4749, -11603, -299, 3059, -1019, -746, -40, 5, -50, 0, 0, 0, 0, 0, 0, 0, 0
179656740, 10530, -4743, -11618, -315, 3040, -993, -741, -17, 7, -33, 0, 0, 0, 0, 0, 0, 0, 0
179657542, 10530, -4743, -11618, -315, 3040, -993, -741, -17, 7, -33, 59, 363, 474, 419, 76, 102, 724, 126
179658353, 10530, -4743, -11618, -315, 3040, -993, -741, -17, 7, -33, 59, 363, 474, 419, 76, 102, 724, 126
179679193, 10517, -4744, -11629, -329, 3035, -1011, -727, -39, 7, -2, 59, 363, 474, 419, 76, 102, 724, 126
179680010, 10517, -4744, -11629, -329, 3035, -1011, -727, -39, 7, -2, 61, 443, 483, 443, 85, 104, 725, 131
179680828, 10517, -4744, -11629, -329, 3035, -1011, -727, -39, 7, -2, 61, 443, 483, 443, 85, 104, 725, 131
179701762, 10505, -4737, -11641, -344, 3020, -947, -716, -15, 6, -18, 61, 443, 483, 443, 85, 104, 725, 131
179702550, 10505, -4737, -11641, -344, 3020, -947, -716, -15, 6, -18, 65, 403, 474, 417, 82, 111, 725, 149
179703378, 10505, -4737, -11641, -344, 3020, -947, -716, -15, 6, -18, 65, 403, 474, 417, 82, 111, 725, 149
179716728, 10493, -4738, -11651, -361, 3053, -995, -722, -51, 11, -12, 65, 403, 474, 417, 82, 111, 725, 149
179717549, 10493, -4738, -11651, -361, 3053, -995, -722, -51, 11, -12, 68, 429, 470, 425, 85, 116, 701, 160
179718371, 10493, -4738, -11651, -361, 3053, -995, -722, -51, 11, -12, 68, 429, 470, 425, 85, 116, 701, 160
179739218, 10490, -4734, -11655, -366, 3067, -1043, -720, 24, 44, 5, 68, 429, 470, 425, 85, 116, 701, 160
179740021, 10490, -4734, -11655, -366, 3067, -1043, -720, 24, 44, 5, 65, 431, 471, 392, 85, 107, 694, 175
179740824, 10490, -4734, -11655, -366, 3067, -1043, -720, 24, 44, 5, 65, 431, 471, 392, 85, 107, 694, 175
179761738, 10491, -4722, -11660, -363, 3016, -967, -693, 87, 38, 20, 65, 431, 471, 392, 85, 107, 694, 175
179762561, 10491, -4722, -11660, -363, 3016, -967, -693, 87, 38, 20, 73, 534, 594, 408, 96, 108, 631, 170
179763378, 10491, -4722, -11660, -363, 3016, -967, -693, 87, 38, 20, 73, 534, 594, 408, 96, 108, 631, 170
179776719, 10478, -4723, -11671, -370, 2991, -958, -739, -9, 1, 28, 73, 534, 594, 408, 96, 108, 631, 170
179777551, 10478, -4723, -11671, -370, 2991, -958, -739, -9, 1, 28, 71, 482, 573, 406, 84, 112, 651, 177
179778343, 10478, -4723, -11671, -370, 2991, -958, -739, -9, 1, 28, 71, 482, 573, 406, 84, 112, 651, 177
179799261, 10462, -4727, -11684, -375, 3017, -1029, -754, -19, -24, 11, 71, 482, 573, 406, 84, 112, 651, 177
179800069, 10462, -4727, -11684, -375, 3017, -1029, -754, -19, -24, 11, 70, 484, 614, 427, 94, 97, 605, 156
179800881, 10462, -4727, -11684, -375, 3017, -1029, -754, -19, -24, 11, 70, 484, 614, 427, 94, 97, 605, 156
179821715, 10453, -4719, -11695, -371, 3017, -1015, -735, 62, -15, 4, 70, 484, 614, 427, 94, 97, 605, 156
179822521, 10453, -4719, -11695, -371, 3017, -1015, -735, 62, -15, 4, 67, 450, 635, 372, 86, 82, 549, 145
179823332, 10453, -4719, -11695, -371, 3017, -1015, -735, 62, -15, 4, 67, 450, 635, 372, 86, 82, 549, 145
179836714, 10443, -4711, -11707, -370, 3028, -969, -747, 56, -13, 15, 67, 450, 635, 372, 86, 82, 549, 145
179837512, 10443, -4711, -11707, -370, 3028, -969, -747, 56, -13, 15, 70, 448, 621, 407, 88, 83, 573, 132
179838333, 10443, -4711, -11707, -370, 3028, -969, -747, 56, -13, 15, 70, 448, 621, 407, 88, 83, 573, 132
179859250, 10435, -4709, -11715, -370, 3033, -994, -752, 27, 10, 33, 70, 448, 621, 407, 88, 83, 573, 132
179860065, 10435, -4709, -11715, -370, 3033, -994, -752, 27, 10, 33, 63, 355, 541, 446, 83, 80, 600, 137
179860859, 10435, -4709, -11715, -370, 3033, -994, -752, 27, 10, 33, 63, 355, 541, 446, 83, 80, 600, 137
179881737, 10429, -4708, -11721, -371, 3018, -994, -737, 26, 16, 29, 63, 355, 541, 446, 83, 80, 600, 137
179882527, 10429, -4708, -11721, -371, 3018, -994, -737, 26, 16, 29, 61, 415, 521, 419, 82, 78, 624, 150
179883385, 10429, -4708, -11721, -371, 3018, -994, -737, 26, 16, 29, 61, 415, 521, 419, 82, 78, 624, 150
179896712, 10426, -4704, -11725, -369, 3027, -999, -732, 49, 29, 32, 61, 415, 521, 419, 82, 78, 624, 150
179897515, 10426, -4704, -11725, -369, 3027, -999, -732, 49, 29, 32, 55, 415, 516, 376, 67, 72, 586, 152
179898336, 10426, -4704, -11725, -369, 3027, -999, -732, 49, 29, 32, 55, 415, 516, 376, 67, 72, 586, 152
179919262, 10427, -4698, -11727, -363, 3015, -988, -707, 74, 38, 47, 55, 415, 516, 376, 67, 72, 586, 152
179920050, 10427, -4698, -11727, -363, 3015, -988, -707, 74, 38, 47, 57, 422, 489, 364, 80, 82, 595, 172
179920886, 10427, -4698, -11727, -363, 3015, -988, -707, 74, 38, 47, 57, 422, 489, 364, 80, 82, 595, 172
179941734, 10429, -4694, -11727, -354, 2998, -1011, -690, 74, 33, 53, 57, 422, 489, 364, 80, 82, 595, 172
179942525, 10429, -4694, -11727, -354, 2998, -1011, -690, 74, 33, 53, 68, 424, 438, 323, 77, 83, 572, 186
179943358, 10429, -4694, -11727, -354, 2998, -1011, -690, 74, 33, 53, 68, 424, 438, 323, 77, 83, 572, 186
179956687, 10434, -4687, -11726, -343, 3028, -976, -676, 97, 36, 78, 68, 424, 438, 323, 77, 83, 572, 186
179957508, 10434, -4687, -11726, -343, 3028, -976, -676, 97, 36, 78, 120, 376, 404, 277, 85, 98, 612, 196
179958329, 10434, -4687, -11726, -343, 3028, -976, -676, 97, 36, 78, 120, 376, 404, 277, 85, 98, 612, 196
179979222, 10454, -4694, -11705, -326, 3037, -1038, -661, 93, 151, 160, 120, 376, 404, 277, 85, 98, 612, 196
179980039, 10454, -4694, -11705, -326, 3037, -1038, -661, 93, 151, 160, 187, 407, 429, 333, 122, 140, 814, 362
179980857, 10454, -4694, -11705, -326, 3037, -1038, -661, 93, 151, 160, 187, 407, 429, 333, 122, 140, 814, 362
180001709, 10487, -4712, -11669, -302, 2983, -1146, -667, 95, 267, 196, 187, 407, 429, 333, 122, 140, 814, 362
180002526, 10487, -4712, -11669, -302, 2983, -1146, -667, 95, 267, 196, 348, 408, 400, 463, 169, 184, 972, 483
180003351, 10487, -4712, -11669, -302, 2983, -1146, -667, 95, 267, 196, 348, 408, 400, 463, 169, 184, 972, 483
180016711, 10527, -4708, -11635, -296, 2957, -929, -597, 117, 292, 155, 348, 408, 400, 463, 169, 184, 972, 483
180017527, 10527, -4708, -11635, -296, 2957, -929, -597, 117, 292, 155, 448, 408, 401, 491, 176, 268, 1197, 755
180018322, 10527, -4708, -11635, -296, 2957, -929, -597, 117, 292, 155, 448, 408, 401, 491, 176, 268, 1197, 755
180039235, 10559, -4739, -11593, -301, 2969, -1071, -696, -51, 358, 197, 448, 408, 401, 491, 176, 268, 1197, 755
180040052, 10559, -4739, -11593, -301, 2969, -1071, -696, -51, 358, 197, 568, 456, 402, 494, 179, 304, 1274, 860
180040843, 10559, -4739, -11593, -301, 2969, -1071, -696, -51, 358, 197, 568, 456, 402, 494, 179, 304, 1274, 860
180061753, 10611, -4738, -11547, -259, 3036, -1079, -566, 267, 325, 266, 568, 456, 402, 494, 179, 304, 1274, 860
180062574, 10611, -4738, -11547, -259, 3036, -1079, -566, 267, 325, 266, 627, 558, 425, 484, 180, 352, 1355, 948
180063404, 10611, -4738, -11547, -259, 3036, -1079, -566, 267, 325, 266, 627, 558, 425, 484, 180, 352, 1355, 948
180076756, 10666, -4765, -11486, -201, 2812, -1226, -665, 246, 442, 360, 627, 558, 425, 484, 180, 352, 1355, 948
180077566, 10666, -4765, -11486, -201, 2812, -1226, -665, 246, 442, 360, 753, 539, 450, 451, 164, 357, 1308, 1011
180078370, 10666, -4765, -11486, -201, 2812, -1226, -665, 246, 442, 360, 753, 539, 450, 451, 164, 357, 1308, 1011
180099234, 10683, -4753, -11476, -137, 2659, -863, -616, 374, 95, 304, 753, 539, 450, 451, 164, 357, 1308, 1011
180100052, 10683, -4753, -11476, -137, 2659, -863, -616, 374, 95, 304, 708, 589, 457, 344, 120, 354, 1267, 1130
180100836, 10683, -4753, -11476, -137, 2659, -863, -616, 374, 95, 304, 708, 589, 457, 344, 120, 354, 1267, 1130
180121762, 10692, -4732, -11477, -112, 2893, -872, -775, 273, 148, 157, 708, 589, 457, 344, 120, 354, 1267, 1130
180122555, 10692, -4732, -11477, -112, 2893, -872, -775, 273, 148, 157, 825, 637, 471, 301, 115, 298, 1212, 1084
180123373, 10692, -4732, -11477, -112, 2893, -872, -775, 273, 148, 157, 825, 637, 471, 301, 115, 298, 1212, 1084
180136755, 10695, -4736, -11473, -111, 2873, -794, -701, 72, 146, 208, 825, 637, 471, 301, 115, 298, 1212, 1084
180137553, 10695, -4736, -11473, -111, 2873, -794, -701, 72, 146, 208, 842, 639, 488, 301, 114, 299, 1205, 1104
180138360, 10695, -4736, -11473, -111, 2873, -794, -701, 72, 146, 208, 842, 639, 488, 301, 114, 299, 1205, 1104
180159243, 10687, -4790, -11457, -114, 2826, -1127, -681, -175, 143, 236, 842, 639, 488, 301, 114, 299, 1205, 1104
180160022, 10687, -4790, -11457, -114, 2826, -1127, -681, -175, 143, 236, 909, 579, 520, 292, 107, 256, 1217, 1101
180160837, 10687, -4790, -11457, -114, 2826, -1127, -681, -175, 143, 236, 909, 579, 520, 292, 107, 256, 1217, 1101
180181744, 10680, -4827, -11448, -99, 2780, -1152, -772, -23, 140, 210, 909, 579, 520, 292, 107, 256, 1217, 1101
180182566, 10680, -4827, -11448, -99, 2780, -1152, -772, -23, 140, 210, 917, 608, 505, 352, 108, 290, 1205, 1133
180183359, 10680, -4827, -11448, -99, 2780, -1152, -772, -23, 140, 210, 917, 608, 505, 352, 108, 290, 1205, 1133
180196071, 10667, -4780, -11481, -93, 2974, -743, -766, 270, -39, 18, 917, 608, 505, 352, 108, 290, 1205, 1133
180196875, 10667, -4780, -11481, -93, 2974, -743, -766, 270, -39, 18, 939, 624, 513, 380, 119, 364, 1286, 1160
180202860, 10667, -4780, -11481, -93, 2974, -743, -766, 270, -39, 18, 939, 624, 513, 380, 119, 364, 1286, 1160
180219217, 10655, -4713, -11519, -123, 3005, -674, -678, 185, -50, -171, 939, 624, 513, 380, 119, 364, 1286, 1160
180220030, 10655, -4713, -11519, -123, 3005, -674, -678, 185, -50, -171, 932, 600, 485, 384, 120, 391, 1232, 1168
180220830, 10655, -4713, -11519, -123, 3005, -674, -678, 185, -50, -171, 932, 600, 485, 384, 120, 391, 1232, 1168
180241693, 10659, -4673, -11530, -191, 3007, -759, -570, -68, 123, -215, 932, 600, 485, 384, 120, 391, 1232, 1168
180242512, 10659, -4673, -11530, -191, 3007, -759, -570, -68, 123, -215, 999, 724, 522, 389, 128, 442, 1328, 1255
180243302, 10659, -4673, -11530, -191, 3007, -759, -570, -68, 123, -215, 999, 724, 522, 389, 128, 442, 1328, 1255
180255372, 10668, -4684, -11516, -269, 3036, -877, -576, -294, 253, -80, 999, 724, 522, 389, 128, 442, 1328, 1255
180263522, 10668, -4684, -11516, -269, 3036, -877, -576, -294, 253, -80, 1036, 790, 555, 391, 141, 494, 1425, 1291
180264332, 10668, -4684, -11516, -269, 3036, -877, -576, -294, 253, -80, 1036, 790, 555, 391, 141, 494, 1425, 1291
180279247, 10632, -4751, -11520, -342, 2896, -1144, -689, -553, 56, -40, 1036, 790, 555, 391, 141, 494, 1425, 1291
180280035, 10632, -4751, -11520, -342, 2896, -1144, -689, -553, 56, -40, 1096, 826, 598, 500, 152, 485, 1462, 1261
180280879, 10632, -4751, -11520, -342, 2896, -1144, -689, -553, 56, -40, 1096, 826, 598, 500, 152, 485, 1462, 1261
180301736, 10592, -4735, -11564, -322, 2948, -1231, -764, 112, -223, -134, 1096, 826, 598, 500, 152, 485, 1462, 1261
180302533, 10592, -4735, -11564, -322, 2948, -1231, -764, 112, -223, -134, 1184, 842, 585, 507, 158, 462, 1414, 1168
180303354, 10592, -4735, -11564, -322, 2948, -1231, -764, 112, -223, -134, 1184, 842, 585, 507, 158, 462, 1414, 1168
180315387, 10592, -4635, -11605, -307, 2888, -770, -585, 463, -126, -257, 1184, 842, 585, 507, 158, 462, 1414, 1168
180323556, 10592, -4635, -11605, -307, 2888, -770, -585, 463, -126, -257, 1143, 920, 627, 511, 154, 496, 1502, 1252
180324351, 10592, -4635, -11605, -307, 2888, -770, -585, 463, -126, -257, 1143, 920, 627, 511, 154, 496, 1502, 1252
180339256, 10573, -4605, -11632, -370, 2946, -651, -615, -118, -22, -187, 1143, 920, 627, 511, 154, 496, 1502, 1252
180340077, 10573, -4605, -11632, -370, 2946, -651, -615, -118, -22, -187, 1102, 887, 668, 591, 155, 460, 1434, 1133
180340875, 10573, -4605, -11632, -370, 2946, -651, -615, -118, -22, -187, 1102, 887, 668, 591, 155, 460, 1434, 1133
180361753, 10526, -4654, -11652, -440, 3040, -1124, -729, -499, -73, -123, 1102, 887, 668, 591, 155, 460, 1434, 1133
180362546, 10526, -4654, -11652, -440, 3040, -1124, -729, -499, -73, -123, 1132, 832, 661, 638, 160, 467, 1300, 1109
180363344, 10526, -4654, -11652, -440, 3040, -1124, -729, -499, -73, -123, 1132, 832, 661, 638, 160, 467, 1300, 1109
180375559, 10481, -4671, -11687, -419, 2960, -1368, -829, -27, -211, -87, 1132, 832, 661, 638, 160, 467, 1300, 1109
180383508, 10481, -4671, -11687, -419, 2960, -1368, -829, -27, -211, -87, 1156, 877, 708, 621, 148, 467, 1259, 1081
180384308, 10481, -4671, -11687, -419, 2960, -1368, -829, -27, -211, -87, 1156, 877, 708, 621, 148, 467, 1259, 1081
180399194, 10471, -4621, -11718, -387, 2907, -976, -723, 323, -116, -110, 1156, 877, 708, 621, 148, 467, 1259, 1081
180400014, 10471, -4621, -11718, -387, 2907, -976, -723, 323, -116, -110, 1117, 922, 725, 582, 147, 493, 1286, 1163
180400840, 10471, -4621, -11718, -387, 2907, -976, -723, 323, -116, -110, 1117, 922, 725, 582, 147, 493, 1286, 1163
180421739, 10451, -4597, -11744, -421, 2916, -794, -679, -40, -66, -151, 1117, 922, 725, 582, 147, 493, 1286, 1163
180422555, 10451, -4597, -11744, -421, 2916, -794, -679, -40, -66, -151, 1191, 906, 688, 577, 143, 478, 1225, 1044
180423353, 10451, -4597, -11744, -421, 2916, -794, -679, -40, -66, -151, 1191, 906, 688, 577, 143, 478, 1225, 1044
180435414, 10423, -4611, -11760, -485, 2958, -933, -687, -323, -25, -167, 1191, 906, 688, 577, 143, 478, 1225, 1044
180443507, 10423, -4611, -11760, -485, 2958, -933, -687, -323, -25, -167, 1163, 910, 699, 498, 140, 486, 1263, 1028
180444326, 10423, -4611, -11760, -485, 2958, -933, -687, -323, -25, -167, 1163, 910, 699, 498, 140, 486, 1263, 1028
180459218, 10405, -4627, -11768, -530, 2937, -1047, -668, -263, 2, -140, 1163, 910, 699, 498, 140, 486, 1263, 1028
180460011, 10405, -4627, -11768, -530, 2937, -1047, -668, -263, 2, -140, 1041, 998, 689, 466, 128, 419, 1235, 1030
180460832, 10405, -4627, -11768, -530, 2937, -1047, -668, -263, 2, -140, 1041, 998, 689, 466, 128, 419, 1235, 1030
180481759, 10393, -4647, -11770, -541, 2865, -1119, -669, -139, -7, -47, 1041, 998, 689, 466, 128, 419, 1235, 1030
180482561, 10393, -4647, -11770, -541, 2865, -1119, -669, -139, -7, -47, 906, 904, 623, 376, 135, 420, 1335, 994
180483380, 10393, -4647, -11770, -541, 2865, -1119, -669, -139, -7, -47, 906, 904, 623, 376, 135, 420, 1335, 994
180495443, 10386, -4661, -11771, -537, 2857, -1084, -660, -46, -10, 1, 906, 904, 623, 376, 135, 420, 1335, 994
180503531, 10386, -4661, -11771, -537, 2857, -1084, -660, -46, -10, 1, 964, 843, 651, 402, 128, 369, 1294, 912
180504348, 10386, -4661, -11771, -537, 2857, -1084, -660, -46, -10, 1, 964, 843, 651, 402, 128, 369, 1294, 912
180519241, 10387, -4665, -11768, -548, 2873, -968, -619, -54, 40, -16, 964, 843, 651, 402, 128, 369, 1294, 912
180520050, 10387, -4665, -11768, -548, 2873, -968, -619, -54, 40, -16, 879, 772, 658, 409, 130, 314, 1315, 846
180520871, 10387, -4665, -11768, -548, 2873, -968, -619, -54, 40, -16, 879, 772, 658, 409, 130, 314, 1315, 846
180541693, 10379, -4676, -11769, -578, 2910, -924, -651, -163, 35, -38, 879, 772, 658, 409, 130, 314, 1315, 846
180542500, 10379, -4676, -11769, -578, 2910, -924, -651, -163, 35, -38, 889, 733, 594, 411, 130, 268, 1244, 866
180543314, 10379, -4676, -11769, -578, 2910, -924, -651, -163, 35, -38, 889, 733, 594, 411, 130, 268, 1244, 866
180555381, 10366, -4697, -11772, -597, 2937, -1048, -690, -164, -5, -27, 889, 733, 594, 411, 130, 268, 1244, 866
180563535, 10366, -4697, -11772, -597, 2937, -1048, -690, -164, -5, -27, 891, 648, 583, 385, 127, 284, 1281, 785
180564356, 10366, -4697, -11772, -597, 2937, -1048, -690, -164, -5, -27, 891, 648, 583, 385, 127, 284, 1281, 785
180577934, 10357, -4705, -11777, -587, 2925, -1067, -700, 2, -30, 15, 891, 648, 583, 385, 127, 284, 1281, 785
180586037, 10357, -4705, -11777, -587, 2925, -1067, -700, 2, -30, 15, 907, 647, 632, 332, 115, 265, 1259, 805
180586839, 10357, -4705, -11777, -587, 2925, -1067, -700, 2, -30, 15, 907, 647, 632, 332, 115, 265, 1259, 805
180601746, 10352, -4712, -11779, -580, 2898, -981, -662, 2, -17, 43, 907, 647, 632, 332, 115, 265, 1259, 805
180602529, 10352, -4712, -11779, -580, 2898, -981, -662, 2, -17, 43, 805, 730, 569, 298, 100, 242, 1293, 769
180603360, 10352, -4712, -11779, -580, 2898, -981, -662, 2, -17, 43, 805, 730, 569, 298, 100, 242, 1293, 769
180615399, 10347, -4728, -11776, -591, 2949, -953, -659, -102, 14, 53, 805, 730, 569, 298, 100, 242, 1293, 769
180623511, 10347, -4728, -11776, -591, 2949, -953, -659, -102, 14, 53, 722, 715, 689, 338, 99, 246, 1233, 780
180624325, 10347, -4728, -11776, -591, 2949, -953, -659, -102, 14, 53, 722, 715, 689, 338, 99, 246, 1233, 780
180637909, 10338, -4750, -11775, -608, 2965, -975, -700, -147, 20, 37, 722, 715, 689, 338, 99, 246, 1233, 780
180645992, 10338, -4750, -11775, -608, 2965, -975, -700, -147, 20, 37, 695, 690, 727, 385, 96, 232, 1214, 764
180646791, 10338, -4750, -11775, -608, 2965, -975, -700, -147, 20, 37, 695, 690, 727, 385, 96, 232, 1214, 764
180661712, 10325, -4771, -11777, -609, 2918, -1060, -719, -96, -19, 38, 695, 690, 727, 385, 96, 232, 1214, 764
180662539, 10325, -4771, -11777, -609, 2918, -1060, -719, -96, -19, 38, 719, 695, 739, 438, 107, 225, 1206, 804
180663351, 10325, -4771, -11777, -609, 2918, -1060, -719, -96, -19, 38, 719, 695, 739, 438, 107, 225, 1206, 804
180675685, 10313, -4785, -11783, -595, 2896, -1074, -742, -2, -43, 52, 719, 695, 739, 438, 107, 225, 1206, 804
180683560, 10313, -4785, -11783, -595, 2896, -1074, -742, -2, -43, 52, 718, 683, 700, 428, 106, 198, 1099, 801
180684353, 10313, -4785, -11783, -595, 2896, -1074, -742, -2, -43, 52, 718, 683, 700, 428, 106, 198, 1099, 801
180697888, 10309, -4794, -11783, -587, 2885, -1023, -700, 2, -1, 40, 718, 683, 700, 428, 106, 198, 1099, 801
180706029, 10309, -4794, -11783, -587, 2885, -1023, -700, 2, -1, 40, 771, 586, 709, 424, 102, 167, 1004, 715
180706848, 10309, -4794, -11783, -587, 2885, -1023, -700, 2, -1, 40, 771, 586, 709, 424, 102, 167, 1004, 715
180721090, 10312, -4803, -11776, -599, 2953, -949, -686, -68, 70, 38, 771, 586, 709, 424, 102, 167, 1004, 715
180721902, 10312, -4803, -11776, -599, 2953, -949, -686, -68, 70, 38, 788, 610, 644, 506, 97, 163, 941, 653
180727865, 10312, -4803, -11776, -599, 2953, -949, -686, -68, 70, 38, 788, 610, 644, 506, 97, 163, 941, 653
180735487, 10306, -4826, -11771, -623, 2950, -974, -714, -172, 60, 34, 788, 610, 644, 506, 97, 163, 941, 653
180743526, 10306, -4826, -11771, -623, 2950, -974, -714, -172, 60, 34, 771, 633, 598, 471, 94, 188, 980, 633
180744354, 10306, -4826, -11771, -623, 2950, -974, -714, -172, 60, 34, 771, 633, 598, 471, 94, 188, 980, 633