Timestamp, Orientation x, Orientation y, Orientation z, Orientation w, Acceleration x, Acceleration y, Acceleration z, Rotation x, Rotation y, Rotation z, EMG 0, EMG 1, EMG 2, EMG 3, EMG 4, EMG 5, EMG 6, EMG 7
148200508, 8558, -3174, -13462, -1979, 4062, 43, -1868, -151, -5, 3, 0, 0, 0, 0, 0, 0, 0, 0
148208004, 8549, -3224, -13444, -2052, 4083, 68, -1893, -488, 47, 63, 0, 0, 0, 0, 0, 0, 0, 0
148223010, 8545, -3281, -13418, -2153, 4133, 231, -1882, -604, 107, 101, 0, 0, 0, 0, 0, 0, 0, 0
148245538, 8554, -3368, -13376, -2242, 4234, 178, -1930, -652, 194, 258, 0, 0, 0, 0, 0, 0, 0, 0
148260525, 8580, -3503, -13306, -2345, 4275, 148, -1922, -861, 335, 474, 0, 0, 0, 0, 0, 0, 0, 0
148268672, 8580, -3503, -13306, -2345, 4275, 148, -1922, -861, 335, 474, 117, 81, 316, 141, 49, 76, 37, 44
148269438, 8580, -3503, -13306, -2345, 4275, 148, -1922, -861, 335, 474, 117, 81, 316, 141, 49, 76, 37, 44
148283030, 8628, -3687, -13207, -2445, 4245, 121, -1864, -989, 485, 754, 117, 81, 316, 141, 49, 76, 37, 44
148291122, 8628, -3687, -13207, -2445, 4245, 121, -1864, -989, 485, 754, 118, 67, 287, 123, 68, 137, 41, 45
148291943, 8628, -3687, -13207, -2445, 4245, 121, -1864, -989, 485, 754, 118, 67, 287, 123, 68, 137, 41, 45
148305499, 8699, -3916, -13074, -2547, 4214, 124, -1766, -1128, 649, 1039, 118, 67, 287, 123, 68, 137, 41, 45
148313671, 8699, -3916, -13074, -2547, 4214, 124, -1766, -1128, 649, 1039, 123, 65, 274, 68, 82, 221, 43, 46
148314376, 8699, -3916, -13074, -2547, 4214, 124, -1766, -1128, 649, 1039, 123, 65, 274, 68, 82, 221, 43, 46
148320574, 8771, -4224, -12908, -2658, 4195, -51, -1717, -1448, 710, 1349, 123, 65, 274, 68, 82, 221, 43, 46
148328672, 8771, -4224, -12908, -2658, 4195, -51, -1717, -1448, 710, 1349, 124, 60, 241, 74, 94, 286, 53, 51
148329440, 8771, -4224, -12908, -2658, 4195, -51, -1717, -1448, 710, 1349, 124, 60, 241, 74, 94, 286, 53, 51
148343002, 8853, -4583, -12707, -2755, 4215, -296, -1857, -1574, 804, 1643, 124, 60, 241, 74, 94, 286, 53, 51
148351099, 8853, -4583, -12707, -2755, 4215, -296, -1857, -1574, 804, 1643, 122, 86, 145, 81, 104, 294, 58, 40
148351922, 8853, -4583, -12707, -2755, 4215, -296, -1857, -1574, 804, 1643, 122, 86, 145, 81, 104, 294, 58, 40
148365501, 8950, -4967, -12477, -2827, 4132, -583, -1832, -1552, 905, 1864, 122, 86, 145, 81, 104, 294, 58, 40
148373604, 8950, -4967, -12477, -2827, 4132, -583, -1832, -1552, 905, 1864, 58, 92, 148, 85, 112, 344, 57, 36
148374417, 8950, -4967, -12477, -2827, 4132, -583, -1832, -1552, 905, 1864, 58, 92, 148, 85, 112, 344, 57, 36
148380686, 9077, -5365, -12211, -2858, 4008, -829, -1814, -1405, 1077, 2124, 58, 92, 148, 85, 112, 344, 57, 36
148388678, 9077, -5365, -12211, -2858, 4008, -829, -1814, -1405, 1077, 2124, 55, 94, 134, 86, 104, 353, 59, 36
148389456, 9077, -5365, -12211, -2858, 4008, -829, -1814, -1405, 1077, 2124, 55, 94, 134, 86, 104, 353, 59, 36
148403007, 9222, -5757, -11923, -2847, 3835, -1049, -1791, -1193, 1165, 2279, 55, 94, 134, 86, 104, 353, 59, 36
148411110, 9222, -5757, -11923, -2847, 3835, -1049, -1791, -1193, 1165, 2279, 46, 107, 149, 93, 98, 314, 69, 37
148411924, 9222, -5757, -11923, -2847, 3835, -1049, -1791, -1193, 1165, 2279, 46, 107, 149, 93, 98, 314, 69, 37
148425498, 9375, -6138, -11619, -2809, 3661, -1126, -1728, -1043, 1213, 2366, 46, 107, 149, 93, 98, 314, 69, 37
148433675, 9375, -6138, -11619, -2809, 3661, -1126, -1728, -1043, 1213, 2366, 43, 113, 164, 98, 98, 269, 67, 35
148434469, 9375, -6138, -11619, -2809, 3661, -1126, -1728, -1043, 1213, 2366, 43, 113, 164, 98, 98, 269, 67, 35
148440677, 9542, -6501, -11295, -2749, 3461, -1127, -1715, -877, 1320, 2436, 43, 113, 164, 98, 98, 269, 67, 35
148448597, 9542, -6501, -11295, -2749, 3461, -1127, -1715, -877, 1320, 2436, 43, 106, 190, 116, 88, 279, 66, 38
148449425, 9542, -6501, -11295, -2749, 3461, -1127, -1715, -877, 1320, 2436, 43, 106, 190, 116, 88, 279, 66, 38
148463002, 9692, -6861, -10964, -2688, 3304, -1082, -1605, -897, 1277, 2452, 43, 106, 190, 116, 88, 279, 66, 38
148471149, 9692, -6861, -10964, -2688, 3304, -1082, -1605, -897, 1277, 2452, 34, 103, 193, 113, 81, 221, 68, 38
148471972, 9692, -6861, -10964, -2688, 3304, -1082, -1605, -897, 1277, 2452, 34, 103, 193, 113, 81, 221, 68, 38
148485475, 9821, -7234, -10619, -2626, 3223, -1210, -1610, -988, 1237, 2516, 34, 103, 193, 113, 81, 221, 68, 38
148494049, 9821, -7234, -10619, -2626, 3223, -1210, -1610, -988, 1237, 2516, 57, 103, 206, 114, 79, 176, 67, 61
148501144, 9821, -7234, -10619, -2626, 3223, -1210, -1610, -988, 1237, 2516, 57, 103, 206, 114, 79, 176, 67, 61
148502097, 9924, -7614, -10267, -2562, 3101, -1335, -1609, -1066, 1162, 2545, 57, 103, 206, 114, 79, 176, 67, 61
148510045, 9924, -7614, -10267, -2562, 3101, -1335, -1609, -1066, 1162, 2545, 135, 101, 229, 134, 79, 173, 59, 68
148510844, 9924, -7614, -10267, -2562, 3101, -1335, -1609, -1066, 1162, 2545, 135, 101, 229, 134, 79, 173, 59, 68
148511666, 9924, -7614, -10267, -2562, 3101, -1335, -1609, -1066, 1162, 2545, 135, 101, 229, 134, 79, 173, 59, 68
148512473, 9924, -7614, -10267, -2562, 3101, -1335, -1609, -1066, 1162, 2545, 135, 101, 229, 134, 79, 173, 59, 68
148516770, 9924, -7614, -10267, -2562, 3101, -1335, -1609, -1066, 1162, 2545, 135, 101, 229, 134, 79, 173, 59, 68
148517572, 9924, -7614, -10267, -2562, 3101, -1335, -1609, -1066, 1162, 2545, 135, 101, 229, 134, 79, 173, 59, 68
148518398, 9924, -7614, -10267, -2562, 3101, -1335, -1609, -1066, 1162, 2545, 135, 101, 229, 134, 79, 173, 59, 68
148531898, 10008, -7992, -9909, -2495, 3067, -1391, -1632, -1094, 1117, 2557, 135, 101, 229, 134, 79, 173, 59, 68
148532717, 10008, -7992, -9909, -2495, 3067, -1391, -1632, -1094, 1117, 2557, 147, 107, 235, 154, 73, 163, 59, 76
148533527, 10008, -7992, -9909, -2495, 3067, -1391, -1632, -1094, 1117, 2557, 147, 107, 235, 154, 73, 163, 59, 76
148545530, 10078, -8359, -9544, -2435, 3015, -1415, -1600, -1118, 1116, 2522, 147, 107, 235, 154, 73, 163, 59, 76
148553675, 10078, -8359, -9544, -2435, 3015, -1415, -1600, -1118, 1116, 2522, 150, 99, 232, 136, 68, 129, 56, 76
148554438, 10078, -8359, -9544, -2435, 3015, -1415, -1600, -1118, 1116, 2522, 150, 99, 232, 136, 68, 129, 56, 76
148560586, 10137, -8714, -9169, -2384, 2927, -1477, -1597, -1130, 1151, 2479, 150, 99, 232, 136, 68, 129, 56, 76
148568673, 10137, -8714, -9169, -2384, 2927, -1477, -1597, -1130, 1151, 2479, 154, 100, 240, 140, 62, 114, 51, 81
148569462, 10137, -8714, -9169, -2384, 2927, -1477, -1597, -1130, 1151, 2479, 154, 100, 240, 140, 62, 114, 51, 81
148583025, 10182, -9047, -8805, -2323, 2878, -1494, -1602, -1050, 1058, 2415, 154, 100, 240, 140, 62, 114, 51, 81
148591129, 10182, -9047, -8805, -2323, 2878, -1494, -1602, -1050, 1058, 2415, 152, 99, 262, 139, 59, 105, 50, 76
148591953, 10182, -9047, -8805, -2323, 2878, -1494, -1602, -1050, 1058, 2415, 152, 99, 262, 139, 59, 105, 50, 76
148605502, 10207, -9370, -8446, -2265, 2859, -1584, -1679, -1070, 999, 2345, 152, 99, 262, 139, 59, 105, 50, 76
148613673, 10207, -9370, -8446, -2265, 2859, -1584, -1679, -1070, 999, 2345, 146, 104, 253, 159, 56, 91, 47, 89
148614418, 10207, -9370, -8446, -2265, 2859, -1584, -1679, -1070, 999, 2345, 146, 104, 253, 159, 56, 91, 47, 89
148620572, 10216, -9676, -8099, -2206, 2828, -1654, -1758, -1035, 929, 2260, 146, 104, 253, 159, 56, 91, 47, 89
148628685, 10216, -9676, -8099, -2206, 2828, -1654, -1758, -1035, 929, 2260, 237, 143, 251, 159, 48, 72, 43, 115
148629421, 10216, -9676, -8099, -2206, 2828, -1654, -1758, -1035, 929, 2260, 237, 143, 251, 159, 48, 72, 43, 115
148643020, 10249, -9927, -7764, -2144, 2768, -1609, -1747, -740, 979, 2118, 237, 143, 251, 159, 48, 72, 43, 115
148651118, 10249, -9927, -7764, -2144, 2768, -1609, -1747, -740, 979, 2118, 348, 315, 371, 362, 66, 69, 57, 128
148651919, 10249, -9927, -7764, -2144, 2768, -1609, -1747, -740, 979, 2118, 348, 315, 371, 362, 66, 69, 57, 128
148665494, 10259, -10173, -7429, -2129, 2741, -1664, -1891, -909, 1090, 1923, 348, 315, 371, 362, 66, 69, 57, 128
148673597, 10259, -10173, -7429, -2129, 2741, -1664, -1891, -909, 1090, 1923, 658, 604, 530, 547, 141, 95, 170, 314
148674441, 10259, -10173, -7429, -2129, 2741, -1664, -1891, -909, 1090, 1923, 658, 604, 530, 547, 141, 95, 170, 314
148680576, 10261, -10409, -7078, -2173, 2744, -1644, -1855, -1057, 1329, 1759, 658, 604, 530, 547, 141, 95, 170, 314
148688671, 10261, -10409, -7078, -2173, 2744, -1644, -1855, -1057, 1329, 1759, 813, 789, 591, 700, 175, 137, 235, 597
148689434, 10261, -10409, -7078, -2173, 2744, -1644, -1855, -1057, 1329, 1759, 813, 789, 591, 700, 175, 137, 235, 597
148702998, 10234, -10641, -6768, -2162, 2762, -1848, -1935, -975, 924, 1770, 813, 789, 591, 700, 175, 137, 235, 597
148718667, 10234, -10641, -6768, -2162, 2762, -1848, -1935, -975, 924, 1770, 1034, 936, 711, 754, 187, 152, 405, 770
148719461, 10234, -10641, -6768, -2162, 2762, -1848, -1935, -975, 924, 1770, 1034, 936, 711, 754, 187, 152, 405, 770
148734424, 10211, -10834, -6508, -2107, 2663, -1552, -1968, -674, 628, 1684, 1034, 936, 711, 754, 187, 152, 405, 770
148735261, 10211, -10834, -6508, -2107, 2663, -1552, -1968, -674, 628, 1684, 1244, 1121, 786, 805, 224, 174, 543, 881
148736042, 10211, -10834, -6508, -2107, 2663, -1552, -1968, -674, 628, 1684, 1244, 1121, 786, 805, 224, 174, 543, 881
148740669, 10136, -10977, -6358, -2190, 2486, -1267, -1744, -504, 936, 1060, 1244, 1121, 786, 805, 224, 174, 543, 881
148748599, 10136, -10977, -6358, -2190, 2486, -1267, -1744, -504, 936, 1060, 1302, 1237, 809, 796, 252, 236, 774, 1052
148749425, 10136, -10977, -6358, -2190, 2486, -1267, -1744, -504, 936, 1060, 1302, 1237, 809, 796, 252, 236, 774, 1052
148763001, 10026, -11070, -6292, -2405, 3140, -1252, -1778, -681, 1029, 402, 1302, 1237, 809, 796, 252, 236, 774, 1052
148771143, 10026, -11070, -6292, -2405, 3140, -1252, -1778, -681, 1029, 402, 1450, 1228, 889, 868, 251, 248, 866, 1218
148771967, 10026, -11070, -6292, -2405, 3140, -1252, -1778, -681, 1029, 402, 1450, 1228, 889, 868, 251, 248, 866, 1218
148785473, 10004, -11057, -6244, -2669, 3000, -640, -1432, -144, 1342, 144, 1450, 1228, 889, 868, 251, 248, 866, 1218
148793665, 10004, -11057, -6244, -2669, 3000, -640, -1432, -144, 1342, 144, 1481, 1228, 1025, 843, 245, 251, 913, 1260
148794454, 10004, -11057, -6244, -2669, 3000, -640, -1432, -144, 1342, 144, 1481, 1228, 1025, 843, 245, 251, 913, 1260
148800683, 9754, -11248, -6261, -2755, 3465, -1816, -2049, -1210, -100, 462, 1481, 1228, 1025, 843, 245, 251, 913, 1260
148808680, 9754, -11248, -6261, -2755, 3465, -1816, -2049, -1210, -100, 462, 1443, 1333, 992, 890, 246, 264, 950, 1287
148809540, 9754, -11248, -6261, -2755, 3465, -1816, -2049, -1210, -100, 462, 1443, 1333, 992, 890, 246, 264, 950, 1287
148822985, 9799, -11211, -6268, -2730, 2891, -1761, -1883, 855, 365, 466, 1443, 1333, 992, 890, 246, 264, 950, 1287
148831157, 9799, -11211, -6268, -2730, 2891, -1761, -1883, 855, 365, 466, 1314, 1238, 1027, 926, 230, 275, 964, 1283
148831970, 9799, -11211, -6268, -2730, 2891, -1761, -1883, 855, 365, 466, 1314, 1238, 1027, 926, 230, 275, 964, 1283
148845479, 9790, -11190, -6334, -2698, 2505, -1129, -1897, 748, 52, 330, 1314, 1238, 1027, 926, 230, 275, 964, 1283
148853675, 9790, -11190, -6334, -2698, 2505, -1129, -1897, 748, 52, 330, 1305, 1271, 1010, 922, 248, 252, 859, 1278
148854469, 9790, -11190, -6334, -2698, 2505, -1129, -1897, 748, 52, 330, 1305, 1271, 1010, 922, 248, 252, 859, 1278
148860598, 9680, -11247, -6398, -2704, 2558, -1507, -1870, -64, -117, 155, 1305, 1271, 1010, 922, 248, 252, 859, 1278
148867995, 9680, -11247, -6398, -2704, 2558, -1507, -1870, -64, -117, 155, 1012, 1221, 867, 857, 230, 242, 801, 1134
148875419, 9680, -11247, -6398, -2704, 2558, -1507, -1870, -64, -117, 155, 1012, 1221, 867, 857, 230, 242, 801, 1134
148883126, 9607, -11267, -6468, -2714, 2538, -1499, -1809, 161, -35, 55, 1012, 1221, 867, 857, 230, 242, 801, 1134
148891094, 9607, -11267, -6468, -2714, 2538, -1499, -1809, 161, -35, 55, 883, 1143, 641, 809, 227, 225, 768, 1015
148891913, 9607, -11267, -6468, -2714, 2538, -1499, -1809, 161, -35, 55, 883, 1143, 641, 809, 227, 225, 768, 1015
148905503, 9503, -11308, -6541, -2736, 2583, -1542, -1854, -57, -96, 9, 883, 1143, 641, 809, 227, 225, 768, 1015
148913678, 9503, -11308, -6541, -2736, 2583, -1542, -1854, -57, -96, 9, 705, 930, 556, 745, 233, 205, 676, 1015
148914463, 9503, -11308, -6541, -2736, 2583, -1542, -1854, -57, -96, 9, 705, 930, 556, 745, 233, 205, 676, 1015
148920669, 9426, -11339, -6596, -2746, 2519, -1738, -1824, 31, -30, 8, 705, 930, 556, 745, 233, 205, 676, 1015
148936144, 9426, -11339, -6596, -2746, 2519, -1738, -1824, 31, -30, 8, 612, 939, 344, 689, 221, 171, 564, 1000
148936941, 9426, -11339, -6596, -2746, 2519, -1738, -1824, 31, -30, 8, 612, 939, 344, 689, 221, 171, 564, 1000
148943132, 9368, -11358, -6644, -2746, 2429, -1753, -1773, 125, -7, 12, 612, 939, 344, 689, 221, 171, 564, 1000
148951150, 9368, -11358, -6644, -2746, 2429, -1753, -1773, 125, -7, 12, 508, 789, 182, 649, 164, 133, 491, 951
148951968, 9368, -11358, -6644, -2746, 2429, -1753, -1773, 125, -7, 12, 508, 789, 182, 649, 164, 133, 491, 951
148965474, 9320, -11379, -6684, -2724, 2318, -1844, -1698, 148, -68, 50, 508, 789, 182, 649, 164, 133, 491, 951
148973669, 9320, -11379, -6684, -2724, 2318, -1844, -1698, 148, -68, 50, 498, 835, 125, 666, 175, 112, 413, 1007
148974458, 9320, -11379, -6684, -2724, 2318, -1844, -1698, 148, -68, 50, 498, 835, 125, 666, 175, 112, 413, 1007
148980601, 9291, -11391, -6725, -2674, 2317, -1969, -1654, 272, -159, 89, 498, 835, 125, 666, 175, 112, 413, 1007
148996118, 9291, -11391, -6725, -2674, 2317, -1969, -1654, 272, -159, 89, 518, 889, 93, 658, 167, 167, 528, 1000
148996940, 9291, -11391, -6725, -2674, 2317, -1969, -1654, 272, -159, 89, 518, 889, 93, 658, 167, 167, 528, 1000
149011938, 9312, -11367, -6777, -2570, 2264, -2083, -1589, 674, -275, 126, 518, 889, 93, 658, 167, 167, 528, 1000
149012720, 9312, -11367, -6777, -2570, 2264, -2083, -1589, 674, -275, 126, 517, 899, 88, 642, 154, 172, 740, 944
149013562, 9312, -11367, -6777, -2570, 2264, -2083, -1589, 674, -275, 126, 517, 899, 88, 642, 154, 172, 740, 944
149025487, 9360, -11318, -6852, -2404, 2277, -2233, -1613, 1016, -500, 168, 517, 899, 88, 642, 154, 172, 740, 944
149033681, 9360, -11318, -6852, -2404, 2277, -2233, -1613, 1016, -500, 168, 562, 877, 85, 694, 214, 200, 935, 1038
149034453, 9360, -11318, -6852, -2404, 2277, -2233, -1613, 1016, -500, 168, 562, 877, 85, 694, 214, 200, 935, 1038
149040606, 9529, -11164, -6952, -2166, 2230, -2341, -1596, 1837, -660, 147, 562, 877, 85, 694, 214, 200, 935, 1038
149064327, 9529, -11164, -6952, -2166, 2230, -2341, -1596, 1837, -660, 147, 520, 873, 78, 694, 220, 210, 1007, 1020
149065152, 9529, -11164, -6952, -2166, 2230, -2341, -1596, 1837, -660, 147, 520, 873, 78, 694, 220, 210, 1007, 1020
149066079, 9788, -10909, -7085, -1859, 2126, -1974, -1490, 2717, -739, 101, 520, 873, 78, 694, 220, 210, 1007, 1020
149073203, 9788, -10909, -7085, -1859, 2126, -1974, -1490, 2717, -739, 101, 526, 841, 101, 566, 199, 223, 1099, 1013
149074021, 9788, -10909, -7085, -1859, 2126, -1974, -1490, 2717, -739, 101, 526, 841, 101, 566, 199, 223, 1099, 1013
149074829, 9788, -10909, -7085, -1859, 2126, -1974, -1490, 2717, -739, 101, 526, 841, 101, 566, 199, 223, 1099, 1013
149075671, 9788, -10909, -7085, -1859, 2126, -1974, -1490, 2717, -739, 101, 526, 841, 101, 566, 199, 223, 1099, 1013
149079952, 9788, -10909, -7085, -1859, 2126, -1974, -1490, 2717, -739, 101, 526, 841, 101, 566, 199, 223, 1099, 1013
149080772, 9788, -10909, -7085, -1859, 2126, -1974, -1490, 2717, -739, 101, 526, 841, 101, 566, 199, 223, 1099, 1013
149081584, 9788, -10909, -7085, -1859, 2126, -1974, -1490, 2717, -739, 101, 526, 841, 101, 566, 199, 223, 1099, 1013
149082401, 9788, -10909, -7085, -1859, 2126, -1974, -1490, 2717, -739, 101, 526, 841, 101, 566, 199, 223, 1099, 1013
149085598, 10014, -10662, -7219, -1535, 2182, -1601, -1406, 2621, -899, 200, 526, 841, 101, 566, 199, 223, 1099, 1013
149093687, 10014, -10662, -7219, -1535, 2182, -1601, -1406, 2621, -899, 200, 530, 845, 137, 518, 202, 254, 1096, 1013
149094452, 10014, -10662, -7219, -1535, 2182, -1601, -1406, 2621, -899, 200, 530, 845, 137, 518, 202, 254, 1096, 1013
149100673, 10160, -10483, -7340, -1203, 2360, -1918, -1339, 2099, -1124, 394, 530, 845, 137, 518, 202, 254, 1096, 1013
149116126, 10160, -10483, -7340, -1203, 2360, -1918, -1339, 2099, -1124, 394, 620, 850, 459, 649, 208, 258, 1026, 995
149116955, 10160, -10483, -7340, -1203, 2360, -1918, -1339, 2099, -1124, 394, 620, 850, 459, 649, 208, 258, 1026, 995
149123100, 10408, -10179, -7476, -775, 2207, -1998, -914, 3114, -1240, 390, 620, 850, 459, 649, 208, 258, 1026, 995
149131164, 10408, -10179, -7476, -775, 2207, -1998, -914, 3114, -1240, 390, 588, 856, 864, 552, 140, 246, 910, 864
149131971, 10408, -10179, -7476, -775, 2207, -1998, -914, 3114, -1240, 390, 588, 856, 864, 552, 140, 246, 910, 864
149145478, 10755, -9726, -7624, -266, 1923, -1843, -776, 4206, -1263, 276, 588, 856, 864, 552, 140, 246, 910, 864
149153672, 10755, -9726, -7624, -266, 1923, -1843, -776, 4206, -1263, 276, 627, 987, 1022, 538, 130, 256, 954, 821
149154458, 10755, -9726, -7624, -266, 1923, -1843, -776, 4206, -1263, 276, 627, 987, 1022, 538, 130, 256, 954, 821
149160601, 11040, -9260, -7795, 260, 2049, -1437, -911, 4123, -1542, 271, 627, 987, 1022, 538, 130, 256, 954, 821
149176143, 11040, -9260, -7795, 260, 2049, -1437, -911, 4123, -1542, 271, 607, 1180, 1120, 522, 139, 253, 1090, 713
149176939, 11040, -9260, -7795, 260, 2049, -1437, -911, 4123, -1542, 271, 607, 1180, 1120, 522, 139, 253, 1090, 713
149183094, 11250, -8814, -7976, 751, 2361, -1326, -1020, 3733, -1655, 218, 607, 1180, 1120, 522, 139, 253, 1090, 713
149198670, 11250, -8814, -7976, 751, 2361, -1326, -1020, 3733, -1655, 218, 576, 1165, 1152, 609, 155, 199, 1125, 723
149199425, 11250, -8814, -7976, 751, 2361, -1326, -1020, 3733, -1655, 218, 576, 1165, 1152, 609, 155, 199, 1125, 723
149205578, 11468, -8306, -8148, 1245, 2290, -1533, -886, 4005, -1619, 60, 576, 1165, 1152, 609, 155, 199, 1125, 723
149213677, 11468, -8306, -8148, 1245, 2290, -1533, -886, 4005, -1619, 60, 552, 1158, 1143, 450, 146, 282, 1152, 658
149214443, 11468, -8306, -8148, 1245, 2290, -1533, -886, 4005, -1619, 60, 552, 1158, 1143, 450, 146, 282, 1152, 658
149220599, 11743, -7674, -8272, 1794, 2553, -1408, -769, 4824, -1474, 81, 552, 1158, 1143, 450, 146, 282, 1152, 658
149236160, 11743, -7674, -8272, 1794, 2553, -1408, -769, 4824, -1474, 81, 546, 1265, 967, 429, 179, 302, 1233, 632
149236948, 11743, -7674, -8272, 1794, 2553, -1408, -769, 4824, -1474, 81, 546, 1265, 967, 429, 179, 302, 1233, 632
149243107, 11988, -7010, -8365, 2367, 2588, -906, -599, 4950, -1515, 227, 546, 1265, 967, 429, 179, 302, 1233, 632
149258597, 11988, -7010, -8365, 2367, 2588, -906, -599, 4950, -1515, 227, 783, 1191, 884, 432, 192, 474, 1293, 625
149259503, 11988, -7010, -8365, 2367, 2588, -906, -599, 4950, -1515, 227, 783, 1191, 884, 432, 192, 474, 1293, 625
149265581, 12160, -6415, -8427, 2899, 2742, -1048, -488, 4390, -1429, 396, 783, 1191, 884, 432, 192, 474, 1293, 625
149273674, 12160, -6415, -8427, 2899, 2742, -1048, -488, 4390, -1429, 396, 835, 1063, 911, 452, 201, 550, 1249, 705
149274435, 12160, -6415, -8427, 2899, 2742, -1048, -488, 4390, -1429, 396, 835, 1063, 911, 452, 201, 550, 1249, 705
149280605, 12281, -5838, -8461, 3456, 2735, -1222, -317, 4300, -1485, 636, 835, 1063, 911, 452, 201, 550, 1249, 705
149296130, 12281, -5838, -8461, 3456, 2735, -1222, -317, 4300, -1485, 636, 871, 1083, 1000, 348, 194, 575, 1185, 667
149296927, 12281, -5838, -8461, 3456, 2735, -1222, -317, 4300, -1485, 636, 871, 1083, 1000, 348, 194, 575, 1185, 667
149303086, 12369, -5232, -8473, 4033, 2725, -857, -237, 4427, -1558, 746, 871, 1083, 1000, 348, 194, 575, 1185, 667
149318592, 12369, -5232, -8473, 4033, 2725, -857, -237, 4427, -1558, 746, 893, 1184, 973, 363, 196, 550, 1211, 663
149319428, 12369, -5232, -8473, 4033, 2725, -857, -237, 4427, -1558, 746, 893, 1184, 973, 363, 196, 550, 1211, 663
149325576, 12413, -4630, -8499, 4546, 2515, -411, -311, 4115, -1610, 536, 893, 1184, 973, 363, 196, 550, 1211, 663
149332939, 12413, -4630, -8499, 4546, 2515, -411, -311, 4115, -1610, 536, 902, 1139, 947, 455, 192, 546, 1174, 701
149341170, 12413, -4630, -8499, 4546, 2515, -411, -311, 4115, -1610, 536, 902, 1139, 947, 455, 192, 546, 1174, 701
149342123, 12414, -4023, -8543, 5015, 2920, -562, -480, 3936, -1707, 386, 902, 1139, 947, 455, 192, 546, 1174, 701
149356097, 12414, -4023, -8543, 5015, 2920, -562, -480, 3936, -1707, 386, 706, 1099, 932, 472, 183, 437, 1134, 652
149356923, 12414, -4023, -8543, 5015, 2920, -562, -480, 3936, -1707, 386, 706, 1099, 932, 472, 183, 437, 1134, 652
149363077, 12389, -3432, -8572, 5449, 2980, -677, -416, 3759, -1632, 341, 706, 1099, 932, 472, 183, 437, 1134, 652
149378666, 12389, -3432, -8572, 5449, 2980, -677, -416, 3759, -1632, 341, 787, 1073, 882, 465, 182, 401, 1065, 683
149379477, 12389, -3432, -8572, 5449, 2980, -677, -416, 3759, -1632, 341, 787, 1073, 882, 465, 182, 401, 1065, 683
149385670, 12340, -2820, -8569, 5897, 3066, -177, -593, 3908, -1587, 451, 787, 1073, 882, 465, 182, 401, 1065, 683
149392959, 12340, -2820, -8569, 5897, 3066, -177, -593, 3908, -1587, 451, 711, 1115, 875, 605, 207, 370, 1122, 715
149401167, 12340, -2820, -8569, 5897, 3066, -177, -593, 3908, -1587, 451, 711, 1115, 875, 605, 207, 370, 1122, 715
149402097, 12266, -2283, -8591, 6243, 2864, 276, -806, 3206, -1504, 286, 711, 1115, 875, 605, 207, 370, 1122, 715
149416101, 12266, -2283, -8591, 6243, 2864, 276, -806, 3206, -1504, 286, 809, 1104, 852, 574, 212, 431, 1108, 730
149416920, 12266, -2283, -8591, 6243, 2864, 276, -806, 3206, -1504, 286, 809, 1104, 852, 574, 212, 431, 1108, 730
149423139, 12187, -1829, -8642, 6472, 3146, 332, -911, 2455, -1341, 41, 809, 1104, 852, 574, 212, 431, 1108, 730
149438685, 12187, -1829, -8642, 6472, 3146, 332, -911, 2455, -1341, 41, 848, 1156, 812, 576, 232, 482, 1148, 704
149439455, 12187, -1829, -8642, 6472, 3146, 332, -911, 2455, -1341, 41, 848, 1156, 812, 576, 232, 482, 1148, 704
149445674, 12132, -1500, -8634, 6666, 3261, 536, -981, 1925, -975, -36, 848, 1156, 812, 576, 232, 482, 1148, 704
149461795, 12132, -1500, -8634, 6666, 3261, 536, -981, 1925, -975, -36, 818, 1213, 897, 569, 247, 535, 1111, 795
149462672, 12132, -1500, -8634, 6666, 3261, 536, -981, 1925, -975, -36, 818, 1213, 897, 569, 247, 535, 1111, 795
149463560, 12093, -1099, -8777, 6630, 3311, 574, -844, 1318, -523, -99, 818, 1213, 897, 569, 247, 535, 1111, 795
149476181, 12093, -1099, -8777, 6630, 3311, 574, -844, 1318, -523, -99, 705, 1211, 885, 579, 242, 529, 1112, 708
149476937, 12093, -1099, -8777, 6630, 3311, 574, -844, 1318, -523, -99, 705, 1211, 885, 579, 242, 529, 1112, 708
149483101, 12059, -839, -8931, 6522, 3172, 656, -816, 470, -253, -44, 705, 1211, 885, 579, 242, 529, 1112, 708
149498673, 12059, -839, -8931, 6522, 3172, 656, -816, 470, -253, -44, 738, 1171, 797, 503, 217, 528, 1076, 647
149499428, 12059, -839, -8931, 6522, 3172, 656, -816, 470, -253, -44, 738, 1171, 797, 503, 217, 528, 1076, 647
149505595, 12057, -672, -9071, 6351, 2994, 595, -672, -91, 10, -190, 738, 1171, 797, 503, 217, 528, 1076, 647
149521820, 12057, -672, -9071, 6351, 2994, 595, -672, -91, 10, -190, 540, 1147, 787, 514, 212, 484, 1053, 603
149522669, 12057, -672, -9071, 6351, 2994, 595, -672, -91, 10, -190, 540, 1147, 787, 514, 212, 484, 1053, 603
149523574, 12071, -570, -9206, 6137, 2977, 495, -518, -496, 149, -273, 540, 1147, 787, 514, 212, 484, 1053, 603
149536097, 12071, -570, -9206, 6137, 2977, 495, -518, -496, 149, -273, 528, 1041, 822, 459, 171, 441, 1032, 576
149536920, 12071, -570, -9206, 6137, 2977, 495, -518, -496, 149, -273, 528, 1041, 822, 459, 171, 441, 1032, 576
149543084, 12095, -509, -9323, 5914, 2949, 392, -344, -673, 238, -270, 528, 1041, 822, 459, 171, 441, 1032, 576
149558668, 12095, -509, -9323, 5914, 2949, 392, -344, -673, 238, -270, 544, 923, 774, 459, 143, 347, 1094, 507
149559510, 12095, -509, -9323, 5914, 2949, 392, -344, -673, 238, -270, 544, 923, 774, 459, 143, 347, 1094, 507
149565668, 12116, -456, -9429, 5703, 2982, 334, -266, -659, 237, -230, 544, 923, 774, 459, 143, 347, 1094, 507
149581801, 12116, -456, -9429, 5703, 2982, 334, -266, -659, 237, -230, 544, 919, 714, 440, 134, 287, 1007, 482
149582676, 12116, -456, -9429, 5703, 2982, 334, -266, -659, 237, -230, 544, 919, 714, 440, 134, 287, 1007, 482
149583553, 12125, -392, -9539, 5502, 2990, 365, -260, -596, 141, -203, 544, 919, 714, 440, 134, 287, 1007, 482
149596152, 12125, -392, -9539, 5502, 2990, 365, -260, -596, 141, -203, 516, 987, 778, 350, 118, 271, 983, 484
149596951, 12125, -392, -9539, 5502, 2990, 365, -260, -596, 141, -203, 516, 987, 778, 350, 118, 271, 983, 484
149603099, 12128, -328, -9645, 5311, 3050, 413, -246, -567, 110, -133, 516, 987, 778, 350, 118, 271, 983, 484
149618671, 12128, -328, -9645, 5311, 3050, 413, -246, -567, 110, -133, 498, 942, 775, 327, 111, 241, 923, 492
149619455, 12128, -328, -9645, 5311, 3050, 413, -246, -567, 110, -133, 498, 942, 775, 327, 111, 241, 923, 492
149625596, 12121, -283, -9750, 5134, 3037, 343, -211, -598, 76, -48, 498, 942, 775, 327, 111, 241, 923, 492
149641836, 12121, -283, -9750, 5134, 3037, 343, -211, -598, 76, -48, 393, 981, 807, 289, 97, 211, 858, 521
149642873, 12121, -283, -9750, 5134, 3037, 343, -211, -598, 76, -48, 393, 981, 807, 289, 97, 211, 858, 521
149643598, 12113, -233, -9837, 4987, 3060, 265, -148, -443, 86, 10, 393, 981, 807, 289, 97, 211, 858, 521
149656094, 12113, -233, -9837, 4987, 3060, 265, -148, -443, 86, 10, 345, 1153, 719, 284, 108, 181, 762, 454
149656915, 12113, -233, -9837, 4987, 3060, 265, -148, -443, 86, 10, 345, 1153, 719, 284, 108, 181, 762, 454
149663080, 12104, -161, -9912, 4862, 2999, 350, -142, -273, 62, 38, 345, 1153, 719, 284, 108, 181, 762, 454
149678594, 12104, -161, -9912, 4862, 2999, 350, -142, -273, 62, 38, 295, 1155, 714, 257, 102, 164, 822, 461
149679423, 12104, -161, -9912, 4862, 2999, 350, -142, -273, 62, 38, 295, 1155, 714, 257, 102, 164, 822, 461
149685670, 12087, -92, -9999, 4728, 3030, 357, -172, -331, -9, 18, 295, 1155, 714, 257, 102, 164, 822, 461
149701798, 12087, -92, -9999, 4728, 3030, 357, -172, -331, -9, 18, 284, 1070, 641, 234, 105, 169, 891, 543
149702674, 12087, -92, -9999, 4728, 3030, 357, -172, -331, -9, 18, 284, 1070, 641, 234, 105, 169, 891, 543
149703561, 12069, -19, -10075, 4609, 3080, 303, -150, -239, 6, 30, 284, 1070, 641, 234, 105, 169, 891, 543