Timestamp, Orientation x, Orientation y, Orientation z, Orientation w, Acceleration x, Acceleration y, Acceleration z, Rotation x, Rotation y, Rotation z, EMG 0, EMG 1, EMG 2, EMG 3, EMG 4, EMG 5, EMG 6, EMG 7
161393019, 8610, -3509, -13279, -2385, 4022, -5, -1784, 23, 11, 79, 0, 0, 0, 0, 0, 0, 0, 0
161400439, 8615, -3530, -13270, -2378, 4048, 38, -1764, -30, 9, 133, 0, 0, 0, 0, 0, 0, 0, 0
161423002, 8615, -3575, -13256, -2397, 4064, 29, -1807, -232, 31, 160, 0, 0, 0, 0, 0, 0, 0, 0
161437998, 8607, -3645, -13233, -2445, 4138, 13, -1798, -455, 20, 187, 0, 0, 0, 0, 0, 0, 0, 0
161461769, 8604, -3710, -13216, -2450, 4166, 122, -1770, -207, -52, 353, 0, 0, 0, 0, 0, 0, 0, 0
161462573, 8604, -3710, -13216, -2450, 4166, 122, -1770, -207, -52, 353, 37, 91, 210, 182, 57, 103, 138, 54
161463409, 8604, -3710, -13216, -2450, 4166, 122, -1770, -207, -52, 353, 37, 91, 210, 182, 57, 103, 138, 54
161484262, 8631, -3805, -13182, -2390, 4341, -2, -1779, 3, 3, 693, 37, 91, 210, 182, 57, 103, 138, 54
161485084, 8631, -3805, -13182, -2390, 4341, -2, -1779, 3, 3, 693, 37, 94, 236, 222, 80, 129, 172, 62
161485881, 8631, -3805, -13182, -2390, 4341, -2, -1779, 3, 3, 693, 37, 94, 236, 222, 80, 129, 172, 62
161497938, 8711, -3919, -13112, -2297, 4390, -64, -1683, 148, 242, 990, 37, 94, 236, 222, 80, 129, 172, 62
161506087, 8711, -3919, -13112, -2297, 4390, -64, -1683, 148, 242, 990, 37, 103, 324, 302, 99, 230, 200, 65
161506905, 8711, -3919, -13112, -2297, 4390, -64, -1683, 148, 242, 990, 37, 103, 324, 302, 99, 230, 200, 65
161521815, 8825, -4071, -13012, -2166, 4362, -200, -1628, 218, 410, 1329, 37, 103, 324, 302, 99, 230, 200, 65
161522651, 8825, -4071, -13012, -2166, 4362, -200, -1628, 218, 410, 1329, 38, 97, 347, 340, 114, 334, 219, 65
161523439, 8825, -4071, -13012, -2166, 4362, -200, -1628, 218, 410, 1329, 38, 97, 347, 340, 114, 334, 219, 65
161544295, 8959, -4269, -12882, -1999, 4376, -494, -1587, 231, 587, 1652, 38, 97, 347, 340, 114, 334, 219, 65
161545081, 8959, -4269, -12882, -1999, 4376, -494, -1587, 231, 587, 1652, 44, 99, 375, 346, 126, 368, 241, 65
161545908, 8959, -4269, -12882, -1999, 4376, -494, -1587, 231, 587, 1652, 44, 99, 375, 346, 126, 368, 241, 65
161557939, 9149, -4489, -12705, -1782, 4233, -778, -1541, 426, 901, 2005, 44, 99, 375, 346, 126, 368, 241, 65
161566118, 9149, -4489, -12705, -1782, 4233, -778, -1541, 426, 901, 2005, 48, 127, 456, 384, 134, 367, 260, 65
161566912, 9149, -4489, -12705, -1782, 4233, -778, -1541, 426, 901, 2005, 48, 127, 456, 384, 134, 367, 260, 65
161581823, 9377, -4722, -12486, -1524, 3989, -1172, -1449, 595, 1139, 2248, 48, 127, 456, 384, 134, 367, 260, 65
161582657, 9377, -4722, -12486, -1524, 3989, -1172, -1449, 595, 1139, 2248, 57, 175, 459, 374, 128, 365, 262, 79
161583429, 9377, -4722, -12486, -1524, 3989, -1172, -1449, 595, 1139, 2248, 57, 175, 459, 374, 128, 365, 262, 79
161604285, 9637, -4941, -12236, -1198, 3907, -1134, -1289, 975, 1275, 2503, 57, 175, 459, 374, 128, 365, 262, 79
161605110, 9637, -4941, -12236, -1198, 3907, -1134, -1289, 975, 1275, 2503, 59, 195, 412, 326, 120, 323, 270, 81
161605908, 9637, -4941, -12236, -1198, 3907, -1134, -1289, 975, 1275, 2503, 59, 195, 412, 326, 120, 323, 270, 81
161617990, 9939, -5129, -11944, -831, 3604, -1051, -1134, 1315, 1543, 2627, 59, 195, 412, 326, 120, 323, 270, 81
161626069, 9939, -5129, -11944, -831, 3604, -1051, -1134, 1315, 1543, 2627, 65, 206, 401, 270, 121, 230, 334, 86
161626885, 9939, -5129, -11944, -831, 3604, -1051, -1134, 1315, 1543, 2627, 65, 206, 401, 270, 121, 230, 334, 86
161641765, 10230, -5336, -11623, -484, 3306, -1088, -1036, 1148, 1641, 2704, 65, 206, 401, 270, 121, 230, 334, 86
161642595, 10230, -5336, -11623, -484, 3306, -1088, -1036, 1148, 1641, 2704, 60, 203, 419, 242, 116, 175, 339, 84
161643406, 10230, -5336, -11623, -484, 3306, -1088, -1036, 1148, 1641, 2704, 60, 203, 419, 242, 116, 175, 339, 84
161664310, 10513, -5545, -11276, -154, 3178, -1220, -963, 1068, 1737, 2694, 60, 203, 419, 242, 116, 175, 339, 84
161665105, 10513, -5545, -11276, -154, 3178, -1220, -963, 1068, 1737, 2694, 57, 191, 356, 169, 109, 154, 370, 88
161665962, 10513, -5545, -11276, -154, 3178, -1220, -963, 1068, 1737, 2694, 57, 191, 356, 169, 109, 154, 370, 88
161677957, 10781, -5738, -10920, 167, 3082, -1186, -928, 1070, 1750, 2644, 57, 191, 356, 169, 109, 154, 370, 88
161686056, 10781, -5738, -10920, 167, 3082, -1186, -928, 1070, 1750, 2644, 103, 178, 362, 147, 105, 153, 408, 72
161686883, 10781, -5738, -10920, 167, 3082, -1186, -928, 1070, 1750, 2644, 103, 178, 362, 147, 105, 153, 408, 72
161701790, 11026, -5895, -10577, 489, 2965, -1187, -958, 1175, 1630, 2505, 103, 178, 362, 147, 105, 153, 408, 72
161702667, 11026, -5895, -10577, 489, 2965, -1187, -958, 1175, 1630, 2505, 105, 164, 374, 111, 102, 164, 438, 80
161703342, 11026, -5895, -10577, 489, 2965, -1187, -958, 1175, 1630, 2505, 105, 164, 374, 111, 102, 164, 438, 80
161724310, 11259, -6000, -10248, 816, 3071, -1177, -881, 1365, 1516, 2341, 105, 164, 374, 111, 102, 164, 438, 80
161725136, 11259, -6000, -10248, 816, 3071, -1177, -881, 1365, 1516, 2341, 105, 161, 379, 103, 80, 143, 410, 86
161725920, 11259, -6000, -10248, 816, 3071, -1177, -881, 1365, 1516, 2341, 105, 161, 379, 103, 80, 143, 410, 86
161737982, 11487, -6070, -9919, 1117, 3103, -1147, -881, 1414, 1561, 2142, 105, 161, 379, 103, 80, 143, 410, 86
161746095, 11487, -6070, -9919, 1117, 3103, -1147, -881, 1414, 1561, 2142, 131, 169, 338, 88, 64, 142, 496, 101
161746930, 11487, -6070, -9919, 1117, 3103, -1147, -881, 1414, 1561, 2142, 131, 169, 338, 88, 64, 142, 496, 101
161761797, 11702, -6138, -9589, 1365, 3053, -931, -844, 1222, 1633, 1969, 131, 169, 338, 88, 64, 142, 496, 101
161762652, 11702, -6138, -9589, 1365, 3053, -931, -844, 1222, 1633, 1969, 264, 181, 345, 133, 69, 147, 544, 105
161763429, 11702, -6138, -9589, 1365, 3053, -931, -844, 1222, 1633, 1969, 264, 181, 345, 133, 69, 147, 544, 105
161784266, 11879, -6238, -9274, 1546, 2985, -999, -896, 801, 1626, 1792, 264, 181, 345, 133, 69, 147, 544, 105
161785079, 11879, -6238, -9274, 1546, 2985, -999, -896, 801, 1626, 1792, 434, 242, 344, 207, 90, 147, 547, 122
161785895, 11879, -6238, -9274, 1546, 2985, -999, -896, 801, 1626, 1792, 434, 242, 344, 207, 90, 147, 547, 122
161797941, 11979, -6286, -9094, 1648, 3015, -1188, -923, 842, 1385, 1542, 434, 242, 344, 207, 90, 147, 547, 122
161806092, 11979, -6286, -9094, 1648, 3015, -1188, -923, 842, 1385, 1542, 577, 289, 394, 281, 107, 121, 592, 133
161806925, 11979, -6286, -9094, 1648, 3015, -1188, -923, 842, 1385, 1542, 577, 289, 394, 281, 107, 121, 592, 133
161821817, 12085, -6257, -8955, 1746, 3074, -1052, -931, 1147, 1230, 1289, 577, 289, 394, 281, 107, 121, 592, 133
161822663, 12085, -6257, -8955, 1746, 3074, -1052, -931, 1147, 1230, 1289, 806, 502, 413, 343, 124, 132, 693, 173
161823439, 12085, -6257, -8955, 1746, 3074, -1052, -931, 1147, 1230, 1289, 806, 502, 413, 343, 124, 132, 693, 173
161844288, 12174, -6210, -8853, 1818, 3019, -1066, -873, 1073, 1074, 1037, 806, 502, 413, 343, 124, 132, 693, 173
161845083, 12174, -6210, -8853, 1818, 3019, -1066, -873, 1073, 1074, 1037, 958, 632, 438, 381, 127, 140, 678, 317
161845906, 12174, -6210, -8853, 1818, 3019, -1066, -873, 1073, 1074, 1037, 958, 632, 438, 381, 127, 140, 678, 317
161857938, 12256, -6137, -8780, 1861, 3032, -939, -872, 1065, 997, 840, 958, 632, 438, 381, 127, 140, 678, 317
161866108, 12256, -6137, -8780, 1861, 3032, -939, -872, 1065, 997, 840, 1093, 880, 451, 402, 158, 176, 741, 651
161866934, 12256, -6137, -8780, 1861, 3032, -939, -872, 1065, 997, 840, 1093, 880, 451, 402, 158, 176, 741, 651
161881759, 12321, -6050, -8746, 1883, 3058, -827, -859, 981, 837, 684, 1093, 880, 451, 402, 158, 176, 741, 651
161882568, 12321, -6050, -8746, 1883, 3058, -827, -859, 981, 837, 684, 1186, 1006, 494, 472, 198, 259, 854, 758
161883384, 12321, -6050, -8746, 1883, 3058, -827, -859, 981, 837, 684, 1186, 1006, 494, 472, 198, 259, 854, 758
161904292, 12366, -5991, -8730, 1847, 3047, -952, -989, 704, 910, 434, 1186, 1006, 494, 472, 198, 259, 854, 758
161905111, 12366, -5991, -8730, 1847, 3047, -952, -989, 704, 910, 434, 1208, 1169, 500, 543, 223, 328, 965, 956
161905913, 12366, -5991, -8730, 1847, 3047, -952, -989, 704, 910, 434, 1208, 1169, 500, 543, 223, 328, 965, 956
161917973, 12392, -5885, -8780, 1779, 2943, -608, -783, 609, 522, 102, 1208, 1169, 500, 543, 223, 328, 965, 956
161926044, 12392, -5885, -8780, 1779, 2943, -608, -783, 609, 522, 102, 1193, 1196, 731, 585, 238, 347, 1106, 1204
161926897, 12392, -5885, -8780, 1779, 2943, -608, -783, 609, 522, 102, 1193, 1196, 731, 585, 238, 347, 1106, 1204
161941775, 12340, -5831, -8908, 1669, 3692, -782, -1096, 182, 265, 152, 1193, 1196, 731, 585, 238, 347, 1106, 1204
161942694, 12340, -5831, -8908, 1669, 3692, -782, -1096, 182, 265, 152, 1177, 1260, 828, 700, 291, 392, 1216, 1283
161943480, 12340, -5831, -8908, 1669, 3692, -782, -1096, 182, 265, 152, 1177, 1260, 828, 700, 291, 392, 1216, 1283
161964319, 12298, -5814, -8989, 1613, 2773, -850, -835, 136, 202, 202, 1177, 1260, 828, 700, 291, 392, 1216, 1283
161965108, 12298, -5814, -8989, 1613, 2773, -850, -835, 136, 202, 202, 1180, 1203, 864, 798, 340, 412, 1263, 1285
161965936, 12298, -5814, -8989, 1613, 2773, -850, -835, 136, 202, 202, 1180, 1203, 864, 798, 340, 412, 1263, 1285
161977966, 12289, -5648, -9104, 1622, 2940, -691, -860, 998, -26, 45, 1180, 1203, 864, 798, 340, 412, 1263, 1285
161986088, 12289, -5648, -9104, 1622, 2940, -691, -860, 998, -26, 45, 1116, 1161, 866, 823, 329, 427, 1226, 1301
161986882, 12289, -5648, -9104, 1622, 2940, -691, -860, 998, -26, 45, 1116, 1161, 866, 823, 329, 427, 1226, 1301
162001789, 12246, -5539, -9228, 1619, 2957, -993, -812, 648, -138, 16, 1116, 1161, 866, 823, 329, 427, 1226, 1301
162002660, 12246, -5539, -9228, 1619, 2957, -993, -812, 648, -138, 16, 1130, 1163, 929, 849, 327, 418, 1204, 1256
162003417, 12246, -5539, -9228, 1619, 2957, -993, -812, 648, -138, 16, 1130, 1163, 929, 849, 327, 418, 1204, 1256
162024305, 12195, -5406, -9373, 1626, 3054, -727, -850, 735, -271, 83, 1130, 1163, 929, 849, 327, 418, 1204, 1256
162025128, 12195, -5406, -9373, 1626, 3054, -727, -850, 735, -271, 83, 1127, 1185, 814, 845, 324, 449, 1094, 1073
162025932, 12195, -5406, -9373, 1626, 3054, -727, -850, 735, -271, 83, 1127, 1185, 814, 845, 324, 449, 1094, 1073
162037939, 12130, -5327, -9504, 1614, 3051, -906, -840, 434, -215, 102, 1127, 1185, 814, 845, 324, 449, 1094, 1073
162046089, 12130, -5327, -9504, 1614, 3051, -906, -840, 434, -215, 102, 1075, 1145, 773, 791, 292, 446, 1058, 958
162046908, 12130, -5327, -9504, 1614, 3051, -906, -840, 434, -215, 102, 1075, 1145, 773, 791, 292, 446, 1058, 958
162061131, 12089, -5224, -9612, 1612, 2978, -731, -718, 556, -138, 130, 1075, 1145, 773, 791, 292, 446, 1058, 958
162061962, 12089, -5224, -9612, 1612, 2978, -731, -718, 556, -138, 130, 999, 1138, 767, 723, 222, 445, 1033, 836
162067932, 12089, -5224, -9612, 1612, 2978, -731, -718, 556, -138, 130, 999, 1138, 767, 723, 222, 445, 1033, 836
162085658, 12046, -5142, -9713, 1594, 2903, -716, -603, 379, -142, 109, 999, 1138, 767, 723, 222, 445, 1033, 836
162086495, 11879, -6238, -9274, 1546, 2985, -999, -896, 801, 1626, 1792, 999, 1138, 767, 723, 222, 445, 1033, 836
162087291, 11879, -6238, -9274, 1546, 2985, -999, -896, 801, 1626, 1792, 434, 242, 344, 207, 90, 147, 547, 122
162088110, 11879, -6238, -9274, 1546, 2985, -999, -896, 801, 1626, 1792, 434, 242, 344, 207, 90, 147, 547, 122
162093183, 11979, -6286, -9094, 1648, 3015, -1188, -923, 842, 1385, 1542, 434, 242, 344, 207, 90, 147, 547, 122
162094009, 11979, -6286, -9094, 1648, 3015, -1188, -923, 842, 1385, 1542, 577, 289, 394, 281, 107, 121, 592, 133
162094813, 11979, -6286, -9094, 1648, 3015, -1188, -923, 842, 1385, 1542, 577, 289, 394, 281, 107, 121, 592, 133
162095659, 11979, -6286, -9094, 1648, 3015, -1188, -923, 842, 1385, 1542, 577, 289, 394, 281, 107, 121, 592, 133
162100580, 11979, -6286, -9094, 1648, 3015, -1188, -923, 842, 1385, 1542, 577, 289, 394, 281, 107, 121, 592, 133
162101383, 11979, -6286, -9094, 1648, 3015, -1188, -923, 842, 1385, 1542, 577, 289, 394, 281, 107, 121, 592, 133
162102207, 11979, -6286, -9094, 1648, 3015, -1188, -923, 842, 1385, 1542, 577, 289, 394, 281, 107, 121, 592, 133
162103009, 11979, -6286, -9094, 1648, 3015, -1188, -923, 842, 1385, 1542, 577, 289, 394, 281, 107, 121, 592, 133
162108081, 11979, -6286, -9094, 1648, 3015, -1188, -923, 842, 1385, 1542, 577, 289, 394, 281, 107, 121, 592, 133
162109032, 12085, -6257, -8955, 1746, 3074, -1052, -931, 1147, 1230, 1289, 577, 289, 394, 281, 107, 121, 592, 133
162109830, 12085, -6257, -8955, 1746, 3074, -1052, -931, 1147, 1230, 1289, 806, 502, 413, 343, 124, 132, 693, 173
162110651, 12085, -6257, -8955, 1746, 3074, -1052, -931, 1147, 1230, 1289, 806, 502, 413, 343, 124, 132, 693, 173
162115659, 12085, -6257, -8955, 1746, 3074, -1052, -931, 1147, 1230, 1289, 806, 502, 413, 343, 124, 132, 693, 173
162116475, 12085, -6257, -8955, 1746, 3074, -1052, -931, 1147, 1230, 1289, 806, 502, 413, 343, 124, 132, 693, 173
162117278, 12085, -6257, -8955, 1746, 3074, -1052, -931, 1147, 1230, 1289, 806, 502, 413, 343, 124, 132, 693, 173
162118108, 12085, -6257, -8955, 1746, 3074, -1052, -931, 1147, 1230, 1289, 806, 502, 413, 343, 124, 132, 693, 173
162123052, 12085, -6257, -8955, 1746, 3074, -1052, -931, 1147, 1230, 1289, 806, 502, 413, 343, 124, 132, 693, 173
162123859, 12085, -6257, -8955, 1746, 3074, -1052, -931, 1147, 1230, 1289, 806, 502, 413, 343, 124, 132, 693, 173
162124676, 12085, -6257, -8955, 1746, 3074, -1052, -931, 1147, 1230, 1289, 806, 502, 413, 343, 124, 132, 693, 173
162125504, 12085, -6257, -8955, 1746, 3074, -1052, -931, 1147, 1230, 1289, 806, 502, 413, 343, 124, 132, 693, 173
162130561, 12085, -6257, -8955, 1746, 3074, -1052, -931, 1147, 1230, 1289, 806, 502, 413, 343, 124, 132, 693, 173
162131513, 12174, -6210, -8853, 1818, 3019, -1066, -873, 1073, 1074, 1037, 806, 502, 413, 343, 124, 132, 693, 173
162132315, 12174, -6210, -8853, 1818, 3019, -1066, -873, 1073, 1074, 1037, 958, 632, 438, 381, 127, 140, 678, 317
162133136, 12174, -6210, -8853, 1818, 3019, -1066, -873, 1073, 1074, 1037, 958, 632, 438, 381, 127, 140, 678, 317
162138142, 12174, -6210, -8853, 1818, 3019, -1066, -873, 1073, 1074, 1037, 958, 632, 438, 381, 127, 140, 678, 317
162138964, 12174, -6210, -8853, 1818, 3019, -1066, -873, 1073, 1074, 1037, 958, 632, 438, 381, 127, 140, 678, 317
162139763, 12174, -6210, -8853, 1818, 3019, -1066, -873, 1073, 1074, 1037, 958, 632, 438, 381, 127, 140, 678, 317
162140664, 12174, -6210, -8853, 1818, 3019, -1066, -873, 1073, 1074, 1037, 958, 632, 438, 381, 127, 140, 678, 317
162145598, 12174, -6210, -8853, 1818, 3019, -1066, -873, 1073, 1074, 1037, 958, 632, 438, 381, 127, 140, 678, 317
162146415, 12174, -6210, -8853, 1818, 3019, -1066, -873, 1073, 1074, 1037, 958, 632, 438, 381, 127, 140, 678, 317
162147240, 12174, -6210, -8853, 1818, 3019, -1066, -873, 1073, 1074, 1037, 958, 632, 438, 381, 127, 140, 678, 317
162148037, 12174, -6210, -8853, 1818, 3019, -1066, -873, 1073, 1074, 1037, 958, 632, 438, 381, 127, 140, 678, 317
162153238, 12256, -6137, -8780, 1861, 3032, -939, -872, 1065, 997, 840, 958, 632, 438, 381, 127, 140, 678, 317
162154040, 12256, -6137, -8780, 1861, 3032, -939, -872, 1065, 997, 840, 1093, 880, 451, 402, 158, 176, 741, 651
162154861, 12256, -6137, -8780, 1861, 3032, -939, -872, 1065, 997, 840, 1093, 880, 451, 402, 158, 176, 741, 651
162155665, 12256, -6137, -8780, 1861, 3032, -939, -872, 1065, 997, 840, 1093, 880, 451, 402, 158, 176, 741, 651
162160569, 12256, -6137, -8780, 1861, 3032, -939, -872, 1065, 997, 840, 1093, 880, 451, 402, 158, 176, 741, 651
162161393, 12256, -6137, -8780, 1861, 3032, -939, -872, 1065, 997, 840, 1093, 880, 451, 402, 158, 176, 741, 651
162162190, 12256, -6137, -8780, 1861, 3032, -939, -872, 1065, 997, 840, 1093, 880, 451, 402, 158, 176, 741, 651
162163017, 12256, -6137, -8780, 1861, 3032, -939, -872, 1065, 997, 840, 1093, 880, 451, 402, 158, 176, 741, 651
162168096, 12256, -6137, -8780, 1861, 3032, -939, -872, 1065, 997, 840, 1093, 880, 451, 402, 158, 176, 741, 651
162169012, 12321, -6050, -8746, 1883, 3058, -827, -859, 981, 837, 684, 1093, 880, 451, 402, 158, 176, 741, 651
162169819, 12321, -6050, -8746, 1883, 3058, -827, -859, 981, 837, 684, 1186, 1006, 494, 472, 198, 259, 854, 758
162170658, 12321, -6050, -8746, 1883, 3058, -827, -859, 981, 837, 684, 1186, 1006, 494, 472, 198, 259, 854, 758
162175658, 12321, -6050, -8746, 1883, 3058, -827, -859, 981, 837, 684, 1186, 1006, 494, 472, 198, 259, 854, 758
162176456, 12321, -6050, -8746, 1883, 3058, -827, -859, 981, 837, 684, 1186, 1006, 494, 472, 198, 259, 854, 758
162177288, 12321, -6050, -8746, 1883, 3058, -827, -859, 981, 837, 684, 1186, 1006, 494, 472, 198, 259, 854, 758
162178084, 12321, -6050, -8746, 1883, 3058, -827, -859, 981, 837, 684, 1186, 1006, 494, 472, 198, 259, 854, 758
162183042, 12321, -6050, -8746, 1883, 3058, -827, -859, 981, 837, 684, 1186, 1006, 494, 472, 198, 259, 854, 758
162183859, 12321, -6050, -8746, 1883, 3058, -827, -859, 981, 837, 684, 1186, 1006, 494, 472, 198, 259, 854, 758
162184661, 12321, -6050, -8746, 1883, 3058, -827, -859, 981, 837, 684, 1186, 1006, 494, 472, 198, 259, 854, 758
162185492, 12321, -6050, -8746, 1883, 3058, -827, -859, 981, 837, 684, 1186, 1006, 494, 472, 198, 259, 854, 758
162190656, 12321, -6050, -8746, 1883, 3058, -827, -859, 981, 837, 684, 1186, 1006, 494, 472, 198, 259, 854, 758
162191540, 12366, -5991, -8730, 1847, 3047, -952, -989, 704, 910, 434, 1186, 1006, 494, 472, 198, 259, 854, 758
162192355, 12366, -5991, -8730, 1847, 3047, -952, -989, 704, 910, 434, 1208, 1169, 500, 543, 223, 328, 965, 956
162193196, 12366, -5991, -8730, 1847, 3047, -952, -989, 704, 910, 434, 1208, 1169, 500, 543, 223, 328, 965, 956
162198185, 12366, -5991, -8730, 1847, 3047, -952, -989, 704, 910, 434, 1208, 1169, 500, 543, 223, 328, 965, 956
162198982, 12366, -5991, -8730, 1847, 3047, -952, -989, 704, 910, 434, 1208, 1169, 500, 543, 223, 328, 965, 956
162199810, 12366, -5991, -8730, 1847, 3047, -952, -989, 704, 910, 434, 1208, 1169, 500, 543, 223, 328, 965, 956
162200654, 12366, -5991, -8730, 1847, 3047, -952, -989, 704, 910, 434, 1208, 1169, 500, 543, 223, 328, 965, 956
162205588, 12366, -5991, -8730, 1847, 3047, -952, -989, 704, 910, 434, 1208, 1169, 500, 543, 223, 328, 965, 956
162206387, 12366, -5991, -8730, 1847, 3047, -952, -989, 704, 910, 434, 1208, 1169, 500, 543, 223, 328, 965, 956
162207212, 12366, -5991, -8730, 1847, 3047, -952, -989, 704, 910, 434, 1208, 1169, 500, 543, 223, 328, 965, 956
162208035, 12366, -5991, -8730, 1847, 3047, -952, -989, 704, 910, 434, 1208, 1169, 500, 543, 223, 328, 965, 956
162213214, 12392, -5885, -8780, 1779, 2943, -608, -783, 609, 522, 102, 1208, 1169, 500, 543, 223, 328, 965, 956
162214035, 12392, -5885, -8780, 1779, 2943, -608, -783, 609, 522, 102, 1193, 1196, 731, 585, 238, 347, 1106, 1204
162214842, 12392, -5885, -8780, 1779, 2943, -608, -783, 609, 522, 102, 1193, 1196, 731, 585, 238, 347, 1106, 1204
162215653, 12392, -5885, -8780, 1779, 2943, -608, -783, 609, 522, 102, 1193, 1196, 731, 585, 238, 347, 1106, 1204
162220533, 12392, -5885, -8780, 1779, 2943, -608, -783, 609, 522, 102, 1193, 1196, 731, 585, 238, 347, 1106, 1204
162221356, 12392, -5885, -8780, 1779, 2943, -608, -783, 609, 522, 102, 1193, 1196, 731, 585, 238, 347, 1106, 1204
162222179, 12392, -5885, -8780, 1779, 2943, -608, -783, 609, 522, 102, 1193, 1196, 731, 585, 238, 347, 1106, 1204
162222985, 12392, -5885, -8780, 1779, 2943, -608, -783, 609, 522, 102, 1193, 1196, 731, 585, 238, 347, 1106, 1204
162228110, 12392, -5885, -8780, 1779, 2943, -608, -783, 609, 522, 102, 1193, 1196, 731, 585, 238, 347, 1106, 1204
162229053, 12340, -5831, -8908, 1669, 3692, -782, -1096, 182, 265, 152, 1193, 1196, 731, 585, 238, 347, 1106, 1204
162229860, 12340, -5831, -8908, 1669, 3692, -782, -1096, 182, 265, 152, 1177, 1260, 828, 700, 291, 392, 1216, 1283
162230677, 12340, -5831, -8908, 1669, 3692, -782, -1096, 182, 265, 152, 1177, 1260, 828, 700, 291, 392, 1216, 1283
162235671, 12340, -5831, -8908, 1669, 3692, -782, -1096, 182, 265, 152, 1177, 1260, 828, 700, 291, 392, 1216, 1283
162236490, 12340, -5831, -8908, 1669, 3692, -782, -1096, 182, 265, 152, 1177, 1260, 828, 700, 291, 392, 1216, 1283
162237291, 12340, -5831, -8908, 1669, 3692, -782, -1096, 182, 265, 152, 1177, 1260, 828, 700, 291, 392, 1216, 1283
162238121, 12340, -5831, -8908, 1669, 3692, -782, -1096, 182, 265, 152, 1177, 1260, 828, 700, 291, 392, 1216, 1283
162241747, 12340, -5831, -8908, 1669, 3692, -782, -1096, 182, 265, 152, 1177, 1260, 828, 700, 291, 392, 1216, 1283
162242575, 12340, -5831, -8908, 1669, 3692, -782, -1096, 182, 265, 152, 1177, 1260, 828, 700, 291, 392, 1216, 1283
162243393, 12340, -5831, -8908, 1669, 3692, -782, -1096, 182, 265, 152, 1177, 1260, 828, 700, 291, 392, 1216, 1283
162248543, 12340, -5831, -8908, 1669, 3692, -782, -1096, 182, 265, 152, 661, 1019, 581, 625, 213, 112, 448, 612
162249365, 12340, -5831, -8908, 1669, 3692, -782, -1096, 182, 265, 152, 661, 1019, 581, 625, 213, 112, 448, 612
162264251, 11267, -6658, -9848, -427, 2697, -1192, -831, -2770, 944, 191, 661, 1019, 581, 625, 213, 112, 448, 612
162265070, 11267, -6658, -9848, -427, 2697, -1192, -831, -2770, 944, 191, 555, 968, 617, 611, 211, 98, 441, 550
162265893, 11267, -6658, -9848, -427, 2697, -1192, -831, -2770, 944, 191, 555, 968, 617, 611, 211, 98, 441, 550
162277925, 11184, -6996, -9688, -743, 2625, -1582, -875, -2525, 1082, 274, 555, 968, 617, 611, 211, 98, 441, 550
162286095, 11184, -6996, -9688, -743, 2625, -1582, -875, -2525, 1082, 274, 562, 848, 665, 547, 184, 100, 404, 638
162286909, 11184, -6996, -9688, -743, 2625, -1582, -875, -2525, 1082, 274, 562, 848, 665, 547, 184, 100, 404, 638
162300435, 11151, -7243, -9521, -993, 2514, -1471, -859, -1850, 1143, 263, 562, 848, 665, 547, 184, 100, 404, 638
162308583, 11151, -7243, -9521, -993, 2514, -1471, -859, -1850, 1143, 263, 677, 862, 659, 549, 180, 106, 475, 557
162309401, 11151, -7243, -9521, -993, 2514, -1471, -859, -1850, 1143, 263, 677, 862, 659, 549, 180, 106, 475, 557
162324311, 11104, -7491, -9353, -1244, 2456, -1300, -999, -1870, 1113, 275, 677, 862, 659, 549, 180, 106, 475, 557
162325110, 11104, -7491, -9353, -1244, 2456, -1300, -999, -1870, 1113, 275, 696, 750, 604, 567, 184, 111, 465, 570
162325962, 11104, -7491, -9353, -1244, 2456, -1300, -999, -1870, 1113, 275, 696, 750, 604, 567, 184, 111, 465, 570
162337958, 11039, -7747, -9179, -1519, 2448, -1376, -1067, -2031, 1147, 209, 696, 750, 604, 567, 184, 111, 465, 570
162346089, 11039, -7747, -9179, -1519, 2448, -1376, -1067, -2031, 1147, 209, 617, 710, 592, 571, 170, 112, 393, 565
162346887, 11039, -7747, -9179, -1519, 2448, -1376, -1067, -2031, 1147, 209, 617, 710, 592, 571, 170, 112, 393, 565
162360482, 10958, -8008, -9001, -1797, 2392, -1485, -1148, -2099, 1121, 199, 617, 710, 592, 571, 170, 112, 393, 565
162368571, 10958, -8008, -9001, -1797, 2392, -1485, -1148, -2099, 1121, 199, 610, 637, 613, 570, 172, 112, 374, 575
162369389, 10958, -8008, -9001, -1797, 2392, -1485, -1148, -2099, 1121, 199, 610, 637, 613, 570, 172, 112, 374, 575
162382972, 10873, -8255, -8816, -2087, 2313, -1439, -1178, -2090, 1179, 128, 610, 637, 613, 570, 172, 112, 374, 575
162391070, 10873, -8255, -8816, -2087, 2313, -1439, -1178, -2090, 1179, 128, 548, 664, 586, 564, 165, 112, 373, 489
162391889, 10873, -8255, -8816, -2087, 2313, -1439, -1178, -2090, 1179, 128, 548, 664, 586, 564, 165, 112, 373, 489
162398050, 10764, -8502, -8637, -2384, 2244, -1526, -1309, -2175, 1117, 48, 548, 664, 586, 564, 165, 112, 373, 489
162406058, 10764, -8502, -8637, -2384, 2244, -1526, -1309, -2175, 1117, 48, 395, 608, 636, 500, 171, 115, 422, 514
162406889, 10764, -8502, -8637, -2384, 2244, -1526, -1309, -2175, 1117, 48, 395, 608, 636, 500, 171, 115, 422, 514
162420470, 10655, -8723, -8462, -2686, 2321, -1696, -1324, -2095, 1139, -70, 395, 608, 636, 500, 171, 115, 422, 514
162428564, 10655, -8723, -8462, -2686, 2321, -1696, -1324, -2095, 1139, -70, 393, 625, 810, 451, 159, 107, 449, 488
162429378, 10655, -8723, -8462, -2686, 2321, -1696, -1324, -2095, 1139, -70, 393, 625, 810, 451, 159, 107, 449, 488
162442934, 10556, -8903, -8300, -2975, 2178, -1579, -1456, -1854, 1136, -175, 393, 625, 810, 451, 159, 107, 449, 488
162451110, 10556, -8903, -8300, -2975, 2178, -1579, -1456, -1854, 1136, -175, 511, 750, 812, 443, 163, 119, 453, 509
162451930, 10556, -8903, -8300, -2975, 2178, -1579, -1456, -1854, 1136, -175, 511, 750, 812, 443, 163, 119, 453, 509
162458084, 10412, -9101, -8158, -3266, 2256, -1421, -1595, -2031, 936, -216, 511, 750, 812, 443, 163, 119, 453, 509
162466059, 10412, -9101, -8158, -3266, 2256, -1421, -1595, -2031, 936, -216, 509, 813, 785, 439, 174, 127, 452, 550
162466887, 10412, -9101, -8158, -3266, 2256, -1421, -1595, -2031, 936, -216, 509, 813, 785, 439, 174, 127, 452, 550
162480459, 10203, -9343, -8024, -3557, 2314, -1560, -1830, -2379, 702, -208, 509, 813, 785, 439, 174, 127, 452, 550
162488560, 10203, -9343, -8024, -3557, 2314, -1560, -1830, -2379, 702, -208, 505, 953, 754, 490, 172, 122, 437, 562
162489359, 10203, -9343, -8024, -3557, 2314, -1560, -1830, -2379, 702, -208, 505, 953, 754, 490, 172, 122, 437, 562
162502940, 9999, -9569, -7885, -3837, 2318, -1758, -1912, -2282, 716, -220, 505, 953, 754, 490, 172, 122, 437, 562
162511085, 9999, -9569, -7885, -3837, 2318, -1758, -1912, -2282, 716, -220, 511, 1014, 669, 506, 177, 123, 275, 539
162511909, 9999, -9569, -7885, -3837, 2318, -1758, -1912, -2282, 716, -220, 511, 1014, 669, 506, 177, 123, 275, 539
162518061, 9820, -9737, -7764, -4113, 2190, -1629, -1990, -1970, 802, -385, 511, 1014, 669, 506, 177, 123, 275, 539
162526057, 9820, -9737, -7764, -4113, 2190, -1629, -1990, -1970, 802, -385, 476, 1036, 374, 437, 174, 131, 227, 560
162526859, 9820, -9737, -7764, -4113, 2190, -1629, -1990, -1970, 802, -385, 476, 1036, 374, 437, 174, 131, 227, 560
162540435, 9580, -9940, -7653, -4392, 2273, -1499, -2086, -2280, 571, -405, 476, 1036, 374, 437, 174, 131, 227, 560
162548700, 9580, -9940, -7653, -4392, 2273, -1499, -2086, -2280, 571, -405, 349, 1051, 272, 424, 169, 123, 230, 652
162549404, 9580, -9940, -7653, -4392, 2273, -1499, -2086, -2280, 571, -405, 349, 1051, 272, 424, 169, 123, 230, 652
162562932, 9288, -10155, -7562, -4676, 2250, -1744, -2199, -2490, 372, -580, 349, 1051, 272, 424, 169, 123, 230, 652
162571090, 9288, -10155, -7562, -4676, 2250, -1744, -2199, -2490, 372, -580, 282, 1064, 135, 413, 148, 141, 257, 620
162571911, 9288, -10155, -7562, -4676, 2250, -1744, -2199, -2490, 372, -580, 282, 1064, 135, 413, 148, 141, 257, 620
162578067, 9007, -10335, -7501, -4925, 2403, -1838, -2434, -2198, 265, -649, 282, 1064, 135, 413, 148, 141, 257, 620
162585401, 9007, -10335, -7501, -4925, 2403, -1838, -2434, -2198, 265, -649, 313, 1080, 91, 323, 153, 171, 286, 632
162592883, 9007, -10335, -7501, -4925, 2403, -1838, -2434, -2198, 265, -649, 313, 1080, 91, 323, 153, 171, 286, 632
162600580, 8737, -10475, -7476, -5149, 2561, -1668, -2505, -1919, 157, -767, 313, 1080, 91, 323, 153, 171, 286, 632
162608572, 8737, -10475, -7476, -5149, 2561, -1668, -2505, -1919, 157, -767, 280, 1059, 70, 288, 147, 182, 287, 639
162609349, 8737, -10475, -7476, -5149, 2561, -1668, -2505, -1919, 157, -767, 280, 1059, 70, 288, 147, 182, 287, 639
162622955, 8482, -10594, -7468, -5339, 2423, -1979, -2251, -1720, 28, -807, 280, 1059, 70, 288, 147, 182, 287, 639
162631127, 8482, -10594, -7468, -5339, 2423, -1979, -2251, -1720, 28, -807, 305, 1126, 68, 265, 147, 200, 340, 633
162631936, 8482, -10594, -7468, -5339, 2423, -1979, -2251, -1720, 28, -807, 305, 1126, 68, 265, 147, 200, 340, 633
162638063, 8286, -10690, -7521, -5381, 2118, -1934, -1924, -898, -43, -970, 305, 1126, 68, 265, 147, 200, 340, 633
162653591, 8286, -10690, -7521, -5381, 2118, -1934, -1924, -898, -43, -970, 349, 1059, 69, 329, 159, 207, 333, 534
162654406, 8286, -10690, -7521, -5381, 2118, -1934, -1924, -898, -43, -970, 349, 1059, 69, 329, 159, 207, 333, 534
162660559, 8119, -10781, -7612, -5325, 2629, -1963, -2075, -473, -468, -710, 349, 1059, 69, 329, 159, 207, 333, 534
162668655, 8119, -10781, -7612, -5325, 2629, -1963, -2075, -473, -468, -710, 397, 1060, 68, 337, 162, 207, 337, 597
162669427, 8119, -10781, -7612, -5325, 2629, -1963, -2075, -473, -468, -710, 397, 1060, 68, 337, 162, 207, 337, 597
162682941, 8015, -10843, -7734, -5181, 2550, -1965, -2413, 169, -522, -546, 397, 1060, 68, 337, 162, 207, 337, 597
162691093, 8015, -10843, -7734, -5181, 2550, -1965, -2413, 169, -522, -546, 360, 965, 71, 335, 153, 200, 323, 597
162691912, 8015, -10843, -7734, -5181, 2550, -1965, -2413, 169, -522, -546, 360, 965, 71, 335, 153, 200, 323, 597
162698060, 7889, -10907, -7865, -5040, 2695, -1595, -2546, 148, -605, -413, 360, 965, 71, 335, 153, 200, 323, 597
162713593, 7889, -10907, -7865, -5040, 2695, -1595, -2546, 148, -605, -413, 452, 912, 69, 359, 153, 181, 298, 703
162714409, 7889, -10907, -7865, -5040, 2695, -1595, -2546, 148, -605, -413, 452, 912, 69, 359, 153, 181, 298, 703
162720560, 7782, -10963, -7950, -4950, 2509, -1683, -2400, -41, -304, -440, 452, 912, 69, 359, 153, 181, 298, 703
162728659, 7782, -10963, -7950, -4950, 2509, -1683, -2400, -41, -304, -440, 437, 821, 67, 508, 151, 163, 229, 694
162729411, 7782, -10963, -7950, -4950, 2509, -1683, -2400, -41, -304, -440, 437, 821, 67, 508, 151, 163, 229, 694
162742935, 7698, -11020, -7988, -4893, 2578, -1646, -2318, -153, -67, -281, 437, 821, 67, 508, 151, 163, 229, 694
162751087, 7698, -11020, -7988, -4893, 2578, -1646, -2318, -153, -67, -281, 398, 791, 64, 514, 146, 155, 229, 711
162751904, 7698, -11020, -7988, -4893, 2578, -1646, -2318, -153, -67, -281, 398, 791, 64, 514, 146, 155, 229, 711
162758059, 7631, -11079, -7988, -4865, 2813, -1566, -2079, -272, -7, -93, 398, 791, 64, 514, 146, 155, 229, 711
162773609, 7631, -11079, -7988, -4865, 2813, -1566, -2079, -272, -7, -93, 370, 765, 64, 498, 143, 146, 219, 694
162774403, 7631, -11079, -7988, -4865, 2813, -1566, -2079, -272, -7, -93, 370, 765, 64, 498, 143, 146, 219, 694
162780568, 7571, -11171, -7957, -4798, 2717, -1871, -2135, -345, -85, 77, 370, 765, 64, 498, 143, 146, 219, 694
162788581, 7571, -11171, -7957, -4798, 2717, -1871, -2135, -345, -85, 77, 394, 786, 63, 494, 139, 125, 208, 750
162789418, 7571, -11171, -7957, -4798, 2717, -1871, -2135, -345, -85, 77, 394, 786, 63, 494, 139, 125, 208, 750
162802997, 7565, -11220, -7943, -4717, 2600, -1898, -2160, 42, 55, 7, 394, 786, 63, 494, 139, 125, 208, 750
162811095, 7565, -11220, -7943, -4717, 2600, -1898, -2160, 42, 55, 7, 340, 793, 70, 571, 127, 127, 203, 713
162811915, 7565, -11220, -7943, -4717, 2600, -1898, -2160, 42, 55, 7, 340, 793, 70, 571, 127, 127, 203, 713
162818057, 7558, -11237, -7950, -4675, 2605, -1641, -2025, 80, 128, -137, 340, 793, 70, 571, 127, 127, 203, 713
162833576, 7558, -11237, -7950, -4675, 2605, -1641, -2025, 80, 128, -137, 357, 751, 75, 533, 132, 115, 192, 710
162834386, 7558, -11237, -7950, -4675, 2605, -1641, -2025, 80, 128, -137, 357, 751, 75, 533, 132, 115, 192, 710
162840534, 7545, -11251, -7970, -4628, 2693, -1607, -2086, 113, 59, -153, 357, 751, 75, 533, 132, 115, 192, 710
162848593, 7545, -11251, -7970, -4628, 2693, -1607, -2086, 113, 59, -153, 355, 751, 76, 486, 118, 120, 220, 683
162849415, 7545, -11251, -7970, -4628, 2693, -1607, -2086, 113, 59, -153, 355, 751, 76, 486, 118, 120, 220, 683
162862960, 7539, -11257, -8002, -4568, 2827, -1579, -2153, 239, -4, -125, 355, 751, 76, 486, 118, 120, 220, 683
162871069, 7539, -11257, -8002, -4568, 2827, -1579, -2153, 239, -4, -125, 394, 707, 76, 473, 105, 102, 272, 682
162871890, 7539, -11257, -8002, -4568, 2827, -1579, -2153, 239, -4, -125, 394, 707, 76, 473, 105, 102, 272, 682
162878033, 7537, -11257, -8044, -4498, 2873, -1513, -2316, 357, 12, -102, 394, 707, 76, 473, 105, 102, 272, 682
162893578, 7537, -11257, -8044, -4498, 2873, -1513, -2316, 357, 12, -102, 364, 711, 76, 468, 99, 101, 273, 603
162894376, 7537, -11257, -8044, -4498, 2873, -1513, -2316, 357, 12, -102, 364, 711, 76, 468, 99, 101, 273, 603
162900537, 7530, -11264, -8073, -4439, 2731, -1522, -2265, 260, 58, -98, 364, 711, 76, 468, 99, 101, 273, 603
162908589, 7530, -11264, -8073, -4439, 2731, -1522, -2265, 260, 58, -98, 349, 719, 65, 418, 126, 101, 274, 507
162909379, 7530, -11264, -8073, -4439, 2731, -1522, -2265, 260, 58, -98, 349, 719, 65, 418, 126, 101, 274, 507
162922958, 7519, -11278, -8096, -4377, 2696, -1586, -2316, 215, 59, -79, 349, 719, 65, 418, 126, 101, 274, 507
162931060, 7519, -11278, -8096, -4377, 2696, -1586, -2316, 215, 59, -79, 378, 788, 53, 318, 133, 135, 295, 532
162931891, 7519, -11278, -8096, -4377, 2696, -1586, -2316, 215, 59, -79, 378, 788, 53, 318, 133, 135, 295, 532
162938043, 7497, -11304, -8119, -4307, 2631, -1630, -2373, 163, 4, -71, 378, 788, 53, 318, 133, 135, 295, 532
162953543, 7497, -11304, -8119, -4307, 2631, -1630, -2373, 163, 4, -71, 367, 820, 60, 302, 136, 140, 304, 531
162954386, 7497, -11304, -8119, -4307, 2631, -1630, -2373, 163, 4, -71, 367, 820, 60, 302, 136, 140, 304, 531
162960545, 7488, -11315, -8153, -4227, 2589, -1674, -2393, 293, -2, -123, 367, 820, 60, 302, 136, 140, 304, 531
162968579, 7488, -11315, -8153, -4227, 2589, -1674, -2393, 293, -2, -123, 324, 788, 57, 302, 135, 186, 254, 449
162969379, 7488, -11315, -8153, -4227, 2589, -1674, -2393, 293, -2, -123, 324, 788, 57, 302, 135, 186, 254, 449