Timestamp, Orientation x, Orientation y, Orientation z, Orientation w, Acceleration x, Acceleration y, Acceleration z, Rotation x, Rotation y, Rotation z, EMG 0, EMG 1, EMG 2, EMG 3, EMG 4, EMG 5, EMG 6, EMG 7
92671379, 9027, -1623, -13494, -1497, 4019, -73, -1726, -43, 173, 83, 0, 0, 0, 0, 0, 0, 0, 0
92672193, 9047, -1654, -13478, -1484, 4039, -33, -1710, -74, 161, 98, 0, 0, 0, 0, 0, 0, 0, 0
92693197, 9067, -1698, -13458, -1487, 4050, -23, -1657, -187, 152, 124, 0, 0, 0, 0, 0, 0, 0, 0
92708203, 9084, -1771, -13434, -1518, 4081, 16, -1752, -400, 201, 195, 0, 0, 0, 0, 0, 0, 0, 0
92730728, 9094, -1855, -13415, -1534, 4107, -8, -1778, -366, 157, 286, 0, 0, 0, 0, 0, 0, 0, 0
92738820, 9094, -1855, -13415, -1534, 4107, -8, -1778, -366, 157, 286, 25, 70, 392, 295, 75, 63, 113, 33
92739638, 9094, -1855, -13415, -1534, 4107, -8, -1778, -366, 157, 286, 25, 70, 392, 295, 75, 63, 113, 33
92753219, 9100, -1935, -13403, -1497, 4148, -61, -1806, -113, 90, 417, 25, 70, 392, 295, 75, 63, 113, 33
92761317, 9100, -1935, -13403, -1497, 4148, -61, -1806, -113, 90, 417, 33, 94, 462, 481, 95, 74, 152, 52
92762144, 9100, -1935, -13403, -1497, 4148, -61, -1806, -113, 90, 417, 33, 94, 462, 481, 95, 74, 152, 52
92778393, 9110, -2026, -13389, -1437, 4173, -109, -1802, -44, 84, 546, 33, 94, 462, 481, 95, 74, 152, 52
92779223, 9110, -2026, -13389, -1437, 4173, -109, -1802, -44, 84, 546, 33, 94, 462, 481, 95, 74, 152, 52
92780048, 8350, -9349, -10459, -1393, 2614, -1602, -1659, -3, -29, -26, 33, 94, 462, 481, 95, 74, 152, 52
92780865, 8350, -9349, -10459, -1393, 2614, -1602, -1659, -3, -29, -26, 429, 334, 249, 376, 95, 75, 138, 196
92785803, 8350, -9349, -10459, -1393, 2614, -1602, -1659, -3, -29, -26, 429, 334, 249, 376, 95, 75, 138, 196
92786858, 8358, -9336, -10464, -1385, 2578, -1628, -1642, 106, 10, -32, 429, 334, 249, 376, 95, 75, 138, 196
92787588, 8358, -9336, -10464, -1385, 2578, -1628, -1642, 106, 10, -32, 438, 306, 288, 385, 128, 99, 145, 172
92788398, 8358, -9336, -10464, -1385, 2578, -1628, -1642, 106, 10, -32, 438, 306, 288, 385, 128, 99, 145, 172
92793395, 8358, -9336, -10464, -1385, 2578, -1628, -1642, 106, 10, -32, 438, 306, 288, 385, 128, 99, 145, 172
92794186, 8358, -9336, -10464, -1385, 2578, -1628, -1642, 106, 10, -32, 438, 306, 288, 385, 128, 99, 145, 172
92795026, 8358, -9336, -10464, -1385, 2578, -1628, -1642, 106, 10, -32, 438, 306, 288, 385, 128, 99, 145, 172
92795844, 8358, -9336, -10464, -1385, 2578, -1628, -1642, 106, 10, -32, 438, 306, 288, 385, 128, 99, 145, 172
92800789, 8358, -9336, -10464, -1385, 2578, -1628, -1642, 106, 10, -32, 438, 306, 288, 385, 128, 99, 145, 172
92801578, 8358, -9336, -10464, -1385, 2578, -1628, -1642, 106, 10, -32, 438, 306, 288, 385, 128, 99, 145, 172
92802414, 8358, -9336, -10464, -1385, 2578, -1628, -1642, 106, 10, -32, 438, 306, 288, 385, 128, 99, 145, 172
92803210, 8358, -9336, -10464, -1385, 2578, -1628, -1642, 106, 10, -32, 438, 306, 288, 385, 128, 99, 145, 172
92808345, 8358, -9336, -10464, -1385, 2578, -1628, -1642, 106, 10, -32, 438, 306, 288, 385, 128, 99, 145, 172
92809291, 8342, -9344, -10471, -1384, 2610, -1661, -1706, -51, -56, -4, 438, 306, 288, 385, 128, 99, 145, 172
92810116, 8342, -9344, -10471, -1384, 2610, -1661, -1706, -51, -56, -4, 354, 346, 296, 378, 131, 104, 164, 128
92810963, 8342, -9344, -10471, -1384, 2610, -1661, -1706, -51, -56, -4, 354, 346, 296, 378, 131, 104, 164, 128
92815914, 8342, -9344, -10471, -1384, 2610, -1661, -1706, -51, -56, -4, 354, 346, 296, 378, 131, 104, 164, 128
92816740, 8342, -9344, -10471, -1384, 2610, -1661, -1706, -51, -56, -4, 354, 346, 296, 378, 131, 104, 164, 128
92817549, 8342, -9344, -10471, -1384, 2610, -1661, -1706, -51, -56, -4, 354, 346, 296, 378, 131, 104, 164, 128
92818366, 8342, -9344, -10471, -1384, 2610, -1661, -1706, -51, -56, -4, 354, 346, 296, 378, 131, 104, 164, 128
92823316, 8342, -9344, -10471, -1384, 2610, -1661, -1706, -51, -56, -4, 354, 346, 296, 378, 131, 104, 164, 128
92824132, 8342, -9344, -10471, -1384, 2610, -1661, -1706, -51, -56, -4, 354, 346, 296, 378, 131, 104, 164, 128
92824946, 8342, -9344, -10471, -1384, 2610, -1661, -1706, -51, -56, -4, 354, 346, 296, 378, 131, 104, 164, 128
92825763, 8342, -9344, -10471, -1384, 2610, -1661, -1706, -51, -56, -4, 354, 346, 296, 378, 131, 104, 164, 128
92830907, 8342, -9344, -10471, -1384, 2610, -1661, -1706, -51, -56, -4, 354, 346, 296, 378, 131, 104, 164, 128
92831819, 8342, -9337, -10479, -1366, 2609, -1636, -1667, 101, -63, 12, 354, 346, 296, 378, 131, 104, 164, 128
92832721, 8331, -9335, -10490, -1360, 2584, -1594, -1682, 23, -65, -13, 354, 346, 296, 378, 131, 104, 164, 128
92833425, 9027, -1623, -13494, -1497, 4019, -73, -1726, -43, 173, 83, 354, 346, 296, 378, 131, 104, 164, 128
92838440, 9027, -1623, -13494, -1497, 4019, -73, -1726, -43, 173, 83, 25, 70, 392, 295, 75, 63, 113, 33
92839252, 9027, -1623, -13494, -1497, 4019, -73, -1726, -43, 173, 83, 25, 70, 392, 295, 75, 63, 113, 33
92840063, 9027, -1623, -13494, -1497, 4019, -73, -1726, -43, 173, 83, 25, 70, 392, 295, 75, 63, 113, 33
92840864, 9027, -1623, -13494, -1497, 4019, -73, -1726, -43, 173, 83, 25, 70, 392, 295, 75, 63, 113, 33
92845820, 9027, -1623, -13494, -1497, 4019, -73, -1726, -43, 173, 83, 25, 70, 392, 295, 75, 63, 113, 33
92846717, 9027, -1623, -13494, -1497, 4019, -73, -1726, -43, 173, 83, 25, 70, 392, 295, 75, 63, 113, 33
92847406, 9027, -1623, -13494, -1497, 4019, -73, -1726, -43, 173, 83, 25, 70, 392, 295, 75, 63, 113, 33
92848270, 9027, -1623, -13494, -1497, 4019, -73, -1726, -43, 173, 83, 25, 70, 392, 295, 75, 63, 113, 33
92853339, 9027, -1623, -13494, -1497, 4019, -73, -1726, -43, 173, 83, 25, 70, 392, 295, 75, 63, 113, 33
92854273, 9100, -1935, -13403, -1497, 4148, -61, -1806, -113, 90, 417, 25, 70, 392, 295, 75, 63, 113, 33
92855097, 9100, -1935, -13403, -1497, 4148, -61, -1806, -113, 90, 417, 33, 94, 462, 481, 95, 74, 152, 52
92855916, 9100, -1935, -13403, -1497, 4148, -61, -1806, -113, 90, 417, 33, 94, 462, 481, 95, 74, 152, 52
92860929, 9100, -1935, -13403, -1497, 4148, -61, -1806, -113, 90, 417, 33, 94, 462, 481, 95, 74, 152, 52
92861717, 9100, -1935, -13403, -1497, 4148, -61, -1806, -113, 90, 417, 33, 94, 462, 481, 95, 74, 152, 52
92862549, 9100, -1935, -13403, -1497, 4148, -61, -1806, -113, 90, 417, 33, 94, 462, 481, 95, 74, 152, 52
92863341, 9100, -1935, -13403, -1497, 4148, -61, -1806, -113, 90, 417, 33, 94, 462, 481, 95, 74, 152, 52
92868294, 9100, -1935, -13403, -1497, 4148, -61, -1806, -113, 90, 417, 33, 94, 462, 481, 95, 74, 152, 52
92869120, 9100, -1935, -13403, -1497, 4148, -61, -1806, -113, 90, 417, 33, 94, 462, 481, 95, 74, 152, 52
92869944, 9100, -1935, -13403, -1497, 4148, -61, -1806, -113, 90, 417, 33, 94, 462, 481, 95, 74, 152, 52
92870744, 9100, -1935, -13403, -1497, 4148, -61, -1806, -113, 90, 417, 33, 94, 462, 481, 95, 74, 152, 52
92875814, 9100, -1935, -13403, -1497, 4148, -61, -1806, -113, 90, 417, 33, 94, 462, 481, 95, 74, 152, 52
92876740, 9110, -2026, -13389, -1437, 4173, -109, -1802, -44, 84, 546, 33, 94, 462, 481, 95, 74, 152, 52
92877589, 9110, -2026, -13389, -1437, 4173, -109, -1802, -44, 84, 546, 37, 132, 507, 589, 98, 124, 172, 59
92878392, 9110, -2026, -13389, -1437, 4173, -109, -1802, -44, 84, 546, 37, 132, 507, 589, 98, 124, 172, 59
92883394, 9110, -2026, -13389, -1437, 4173, -109, -1802, -44, 84, 546, 37, 132, 507, 589, 98, 124, 172, 59
92884191, 9110, -2026, -13389, -1437, 4173, -109, -1802, -44, 84, 546, 37, 132, 507, 589, 98, 124, 172, 59
92885006, 9110, -2026, -13389, -1437, 4173, -109, -1802, -44, 84, 546, 37, 132, 507, 589, 98, 124, 172, 59
92885839, 9110, -2026, -13389, -1437, 4173, -109, -1802, -44, 84, 546, 37, 132, 507, 589, 98, 124, 172, 59
92890790, 9110, -2026, -13389, -1437, 4173, -109, -1802, -44, 84, 546, 37, 132, 507, 589, 98, 124, 172, 59
92891599, 9110, -2026, -13389, -1437, 4173, -109, -1802, -44, 84, 546, 37, 132, 507, 589, 98, 124, 172, 59
92892415, 9110, -2026, -13389, -1437, 4173, -109, -1802, -44, 84, 546, 37, 132, 507, 589, 98, 124, 172, 59
92893215, 9110, -2026, -13389, -1437, 4173, -109, -1802, -44, 84, 546, 37, 132, 507, 589, 98, 124, 172, 59
92898344, 9110, -2026, -13389, -1437, 4173, -109, -1802, -44, 84, 546, 37, 132, 507, 589, 98, 124, 172, 59
92899294, 9139, -2117, -13367, -1331, 4204, -192, -1767, 186, 148, 704, 37, 132, 507, 589, 98, 124, 172, 59
92900094, 9139, -2117, -13367, -1331, 4204, -192, -1767, 186, 148, 704, 43, 196, 660, 794, 153, 133, 243, 59
92900945, 9139, -2117, -13367, -1331, 4204, -192, -1767, 186, 148, 704, 43, 196, 660, 794, 153, 133, 243, 59
92905917, 9139, -2117, -13367, -1331, 4204, -192, -1767, 186, 148, 704, 43, 196, 660, 794, 153, 133, 243, 59
92906740, 9139, -2117, -13367, -1331, 4204, -192, -1767, 186, 148, 704, 43, 196, 660, 794, 153, 133, 243, 59
92907548, 9139, -2117, -13367, -1331, 4204, -192, -1767, 186, 148, 704, 43, 196, 660, 794, 153, 133, 243, 59
92908354, 9139, -2117, -13367, -1331, 4204, -192, -1767, 186, 148, 704, 43, 196, 660, 794, 153, 133, 243, 59
92913309, 9139, -2117, -13367, -1331, 4204, -192, -1767, 186, 148, 704, 43, 196, 660, 794, 153, 133, 243, 59
92914131, 9139, -2117, -13367, -1331, 4204, -192, -1767, 186, 148, 704, 43, 196, 660, 794, 153, 133, 243, 59
92914937, 9139, -2117, -13367, -1331, 4204, -192, -1767, 186, 148, 704, 43, 196, 660, 794, 153, 133, 243, 59
92915754, 9139, -2117, -13367, -1331, 4204, -192, -1767, 186, 148, 704, 43, 196, 660, 794, 153, 133, 243, 59
92920844, 9139, -2117, -13367, -1331, 4204, -192, -1767, 186, 148, 704, 43, 196, 660, 794, 153, 133, 243, 59
92921770, 9174, -2208, -13336, -1246, 4149, -71, -1817, 124, 264, 742, 43, 196, 660, 794, 153, 133, 243, 59
92922579, 9174, -2208, -13336, -1246, 4149, -71, -1817, 124, 264, 742, 74, 359, 768, 1053, 300, 171, 296, 81
92923395, 9174, -2208, -13336, -1246, 4149, -71, -1817, 124, 264, 742, 74, 359, 768, 1053, 300, 171, 296, 81
92928391, 9174, -2208, -13336, -1246, 4149, -71, -1817, 124, 264, 742, 74, 359, 768, 1053, 300, 171, 296, 81
92929214, 9174, -2208, -13336, -1246, 4149, -71, -1817, 124, 264, 742, 74, 359, 768, 1053, 300, 171, 296, 81
92930036, 9174, -2208, -13336, -1246, 4149, -71, -1817, 124, 264, 742, 74, 359, 768, 1053, 300, 171, 296, 81
92930840, 9174, -2208, -13336, -1246, 4149, -71, -1817, 124, 264, 742, 74, 359, 768, 1053, 300, 171, 296, 81
92935791, 9174, -2208, -13336, -1246, 4149, -71, -1817, 124, 264, 742, 74, 359, 768, 1053, 300, 171, 296, 81
92936599, 9174, -2208, -13336, -1246, 4149, -71, -1817, 124, 264, 742, 74, 359, 768, 1053, 300, 171, 296, 81
92937413, 9174, -2208, -13336, -1246, 4149, -71, -1817, 124, 264, 742, 74, 359, 768, 1053, 300, 171, 296, 81
92938245, 9174, -2208, -13336, -1246, 4149, -71, -1817, 124, 264, 742, 74, 359, 768, 1053, 300, 171, 296, 81
92943298, 9174, -2208, -13336, -1246, 4149, -71, -1817, 124, 264, 742, 74, 359, 768, 1053, 300, 171, 296, 81
92944259, 9178, -2344, -13319, -1152, 4094, -207, -1893, 7, 98, 928, 74, 359, 768, 1053, 300, 171, 296, 81
92945067, 9178, -2344, -13319, -1152, 4094, -207, -1893, 7, 98, 928, 112, 495, 812, 1178, 327, 179, 335, 104
92945864, 9178, -2344, -13319, -1152, 4094, -207, -1893, 7, 98, 928, 112, 495, 812, 1178, 327, 179, 335, 104
92950895, 9178, -2344, -13319, -1152, 4094, -207, -1893, 7, 98, 928, 112, 495, 812, 1178, 327, 179, 335, 104
92951717, 9178, -2344, -13319, -1152, 4094, -207, -1893, 7, 98, 928, 112, 495, 812, 1178, 327, 179, 335, 104
92952498, 9178, -2344, -13319, -1152, 4094, -207, -1893, 7, 98, 928, 112, 495, 812, 1178, 327, 179, 335, 104
92953318, 9178, -2344, -13319, -1152, 4094, -207, -1893, 7, 98, 928, 112, 495, 812, 1178, 327, 179, 335, 104
92958339, 9178, -2344, -13319, -1152, 4094, -207, -1893, 7, 98, 928, 112, 495, 812, 1178, 327, 179, 335, 104
92959146, 9178, -2344, -13319, -1152, 4094, -207, -1893, 7, 98, 928, 112, 495, 812, 1178, 327, 179, 335, 104
92959969, 9178, -2344, -13319, -1152, 4094, -207, -1893, 7, 98, 928, 112, 495, 812, 1178, 327, 179, 335, 104
92960775, 9178, -2344, -13319, -1152, 4094, -207, -1893, 7, 98, 928, 112, 495, 812, 1178, 327, 179, 335, 104
92965846, 9178, -2344, -13319, -1152, 4094, -207, -1893, 7, 98, 928, 112, 495, 812, 1178, 327, 179, 335, 104
92966773, 9169, -2396, -13330, -962, 4063, -165, -1898, 735, -93, 889, 112, 495, 812, 1178, 327, 179, 335, 104
92967606, 9169, -2396, -13330, -962, 4063, -165, -1898, 735, -93, 889, 148, 561, 884, 1310, 430, 188, 437, 109
92968416, 9169, -2396, -13330, -962, 4063, -165, -1898, 735, -93, 889, 148, 561, 884, 1310, 430, 188, 437, 109
92973417, 9169, -2396, -13330, -962, 4063, -165, -1898, 735, -93, 889, 148, 561, 884, 1310, 430, 188, 437, 109
92974241, 9169, -2396, -13330, -962, 4063, -165, -1898, 735, -93, 889, 148, 561, 884, 1310, 430, 188, 437, 109
92975043, 9169, -2396, -13330, -962, 4063, -165, -1898, 735, -93, 889, 148, 561, 884, 1310, 430, 188, 437, 109
92975863, 9169, -2396, -13330, -962, 4063, -165, -1898, 735, -93, 889, 148, 561, 884, 1310, 430, 188, 437, 109
92980824, 9169, -2396, -13330, -962, 4063, -165, -1898, 735, -93, 889, 148, 561, 884, 1310, 430, 188, 437, 109
92981621, 9169, -2396, -13330, -962, 4063, -165, -1898, 735, -93, 889, 148, 561, 884, 1310, 430, 188, 437, 109
92982432, 9169, -2396, -13330, -962, 4063, -165, -1898, 735, -93, 889, 148, 561, 884, 1310, 430, 188, 437, 109
92983259, 9169, -2396, -13330, -962, 4063, -165, -1898, 735, -93, 889, 148, 561, 884, 1310, 430, 188, 437, 109
92988326, 9169, -2396, -13330, -962, 4063, -165, -1898, 735, -93, 889, 148, 561, 884, 1310, 430, 188, 437, 109
92989263, 9222, -2432, -13297, -816, 4620, 111, -1858, 700, 244, 951, 148, 561, 884, 1310, 430, 188, 437, 109
92990055, 9222, -2432, -13297, -816, 4620, 111, -1858, 700, 244, 951, 169, 633, 928, 1449, 541, 228, 526, 142
92990900, 9222, -2432, -13297, -816, 4620, 111, -1858, 700, 244, 951, 169, 633, 928, 1449, 541, 228, 526, 142
92995896, 9222, -2432, -13297, -816, 4620, 111, -1858, 700, 244, 951, 169, 633, 928, 1449, 541, 228, 526, 142
92996725, 9222, -2432, -13297, -816, 4620, 111, -1858, 700, 244, 951, 169, 633, 928, 1449, 541, 228, 526, 142
92997525, 9222, -2432, -13297, -816, 4620, 111, -1858, 700, 244, 951, 169, 633, 928, 1449, 541, 228, 526, 142
92998351, 9222, -2432, -13297, -816, 4620, 111, -1858, 700, 244, 951, 169, 633, 928, 1449, 541, 228, 526, 142
93003294, 9222, -2432, -13297, -816, 4620, 111, -1858, 700, 244, 951, 169, 633, 928, 1449, 541, 228, 526, 142
93004116, 9222, -2432, -13297, -816, 4620, 111, -1858, 700, 244, 951, 169, 633, 928, 1449, 541, 228, 526, 142
93004916, 9222, -2432, -13297, -816, 4620, 111, -1858, 700, 244, 951, 169, 633, 928, 1449, 541, 228, 526, 142
93005741, 9222, -2432, -13297, -816, 4620, 111, -1858, 700, 244, 951, 169, 633, 928, 1449, 541, 228, 526, 142
93010882, 9222, -2432, -13297, -816, 4620, 111, -1858, 700, 244, 951, 169, 633, 928, 1449, 541, 228, 526, 142
93011793, 9458, -2582, -13112, -624, 5023, -198, -1661, 542, 1451, 1504, 169, 633, 928, 1449, 541, 228, 526, 142
93012628, 9458, -2582, -13112, -624, 5023, -198, -1661, 542, 1451, 1504, 190, 683, 928, 1433, 553, 264, 535, 158
93013415, 9458, -2582, -13112, -624, 5023, -198, -1661, 542, 1451, 1504, 190, 683, 928, 1433, 553, 264, 535, 158
93018443, 9458, -2582, -13112, -624, 5023, -198, -1661, 542, 1451, 1504, 190, 683, 928, 1433, 553, 264, 535, 158
93019243, 9458, -2582, -13112, -624, 5023, -198, -1661, 542, 1451, 1504, 190, 683, 928, 1433, 553, 264, 535, 158
93020066, 9458, -2582, -13112, -624, 5023, -198, -1661, 542, 1451, 1504, 190, 683, 928, 1433, 553, 264, 535, 158
93020866, 9458, -2582, -13112, -624, 5023, -198, -1661, 542, 1451, 1504, 190, 683, 928, 1433, 553, 264, 535, 158
93025820, 9458, -2582, -13112, -624, 5023, -198, -1661, 542, 1451, 1504, 190, 683, 928, 1433, 553, 264, 535, 158
93026715, 9458, -2582, -13112, -624, 5023, -198, -1661, 542, 1451, 1504, 190, 683, 928, 1433, 553, 264, 535, 158
93027400, 9458, -2582, -13112, -624, 5023, -198, -1661, 542, 1451, 1504, 190, 683, 928, 1433, 553, 264, 535, 158
93028260, 9458, -2582, -13112, -624, 5023, -198, -1661, 542, 1451, 1504, 190, 683, 928, 1433, 553, 264, 535, 158
93033351, 9458, -2582, -13112, -624, 5023, -198, -1661, 542, 1451, 1504, 190, 683, 928, 1433, 553, 264, 535, 158
93034274, 9708, -2919, -12860, -525, 4177, -828, -1410, -482, 1787, 2093, 190, 683, 928, 1433, 553, 264, 535, 158
93035099, 9708, -2919, -12860, -525, 4177, -828, -1410, -482, 1787, 2093, 209, 766, 942, 1363, 522, 274, 560, 164
93035919, 9708, -2919, -12860, -525, 4177, -828, -1410, -482, 1787, 2093, 209, 766, 942, 1363, 522, 274, 560, 164
93040926, 9708, -2919, -12860, -525, 4177, -828, -1410, -482, 1787, 2093, 209, 766, 942, 1363, 522, 274, 560, 164
93041719, 9708, -2919, -12860, -525, 4177, -828, -1410, -482, 1787, 2093, 209, 766, 942, 1363, 522, 274, 560, 164
93042562, 9708, -2919, -12860, -525, 4177, -828, -1410, -482, 1787, 2093, 209, 766, 942, 1363, 522, 274, 560, 164
93043364, 9708, -2919, -12860, -525, 4177, -828, -1410, -482, 1787, 2093, 209, 766, 942, 1363, 522, 274, 560, 164
93048316, 9708, -2919, -12860, -525, 4177, -828, -1410, -482, 1787, 2093, 209, 766, 942, 1363, 522, 274, 560, 164
93049116, 9708, -2919, -12860, -525, 4177, -828, -1410, -482, 1787, 2093, 209, 766, 942, 1363, 522, 274, 560, 164
93049940, 9708, -2919, -12860, -525, 4177, -828, -1410, -482, 1787, 2093, 209, 766, 942, 1363, 522, 274, 560, 164
93050738, 9708, -2919, -12860, -525, 4177, -828, -1410, -482, 1787, 2093, 209, 766, 942, 1363, 522, 274, 560, 164
93055819, 9708, -2919, -12860, -525, 4177, -828, -1410, -482, 1787, 2093, 209, 766, 942, 1363, 522, 274, 560, 164
93056744, 9962, -3324, -12569, -404, 4009, -1254, -1359, -622, 1918, 2469, 209, 766, 942, 1363, 522, 274, 560, 164
93057577, 9962, -3324, -12569, -404, 4009, -1254, -1359, -622, 1918, 2469, 223, 772, 1058, 1313, 576, 307, 591, 182
93058394, 9962, -3324, -12569, -404, 4009, -1254, -1359, -622, 1918, 2469, 223, 772, 1058, 1313, 576, 307, 591, 182
93063402, 9962, -3324, -12569, -404, 4009, -1254, -1359, -622, 1918, 2469, 223, 772, 1058, 1313, 576, 307, 591, 182
93064224, 9962, -3324, -12569, -404, 4009, -1254, -1359, -622, 1918, 2469, 223, 772, 1058, 1313, 576, 307, 591, 182
93065019, 9962, -3324, -12569, -404, 4009, -1254, -1359, -622, 1918, 2469, 223, 772, 1058, 1313, 576, 307, 591, 182
93065845, 9962, -3324, -12569, -404, 4009, -1254, -1359, -622, 1918, 2469, 223, 772, 1058, 1313, 576, 307, 591, 182
93070800, 9962, -3324, -12569, -404, 4009, -1254, -1359, -622, 1918, 2469, 223, 772, 1058, 1313, 576, 307, 591, 182
93071611, 9962, -3324, -12569, -404, 4009, -1254, -1359, -622, 1918, 2469, 223, 772, 1058, 1313, 576, 307, 591, 182
93072423, 9962, -3324, -12569, -404, 4009, -1254, -1359, -622, 1918, 2469, 223, 772, 1058, 1313, 576, 307, 591, 182
93073244, 9962, -3324, -12569, -404, 4009, -1254, -1359, -622, 1918, 2469, 223, 772, 1058, 1313, 576, 307, 591, 182
93078373, 9962, -3324, -12569, -404, 4009, -1254, -1359, -622, 1918, 2469, 223, 772, 1058, 1313, 576, 307, 591, 182
93079306, 10189, -3716, -12279, -204, 3637, -1369, -1437, -250, 1757, 2683, 223, 772, 1058, 1313, 576, 307, 591, 182
93080124, 10189, -3716, -12279, -204, 3637, -1369, -1437, -250, 1757, 2683, 245, 821, 1041, 1302, 571, 337, 719, 213
93080918, 10189, -3716, -12279, -204, 3637, -1369, -1437, -250, 1757, 2683, 245, 821, 1041, 1302, 571, 337, 719, 213
93085920, 10189, -3716, -12279, -204, 3637, -1369, -1437, -250, 1757, 2683, 245, 821, 1041, 1302, 571, 337, 719, 213
93086746, 10189, -3716, -12279, -204, 3637, -1369, -1437, -250, 1757, 2683, 245, 821, 1041, 1302, 571, 337, 719, 213
93087558, 10189, -3716, -12279, -204, 3637, -1369, -1437, -250, 1757, 2683, 245, 821, 1041, 1302, 571, 337, 719, 213
93088375, 10189, -3716, -12279, -204, 3637, -1369, -1437, -250, 1757, 2683, 245, 821, 1041, 1302, 571, 337, 719, 213
93093314, 10189, -3716, -12279, -204, 3637, -1369, -1437, -250, 1757, 2683, 245, 821, 1041, 1302, 571, 337, 719, 213
93094136, 10189, -3716, -12279, -204, 3637, -1369, -1437, -250, 1757, 2683, 245, 821, 1041, 1302, 571, 337, 719, 213
93094945, 10189, -3716, -12279, -204, 3637, -1369, -1437, -250, 1757, 2683, 245, 821, 1041, 1302, 571, 337, 719, 213
93095769, 10189, -3716, -12279, -204, 3637, -1369, -1437, -250, 1757, 2683, 245, 821, 1041, 1302, 571, 337, 719, 213
93100845, 10189, -3716, -12279, -204, 3637, -1369, -1437, -250, 1757, 2683, 245, 821, 1041, 1302, 571, 337, 719, 213
93101768, 10419, -4085, -11967, -8, 3484, -903, -1410, -155, 1861, 2675, 245, 821, 1041, 1302, 571, 337, 719, 213
93102578, 10419, -4085, -11967, -8, 3484, -903, -1410, -155, 1861, 2675, 248, 823, 1138, 1218, 507, 327, 771, 240
93103396, 10419, -4085, -11967, -8, 3484, -903, -1410, -155, 1861, 2675, 248, 823, 1138, 1218, 507, 327, 771, 240
93115901, 10419, -4085, -11967, -8, 3484, -903, -1410, -155, 1861, 2675, 248, 823, 1138, 1218, 507, 327, 771, 240
93116720, 10419, -4085, -11967, -8, 3484, -903, -1410, -155, 1861, 2675, 248, 823, 1138, 1218, 507, 327, 771, 240
93117531, 10419, -4085, -11967, -8, 3484, -903, -1410, -155, 1861, 2675, 248, 823, 1138, 1218, 507, 327, 771, 240
93118346, 10419, -4085, -11967, -8, 3484, -903, -1410, -155, 1861, 2675, 248, 823, 1138, 1218, 507, 327, 771, 240
93123289, 10419, -4085, -11967, -8, 3484, -903, -1410, -155, 1861, 2675, 248, 823, 1138, 1218, 507, 327, 771, 240
93124114, 10419, -4085, -11967, -8, 3484, -903, -1410, -155, 1861, 2675, 248, 823, 1138, 1218, 507, 327, 771, 240
93124918, 10419, -4085, -11967, -8, 3484, -903, -1410, -155, 1861, 2675, 248, 823, 1138, 1218, 507, 327, 771, 240
93125735, 10419, -4085, -11967, -8, 3484, -903, -1410, -155, 1861, 2675, 248, 823, 1138, 1218, 507, 327, 771, 240
93130816, 10419, -4085, -11967, -8, 3484, -903, -1410, -155, 1861, 2675, 248, 823, 1138, 1218, 507, 327, 771, 240
93131741, 10660, -4450, -11618, 158, 3153, -1032, -1264, -250, 2087, 2598, 248, 823, 1138, 1218, 507, 327, 771, 240
93132551, 10660, -4450, -11618, 158, 3153, -1032, -1264, -250, 2087, 2598, 253, 865, 1134, 1216, 531, 325, 816, 242
93133369, 10660, -4450, -11618, 158, 3153, -1032, -1264, -250, 2087, 2598, 253, 865, 1134, 1216, 531, 325, 816, 242
93138388, 10660, -4450, -11618, 158, 3153, -1032, -1264, -250, 2087, 2598, 253, 865, 1134, 1216, 531, 325, 816, 242
93139188, 10660, -4450, -11618, 158, 3153, -1032, -1264, -250, 2087, 2598, 253, 865, 1134, 1216, 531, 325, 816, 242
93140013, 10660, -4450, -11618, 158, 3153, -1032, -1264, -250, 2087, 2598, 253, 865, 1134, 1216, 531, 325, 816, 242
93140815, 10660, -4450, -11618, 158, 3153, -1032, -1264, -250, 2087, 2598, 253, 865, 1134, 1216, 531, 325, 816, 242
93145856, 10660, -4450, -11618, 158, 3153, -1032, -1264, -250, 2087, 2598, 253, 865, 1134, 1216, 531, 325, 816, 242
93146645, 10660, -4450, -11618, 158, 3153, -1032, -1264, -250, 2087, 2598, 253, 865, 1134, 1216, 531, 325, 816, 242
93147470, 10660, -4450, -11618, 158, 3153, -1032, -1264, -250, 2087, 2598, 253, 865, 1134, 1216, 531, 325, 816, 242
93148300, 10660, -4450, -11618, 158, 3153, -1032, -1264, -250, 2087, 2598, 253, 865, 1134, 1216, 531, 325, 816, 242
93153348, 10660, -4450, -11618, 158, 3153, -1032, -1264, -250, 2087, 2598, 253, 865, 1134, 1216, 531, 325, 816, 242
93154298, 10895, -4765, -11267, 306, 2707, -953, -1077, -137, 2099, 2344, 253, 865, 1134, 1216, 531, 325, 816, 242
93155096, 10895, -4765, -11267, 306, 2707, -953, -1077, -137, 2099, 2344, 234, 811, 1089, 1154, 522, 336, 913, 242
93155913, 10895, -4765, -11267, 306, 2707, -953, -1077, -137, 2099, 2344, 234, 811, 1089, 1154, 522, 336, 913, 242
93160933, 10895, -4765, -11267, 306, 2707, -953, -1077, -137, 2099, 2344, 234, 811, 1089, 1154, 522, 336, 913, 242
93161740, 10895, -4765, -11267, 306, 2707, -953, -1077, -137, 2099, 2344, 234, 811, 1089, 1154, 522, 336, 913, 242
93162538, 10895, -4765, -11267, 306, 2707, -953, -1077, -137, 2099, 2344, 234, 811, 1089, 1154, 522, 336, 913, 242
93163367, 10895, -4765, -11267, 306, 2707, -953, -1077, -137, 2099, 2344, 234, 811, 1089, 1154, 522, 336, 913, 242
93168314, 10895, -4765, -11267, 306, 2707, -953, -1077, -137, 2099, 2344, 234, 811, 1089, 1154, 522, 336, 913, 242
93169115, 10895, -4765, -11267, 306, 2707, -953, -1077, -137, 2099, 2344, 234, 811, 1089, 1154, 522, 336, 913, 242
93169930, 10895, -4765, -11267, 306, 2707, -953, -1077, -137, 2099, 2344, 234, 811, 1089, 1154, 522, 336, 913, 242
93170767, 10895, -4765, -11267, 306, 2707, -953, -1077, -137, 2099, 2344, 234, 811, 1089, 1154, 522, 336, 913, 242
93175850, 10895, -4765, -11267, 306, 2707, -953, -1077, -137, 2099, 2344, 234, 811, 1089, 1154, 522, 336, 913, 242
93176783, 11085, -5064, -10942, 437, 2727, -877, -1002, -216, 1849, 2208, 234, 811, 1089, 1154, 522, 336, 913, 242
93177594, 11085, -5064, -10942, 437, 2727, -877, -1002, -216, 1849, 2208, 220, 862, 1080, 1164, 476, 324, 1001, 262
93178393, 11085, -5064, -10942, 437, 2727, -877, -1002, -216, 1849, 2208, 220, 862, 1080, 1164, 476, 324, 1001, 262
93183396, 11085, -5064, -10942, 437, 2727, -877, -1002, -216, 1849, 2208, 220, 862, 1080, 1164, 476, 324, 1001, 262
93184215, 11085, -5064, -10942, 437, 2727, -877, -1002, -216, 1849, 2208, 220, 862, 1080, 1164, 476, 324, 1001, 262
93185020, 11085, -5064, -10942, 437, 2727, -877, -1002, -216, 1849, 2208, 220, 862, 1080, 1164, 476, 324, 1001, 262
93185846, 11085, -5064, -10942, 437, 2727, -877, -1002, -216, 1849, 2208, 220, 862, 1080, 1164, 476, 324, 1001, 262
93190813, 11085, -5064, -10942, 437, 2727, -877, -1002, -216, 1849, 2208, 220, 862, 1080, 1164, 476, 324, 1001, 262
93191595, 11085, -5064, -10942, 437, 2727, -877, -1002, -216, 1849, 2208, 220, 862, 1080, 1164, 476, 324, 1001, 262
93192407, 11085, -5064, -10942, 437, 2727, -877, -1002, -216, 1849, 2208, 220, 862, 1080, 1164, 476, 324, 1001, 262
93193253, 11085, -5064, -10942, 437, 2727, -877, -1002, -216, 1849, 2208, 220, 862, 1080, 1164, 476, 324, 1001, 262
93198322, 11085, -5064, -10942, 437, 2727, -877, -1002, -216, 1849, 2208, 220, 862, 1080, 1164, 476, 324, 1001, 262
93199247, 11246, -5337, -10638, 568, 2625, -974, -989, -163, 1663, 2078, 220, 862, 1080, 1164, 476, 324, 1001, 262
93200078, 11246, -5337, -10638, 568, 2625, -974, -989, -163, 1663, 2078, 218, 893, 1079, 1128, 481, 326, 1051, 259
93200862, 11246, -5337, -10638, 568, 2625, -974, -989, -163, 1663, 2078, 218, 893, 1079, 1128, 481, 326, 1051, 259
93205880, 11246, -5337, -10638, 568, 2625, -974, -989, -163, 1663, 2078, 218, 893, 1079, 1128, 481, 326, 1051, 259
93206727, 11246, -5337, -10638, 568, 2625, -974, -989, -163, 1663, 2078, 218, 893, 1079, 1128, 481, 326, 1051, 259
93207524, 11246, -5337, -10638, 568, 2625, -974, -989, -163, 1663, 2078, 218, 893, 1079, 1128, 481, 326, 1051, 259
93208311, 11246, -5337, -10638, 568, 2625, -974, -989, -163, 1663, 2078, 218, 893, 1079, 1128, 481, 326, 1051, 259
93213335, 11246, -5337, -10638, 568, 2625, -974, -989, -163, 1663, 2078, 218, 893, 1079, 1128, 481, 326, 1051, 259
93214136, 11246, -5337, -10638, 568, 2625, -974, -989, -163, 1663, 2078, 218, 893, 1079, 1128, 481, 326, 1051, 259
93215006, 11246, -5337, -10638, 568, 2625, -974, -989, -163, 1663, 2078, 218, 893, 1079, 1128, 481, 326, 1051, 259
93215779, 11246, -5337, -10638, 568, 2625, -974, -989, -163, 1663, 2078, 218, 893, 1079, 1128, 481, 326, 1051, 259
93220843, 11246, -5337, -10638, 568, 2625, -974, -989, -163, 1663, 2078, 218, 893, 1079, 1128, 481, 326, 1051, 259
93221780, 11376, -5562, -10375, 682, 2355, -911, -963, -101, 1421, 1769, 218, 893, 1079, 1128, 481, 326, 1051, 259
93222588, 11376, -5562, -10375, 682, 2355, -911, -963, -101, 1421, 1769, 296, 893, 1016, 1091, 486, 306, 1066, 253
93223396, 11376, -5562, -10375, 682, 2355, -911, -963, -101, 1421, 1769, 296, 893, 1016, 1091, 486, 306, 1066, 253
93228445, 11376, -5562, -10375, 682, 2355, -911, -963, -101, 1421, 1769, 296, 893, 1016, 1091, 486, 306, 1066, 253
93229214, 11376, -5562, -10375, 682, 2355, -911, -963, -101, 1421, 1769, 296, 893, 1016, 1091, 486, 306, 1066, 253
93230044, 11376, -5562, -10375, 682, 2355, -911, -963, -101, 1421, 1769, 296, 893, 1016, 1091, 486, 306, 1066, 253
93230867, 11376, -5562, -10375, 682, 2355, -911, -963, -101, 1421, 1769, 296, 893, 1016, 1091, 486, 306, 1066, 253
93235818, 11376, -5562, -10375, 682, 2355, -911, -963, -101, 1421, 1769, 296, 893, 1016, 1091, 486, 306, 1066, 253
93236625, 11376, -5562, -10375, 682, 2355, -911, -963, -101, 1421, 1769, 296, 893, 1016, 1091, 486, 306, 1066, 253
93237441, 11376, -5562, -10375, 682, 2355, -911, -963, -101, 1421, 1769, 296, 893, 1016, 1091, 486, 306, 1066, 253
93238242, 11376, -5562, -10375, 682, 2355, -911, -963, -101, 1421, 1769, 296, 893, 1016, 1091, 486, 306, 1066, 253
93243327, 11376, -5562, -10375, 682, 2355, -911, -963, -101, 1421, 1769, 296, 893, 1016, 1091, 486, 306, 1066, 253
93244278, 11417, -5748, -10224, 733, 2278, -931, -897, -174, 1066, 1386, 296, 893, 1016, 1091, 486, 306, 1066, 253
93245064, 11417, -5748, -10224, 733, 2278, -931, -897, -174, 1066, 1386, 295, 940, 1096, 1123, 471, 302, 1160, 263
93245887, 11417, -5748, -10224, 733, 2278, -931, -897, -174, 1066, 1386, 295, 940, 1096, 1123, 471, 302, 1160, 263
93250891, 11417, -5748, -10224, 733, 2278, -931, -897, -174, 1066, 1386, 295, 940, 1096, 1123, 471, 302, 1160, 263
93251715, 11417, -5748, -10224, 733, 2278, -931, -897, -174, 1066, 1386, 295, 940, 1096, 1123, 471, 302, 1160, 263
93252521, 11417, -5748, -10224, 733, 2278, -931, -897, -174, 1066, 1386, 295, 940, 1096, 1123, 471, 302, 1160, 263
93253341, 11417, -5748, -10224, 733, 2278, -931, -897, -174, 1066, 1386, 295, 940, 1096, 1123, 471, 302, 1160, 263
93258293, 11417, -5748, -10224, 733, 2278, -931, -897, -174, 1066, 1386, 295, 940, 1096, 1123, 471, 302, 1160, 263
93259088, 11417, -5748, -10224, 733, 2278, -931, -897, -174, 1066, 1386, 295, 940, 1096, 1123, 471, 302, 1160, 263
93259917, 11417, -5748, -10224, 733, 2278, -931, -897, -174, 1066, 1386, 295, 940, 1096, 1123, 471, 302, 1160, 263
93260748, 11417, -5748, -10224, 733, 2278, -931, -897, -174, 1066, 1386, 295, 940, 1096, 1123, 471, 302, 1160, 263
93265877, 11417, -5748, -10224, 733, 2278, -931, -897, -174, 1066, 1386, 295, 940, 1096, 1123, 471, 302, 1160, 263
93266799, 11418, -5928, -10116, 770, 2279, -1082, -937, -272, 799, 1197, 295, 940, 1096, 1123, 471, 302, 1160, 263
93267612, 11418, -5928, -10116, 770, 2279, -1082, -937, -272, 799, 1197, 314, 969, 1202, 1198, 488, 278, 1217, 265
93268423, 11418, -5928, -10116, 770, 2279, -1082, -937, -272, 799, 1197, 314, 969, 1202, 1198, 488, 278, 1217, 265
93273422, 11418, -5928, -10116, 770, 2279, -1082, -937, -272, 799, 1197, 314, 969, 1202, 1198, 488, 278, 1217, 265
93274246, 11418, -5928, -10116, 770, 2279, -1082, -937, -272, 799, 1197, 314, 969, 1202, 1198, 488, 278, 1217, 265
93275069, 11418, -5928, -10116, 770, 2279, -1082, -937, -272, 799, 1197, 314, 969, 1202, 1198, 488, 278, 1217, 265
93275874, 11418, -5928, -10116, 770, 2279, -1082, -937, -272, 799, 1197, 314, 969, 1202, 1198, 488, 278, 1217, 265
93280823, 11418, -5928, -10116, 770, 2279, -1082, -937, -272, 799, 1197, 314, 969, 1202, 1198, 488, 278, 1217, 265
93281626, 11418, -5928, -10116, 770, 2279, -1082, -937, -272, 799, 1197, 314, 969, 1202, 1198, 488, 278, 1217, 265
93282444, 11418, -5928, -10116, 770, 2279, -1082, -937, -272, 799, 1197, 314, 969, 1202, 1198, 488, 278, 1217, 265
93283268, 11418, -5928, -10116, 770, 2279, -1082, -937, -272, 799, 1197, 314, 969, 1202, 1198, 488, 278, 1217, 265
93288340, 11418, -5928, -10116, 770, 2279, -1082, -937, -272, 799, 1197, 314, 969, 1202, 1198, 488, 278, 1217, 265
93289265, 11410, -6078, -10032, 817, 2309, -1380, -933, -139, 640, 984, 314, 969, 1202, 1198, 488, 278, 1217, 265
93290095, 11410, -6078, -10032, 817, 2309, -1380, -933, -139, 640, 984, 310, 914, 1164, 1171, 493, 262, 1203, 290
93290891, 11410, -6078, -10032, 817, 2309, -1380, -933, -139, 640, 984, 310, 914, 1164, 1171, 493, 262, 1203, 290
93295919, 11410, -6078, -10032, 817, 2309, -1380, -933, -139, 640, 984, 310, 914, 1164, 1171, 493, 262, 1203, 290
93296717, 11410, -6078, -10032, 817, 2309, -1380, -933, -139, 640, 984, 310, 914, 1164, 1171, 493, 262, 1203, 290
93297530, 11410, -6078, -10032, 817, 2309, -1380, -933, -139, 640, 984, 310, 914, 1164, 1171, 493, 262, 1203, 290
93298334, 11410, -6078, -10032, 817, 2309, -1380, -933, -139, 640, 984, 310, 914, 1164, 1171, 493, 262, 1203, 290
93303288, 11410, -6078, -10032, 817, 2309, -1380, -933, -139, 640, 984, 310, 914, 1164, 1171, 493, 262, 1203, 290
93304113, 11410, -6078, -10032, 817, 2309, -1380, -933, -139, 640, 984, 310, 914, 1164, 1171, 493, 262, 1203, 290
93304941, 11410, -6078, -10032, 817, 2309, -1380, -933, -139, 640, 984, 310, 914, 1164, 1171, 493, 262, 1203, 290
93305739, 11410, -6078, -10032, 817, 2309, -1380, -933, -139, 640, 984, 310, 914, 1164, 1171, 493, 262, 1203, 290
93310818, 11410, -6078, -10032, 817, 2309, -1380, -933, -139, 640, 984, 310, 914, 1164, 1171, 493, 262, 1203, 290
93311784, 11406, -6174, -9972, 880, 2190, -1400, -931, 132, 502, 790, 310, 914, 1164, 1171, 493, 262, 1203, 290
93312699, 11406, -6174, -9972, 880, 2190, -1400, -931, 132, 502, 790, 294, 856, 1176, 1145, 434, 238, 1176, 276
93313379, 11406, -6174, -9972, 880, 2190, -1400, -931, 132, 502, 790, 294, 856, 1176, 1145, 434, 238, 1176, 276
93318403, 11406, -6174, -9972, 880, 2190, -1400, -931, 132, 502, 790, 294, 856, 1176, 1145, 434, 238, 1176, 276
93319206, 11406, -6174, -9972, 880, 2190, -1400, -931, 132, 502, 790, 294, 856, 1176, 1145, 434, 238, 1176, 276
93320022, 11406, -6174, -9972, 880, 2190, -1400, -931, 132, 502, 790, 294, 856, 1176, 1145, 434, 238, 1176, 276
93320844, 11406, -6174, -9972, 880, 2190, -1400, -931, 132, 502, 790, 294, 856, 1176, 1145, 434, 238, 1176, 276
93325767, 11406, -6174, -9972, 880, 2190, -1400, -931, 132, 502, 790, 294, 856, 1176, 1145, 434, 238, 1176, 276
93326586, 11406, -6174, -9972, 880, 2190, -1400, -931, 132, 502, 790, 294, 856, 1176, 1145, 434, 238, 1176, 276
93327421, 11406, -6174, -9972, 880, 2190, -1400, -931, 132, 502, 790, 294, 856, 1176, 1145, 434, 238, 1176, 276
93328214, 11406, -6174, -9972, 880, 2190, -1400, -931, 132, 502, 790, 294, 856, 1176, 1145, 434, 238, 1176, 276
93333340, 11406, -6174, -9972, 880, 2190, -1400, -931, 132, 502, 790, 294, 856, 1176, 1145, 434, 238, 1176, 276
93334293, 11403, -6255, -9918, 960, 2091, -1360, -911, 248, 429, 795, 294, 856, 1176, 1145, 434, 238, 1176, 276
93335095, 11403, -6255, -9918, 960, 2091, -1360, -911, 248, 429, 795, 229, 880, 1201, 1137, 411, 235, 1186, 268
93335916, 11403, -6255, -9918, 960, 2091, -1360, -911, 248, 429, 795, 229, 880, 1201, 1137, 411, 235, 1186, 268
93340934, 11403, -6255, -9918, 960, 2091, -1360, -911, 248, 429, 795, 229, 880, 1201, 1137, 411, 235, 1186, 268
93341747, 11403, -6255, -9918, 960, 2091, -1360, -911, 248, 429, 795, 229, 880, 1201, 1137, 411, 235, 1186, 268
93342558, 11403, -6255, -9918, 960, 2091, -1360, -911, 248, 429, 795, 229, 880, 1201, 1137, 411, 235, 1186, 268
93343375, 11403, -6255, -9918, 960, 2091, -1360, -911, 248, 429, 795, 229, 880, 1201, 1137, 411, 235, 1186, 268
93348322, 11403, -6255, -9918, 960, 2091, -1360, -911, 248, 429, 795, 229, 880, 1201, 1137, 411, 235, 1186, 268
93349147, 11403, -6255, -9918, 960, 2091, -1360, -911, 248, 429, 795, 229, 880, 1201, 1137, 411, 235, 1186, 268
93349948, 11403, -6255, -9918, 960, 2091, -1360, -911, 248, 429, 795, 229, 880, 1201, 1137, 411, 235, 1186, 268
93350775, 11403, -6255, -9918, 960, 2091, -1360, -911, 248, 429, 795, 229, 880, 1201, 1137, 411, 235, 1186, 268
93355825, 11403, -6255, -9918, 960, 2091, -1360, -911, 248, 429, 795, 229, 880, 1201, 1137, 411, 235, 1186, 268
93356773, 11403, -6336, -9856, 1070, 1940, -1542, -846, 342, 382, 827, 229, 880, 1201, 1137, 411, 235, 1186, 268
93357584, 11403, -6336, -9856, 1070, 1940, -1542, -846, 342, 382, 827, 240, 895, 1131, 1148, 458, 220, 1156, 282
93358394, 11403, -6336, -9856, 1070, 1940, -1542, -846, 342, 382, 827, 240, 895, 1131, 1148, 458, 220, 1156, 282
93363400, 11403, -6336, -9856, 1070, 1940, -1542, -846, 342, 382, 827, 240, 895, 1131, 1148, 458, 220, 1156, 282
93364225, 11403, -6336, -9856, 1070, 1940, -1542, -846, 342, 382, 827, 240, 895, 1131, 1148, 458, 220, 1156, 282
93365050, 11403, -6336, -9856, 1070, 1940, -1542, -846, 342, 382, 827, 240, 895, 1131, 1148, 458, 220, 1156, 282
93365843, 11403, -6336, -9856, 1070, 1940, -1542, -846, 342, 382, 827, 240, 895, 1131, 1148, 458, 220, 1156, 282
93370795, 11403, -6336, -9856, 1070, 1940, -1542, -846, 342, 382, 827, 240, 895, 1131, 1148, 458, 220, 1156, 282
93371595, 11403, -6336, -9856, 1070, 1940, -1542, -846, 342, 382, 827, 240, 895, 1131, 1148, 458, 220, 1156, 282
93372420, 11403, -6336, -9856, 1070, 1940, -1542, -846, 342, 382, 827, 240, 895, 1131, 1148, 458, 220, 1156, 282
93373245, 11403, -6336, -9856, 1070, 1940, -1542, -846, 342, 382, 827, 240, 895, 1131, 1148, 458, 220, 1156, 282
93378316, 11403, -6336, -9856, 1070, 1940, -1542, -846, 342, 382, 827, 240, 895, 1131, 1148, 458, 220, 1156, 282
93379244, 11399, -6401, -9805, 1180, 1994, -1625, -851, 401, 316, 756, 240, 895, 1131, 1148, 458, 220, 1156, 282
93380065, 11399, -6401, -9805, 1180, 1994, -1625, -851, 401, 316, 756, 245, 952, 1012, 1152, 501, 241, 1078, 305
93380867, 11399, -6401, -9805, 1180, 1994, -1625, -851, 401, 316, 756, 245, 952, 1012, 1152, 501, 241, 1078, 305
93385876, 11399, -6401, -9805, 1180, 1994, -1625, -851, 401, 316, 756, 245, 952, 1012, 1152, 501, 241, 1078, 305
93386730, 11399, -6401, -9805, 1180, 1994, -1625, -851, 401, 316, 756, 245, 952, 1012, 1152, 501, 241, 1078, 305
93387506, 11399, -6401, -9805, 1180, 1994, -1625, -851, 401, 316, 756, 245, 952, 1012, 1152, 501, 241, 1078, 305
93388314, 11399, -6401, -9805, 1180, 1994, -1625, -851, 401, 316, 756, 245, 952, 1012, 1152, 501, 241, 1078, 305
93393092, 11399, -6401, -9805, 1180, 1994, -1625, -851, 401, 316, 756, 245, 952, 1012, 1152, 501, 241, 1078, 305
93393951, 11399, -6401, -9805, 1180, 1994, -1625, -851, 401, 316, 756, 245, 952, 1012, 1152, 501, 241, 1078, 305
93394724, 11399, -6401, -9805, 1180, 1994, -1625, -851, 401, 316, 756, 245, 952, 1012, 1152, 501, 241, 1078, 305
93395532, 11399, -6401, -9805, 1180, 1994, -1625, -851, 401, 316, 756, 245, 952, 1012, 1152, 501, 241, 1078, 305
93400834, 11399, -6401, -9805, 1180, 1994, -1625, -851, 401, 316, 756, 245, 952, 1012, 1152, 501, 241, 1078, 305
93401807, 11400, -6449, -9758, 1292, 2099, -1731, -807, 478, 283, 713, 245, 952, 1012, 1152, 501, 241, 1078, 305
93402581, 11400, -6449, -9758, 1292, 2099, -1731, -807, 478, 283, 713, 250, 933, 1048, 1196, 517, 243, 1074, 300
93403410, 11400, -6449, -9758, 1292, 2099, -1731, -807, 478, 283, 713, 250, 933, 1048, 1196, 517, 243, 1074, 300
93408471, 11400, -6449, -9758, 1292, 2099, -1731, -807, 478, 283, 713, 250, 933, 1048, 1196, 517, 243, 1074, 300
93409229, 11400, -6449, -9758, 1292, 2099, -1731, -807, 478, 283, 713, 250, 933, 1048, 1196, 517, 243, 1074, 300
93410038, 11400, -6449, -9758, 1292, 2099, -1731, -807, 478, 283, 713, 250, 933, 1048, 1196, 517, 243, 1074, 300
93411108, 11400, -6449, -9758, 1292, 2099, -1731, -807, 478, 283, 713, 250, 933, 1048, 1196, 517, 243, 1074, 300
93415812, 11400, -6449, -9758, 1292, 2099, -1731, -807, 478, 283, 713, 250, 933, 1048, 1196, 517, 243, 1074, 300
93416637, 11400, -6449, -9758, 1292, 2099, -1731, -807, 478, 283, 713, 250, 933, 1048, 1196, 517, 243, 1074, 300
93417452, 11400, -6449, -9758, 1292, 2099, -1731, -807, 478, 283, 713, 250, 933, 1048, 1196, 517, 243, 1074, 300
93418277, 11400, -6449, -9758, 1292, 2099, -1731, -807, 478, 283, 713, 250, 933, 1048, 1196, 517, 243, 1074, 300
93423331, 11400, -6449, -9758, 1292, 2099, -1731, -807, 478, 283, 713, 250, 933, 1048, 1196, 517, 243, 1074, 300
93424274, 11421, -6470, -9701, 1426, 2179, -1783, -785, 705, 323, 749, 250, 933, 1048, 1196, 517, 243, 1074, 300
93425075, 11421, -6470, -9701, 1426, 2179, -1783, -785, 705, 323, 749, 242, 1010, 1100, 1264, 548, 239, 984, 315
93425901, 11421, -6470, -9701, 1426, 2179, -1783, -785, 705, 323, 749, 242, 1010, 1100, 1264, 548, 239, 984, 315
93430906, 11421, -6470, -9701, 1426, 2179, -1783, -785, 705, 323, 749, 242, 1010, 1100, 1264, 548, 239, 984, 315
93431812, 11421, -6470, -9701, 1426, 2179, -1783, -785, 705, 323, 749, 242, 1010, 1100, 1264, 548, 239, 984, 315
93432528, 11421, -6470, -9701, 1426, 2179, -1783, -785, 705, 323, 749, 242, 1010, 1100, 1264, 548, 239, 984, 315
93433349, 11421, -6470, -9701, 1426, 2179, -1783, -785, 705, 323, 749, 242, 1010, 1100, 1264, 548, 239, 984, 315
93438301, 11421, -6470, -9701, 1426, 2179, -1783, -785, 705, 323, 749, 242, 1010, 1100, 1264, 548, 239, 984, 315
93439100, 11421, -6470, -9701, 1426, 2179, -1783, -785, 705, 323, 749, 242, 1010, 1100, 1264, 548, 239, 984, 315
93439923, 11421, -6470, -9701, 1426, 2179, -1783, -785, 705, 323, 749, 242, 1010, 1100, 1264, 548, 239, 984, 315
93440730, 11421, -6470, -9701, 1426, 2179, -1783, -785, 705, 323, 749, 242, 1010, 1100, 1264, 548, 239, 984, 315
93445878, 11421, -6470, -9701, 1426, 2179, -1783, -785, 705, 323, 749, 242, 1010, 1100, 1264, 548, 239, 984, 315
93446790, 11435, -6497, -9645, 1564, 2216, -1763, -850, 714, 312, 837, 242, 1010, 1100, 1264, 548, 239, 984, 315
93447612, 11435, -6497, -9645, 1564, 2216, -1763, -850, 714, 312, 837, 243, 1148, 1120, 1290, 605, 250, 1003, 311
93448416, 11435, -6497, -9645, 1564, 2216, -1763, -850, 714, 312, 837, 242, 1010, 1100, 1264, 548, 239, 984, 315
93453364, 11435, -6497, -9645, 1564, 2216, -1763, -850, 714, 312, 837, 243, 1148, 1120, 1290, 605, 250, 1003, 311
93454188, 11435, -6497, -9645, 1564, 2216, -1763, -850, 714, 312, 837, 243, 1148, 1120, 1290, 605, 250, 1003, 311
93454987, 11435, -6497, -9645, 1564, 2216, -1763, -850, 714, 312, 837, 243, 1148, 1120, 1290, 605, 250, 1003, 311
93455811, 11435, -6497, -9645, 1564, 2216, -1763, -850, 714, 312, 837, 243, 1148, 1120, 1290, 605, 250, 1003, 311
93460807, 11435, -6497, -9645, 1564, 2216, -1763, -850, 714, 312, 837, 243, 1148, 1120, 1290, 605, 250, 1003, 311
93461627, 11435, -6497, -9645, 1564, 2216, -1763, -850, 714, 312, 837, 243, 1148, 1120, 1290, 605, 250, 1003, 311
93462449, 11435, -6497, -9645, 1564, 2216, -1763, -850, 714, 312, 837, 243, 1148, 1120, 1290, 605, 250, 1003, 311
93463281, 11435, -6497, -9645, 1564, 2216, -1763, -850, 714, 312, 837, 243, 1148, 1120, 1290, 605, 250, 1003, 311
93468353, 11435, -6497, -9645, 1564, 2216, -1763, -850, 714, 312, 837, 243, 1148, 1120, 1290, 605, 250, 1003, 311
93469275, 11449, -6541, -9575, 1698, 2317, -1950, -837, 647, 390, 896, 243, 1148, 1120, 1290, 605, 250, 1003, 311
93470080, 11449, -6541, -9575, 1698, 2317, -1950, -837, 647, 390, 896, 222, 1031, 1103, 1233, 565, 250, 944, 339
93470882, 11449, -6541, -9575, 1698, 2317, -1950, -837, 647, 390, 896, 222, 1031, 1103, 1233, 565, 250, 944, 339
93483432, 11449, -6541, -9575, 1698, 2317, -1950, -837, 647, 390, 896, 222, 1031, 1103, 1233, 565, 250, 944, 339
93484221, 11449, -6541, -9575, 1698, 2317, -1950, -837, 647, 390, 896, 222, 1031, 1103, 1233, 565, 250, 944, 339
93485049, 11449, -6541, -9575, 1698, 2317, -1950, -837, 647, 390, 896, 222, 1031, 1103, 1233, 565, 250, 944, 339
93485849, 11449, -6541, -9575, 1698, 2317, -1950, -837, 647, 390, 896, 222, 1031, 1103, 1233, 565, 250, 944, 339
93490807, 11449, -6541, -9575, 1698, 2317, -1950, -837, 647, 390, 896, 222, 1031, 1103, 1233, 565, 250, 944, 339
93491616, 11449, -6541, -9575, 1698, 2317, -1950, -837, 647, 390, 896, 222, 1031, 1103, 1233, 565, 250, 944, 339
93492443, 11449, -6541, -9575, 1698, 2317, -1950, -837, 647, 390, 896, 222, 1031, 1103, 1233, 565, 250, 944, 339
93493274, 11449, -6541, -9575, 1698, 2317, -1950, -837, 647, 390, 896, 222, 1031, 1103, 1233, 565, 250, 944, 339
93498426, 11449, -6541, -9575, 1698, 2317, -1950, -837, 647, 390, 896, 205, 992, 1176, 1258, 582, 273, 993, 405
93499246, 11449, -6541, -9575, 1698, 2317, -1950, -837, 647, 390, 896, 205, 992, 1176, 1258, 582, 273, 993, 405
93500050, 11449, -6541, -9575, 1698, 2317, -1950, -837, 647, 390, 896, 205, 992, 1176, 1258, 582, 273, 993, 405
93500871, 11449, -6541, -9575, 1698, 2317, -1950, -837, 647, 390, 896, 205, 992, 1176, 1258, 582, 273, 993, 405
93505821, 11449, -6541, -9575, 1698, 2317, -1950, -837, 647, 390, 896, 205, 992, 1176, 1258, 582, 273, 993, 405
93506630, 11449, -6541, -9575, 1698, 2317, -1950, -837, 647, 390, 896, 205, 992, 1176, 1258, 582, 273, 993, 405
93507445, 11449, -6541, -9575, 1698, 2317, -1950, -837, 647, 390, 896, 205, 992, 1176, 1258, 582, 273, 993, 405
93508271, 11449, -6541, -9575, 1698, 2317, -1950, -837, 647, 390, 896, 205, 992, 1176, 1258, 582, 273, 993, 405
93513322, 11449, -6541, -9575, 1698, 2317, -1950, -837, 647, 390, 896, 205, 992, 1176, 1258, 582, 273, 993, 405
93514264, 11507, -6594, -9413, 1983, 2482, -2123, -654, 789, 366, 966, 205, 992, 1176, 1258, 582, 273, 993, 405
93515061, 11507, -6594, -9413, 1983, 2482, -2123, -654, 789, 366, 966, 202, 1115, 1119, 1255, 565, 285, 963, 373
93515886, 11507, -6594, -9413, 1983, 2482, -2123, -654, 789, 366, 966, 202, 1115, 1119, 1255, 565, 285, 963, 373
93520889, 11507, -6594, -9413, 1983, 2482, -2123, -654, 789, 366, 966, 202, 1115, 1119, 1255, 565, 285, 963, 373
93521711, 11507, -6594, -9413, 1983, 2482, -2123, -654, 789, 366, 966, 202, 1115, 1119, 1255, 565, 285, 963, 373
93522531, 11507, -6594, -9413, 1983, 2482, -2123, -654, 789, 366, 966, 202, 1115, 1119, 1255, 565, 285, 963, 373
93523336, 11507, -6594, -9413, 1983, 2482, -2123, -654, 789, 366, 966, 202, 1115, 1119, 1255, 565, 285, 963, 373
93528295, 11507, -6594, -9413, 1983, 2482, -2123, -654, 789, 366, 966, 202, 1115, 1119, 1255, 565, 285, 963, 373
93529122, 11507, -6594, -9413, 1983, 2482, -2123, -654, 789, 366, 966, 202, 1115, 1119, 1255, 565, 285, 963, 373
93529925, 11507, -6594, -9413, 1983, 2482, -2123, -654, 789, 366, 966, 202, 1115, 1119, 1255, 565, 285, 963, 373
93530759, 11507, -6594, -9413, 1983, 2482, -2123, -654, 789, 366, 966, 202, 1115, 1119, 1255, 565, 285, 963, 373
93535823, 11507, -6594, -9413, 1983, 2482, -2123, -654, 789, 366, 966, 202, 1115, 1119, 1255, 565, 285, 963, 373
93536751, 11525, -6605, -9355, 2112, 2588, -1985, -686, 744, 305, 919, 202, 1115, 1119, 1255, 565, 285, 963, 373
93537561, 11525, -6605, -9355, 2112, 2588, -1985, -686, 744, 305, 919, 209, 1103, 1077, 1124, 555, 284, 1003, 365
93538373, 11525, -6605, -9355, 2112, 2588, -1985, -686, 744, 305, 919, 209, 1103, 1077, 1124, 555, 284, 1003, 365
93543382, 11525, -6605, -9355, 2112, 2588, -1985, -686, 744, 305, 919, 209, 1103, 1077, 1124, 555, 284, 1003, 365
93544180, 11525, -6605, -9355, 2112, 2588, -1985, -686, 744, 305, 919, 209, 1103, 1077, 1124, 555, 284, 1003, 365
93545024, 11525, -6605, -9355, 2112, 2588, -1985, -686, 744, 305, 919, 209, 1103, 1077, 1124, 555, 284, 1003, 365
93545825, 11525, -6605, -9355, 2112, 2588, -1985, -686, 744, 305, 919, 209, 1103, 1077, 1124, 555, 284, 1003, 365
93550824, 11525, -6605, -9355, 2112, 2588, -1985, -686, 744, 305, 919, 209, 1103, 1077, 1124, 555, 284, 1003, 365
93551722, 11525, -6605, -9355, 2112, 2588, -1985, -686, 744, 305, 919, 209, 1103, 1077, 1124, 555, 284, 1003, 365
93552405, 11525, -6605, -9355, 2112, 2588, -1985, -686, 744, 305, 919, 209, 1103, 1077, 1124, 555, 284, 1003, 365
93553273, 11525, -6605, -9355, 2112, 2588, -1985, -686, 744, 305, 919, 209, 1103, 1077, 1124, 555, 284, 1003, 365
93558345, 11525, -6605, -9355, 2112, 2588, -1985, -686, 744, 305, 919, 209, 1103, 1077, 1124, 555, 284, 1003, 365
93559275, 11552, -6614, -9297, 2191, 2650, -1953, -640, 607, 432, 765, 209, 1103, 1077, 1124, 555, 284, 1003, 365
93560093, 11552, -6614, -9297, 2191, 2650, -1953, -640, 607, 432, 765, 203, 1001, 1025, 1098, 546, 291, 943, 356
93560921, 11552, -6614, -9297, 2191, 2650, -1953, -640, 607, 432, 765, 203, 1001, 1025, 1098, 546, 291, 943, 356
93565917, 11552, -6614, -9297, 2191, 2650, -1953, -640, 607, 432, 765, 203, 1001, 1025, 1098, 546, 291, 943, 356
93566736, 11552, -6614, -9297, 2191, 2650, -1953, -640, 607, 432, 765, 203, 1001, 1025, 1098, 546, 291, 943, 356
93567537, 11552, -6614, -9297, 2191, 2650, -1953, -640, 607, 432, 765, 203, 1001, 1025, 1098, 546, 291, 943, 356
93568363, 11552, -6614, -9297, 2191, 2650, -1953, -640, 607, 432, 765, 203, 1001, 1025, 1098, 546, 291, 943, 356
93573327, 11552, -6614, -9297, 2191, 2650, -1953, -640, 607, 432, 765, 203, 1001, 1025, 1098, 546, 291, 943, 356
93574118, 11552, -6614, -9297, 2191, 2650, -1953, -640, 607, 432, 765, 203, 1001, 1025, 1098, 546, 291, 943, 356
93574954, 11552, -6614, -9297, 2191, 2650, -1953, -640, 607, 432, 765, 203, 1001, 1025, 1098, 546, 291, 943, 356
93575754, 11552, -6614, -9297, 2191, 2650, -1953, -640, 607, 432, 765, 203, 1001, 1025, 1098, 546, 291, 943, 356
93580820, 11552, -6614, -9297, 2191, 2650, -1953, -640, 607, 432, 765, 203, 1001, 1025, 1098, 546, 291, 943, 356
93581763, 11600, -6581, -9251, 2234, 2786, -1910, -579, 686, 499, 522, 203, 1001, 1025, 1098, 546, 291, 943, 356
93582560, 11600, -6581, -9251, 2234, 2786, -1910, -579, 686, 499, 522, 216, 1216, 1037, 1163, 569, 293, 1035, 322
93583387, 11600, -6581, -9251, 2234, 2786, -1910, -579, 686, 499, 522, 216, 1216, 1037, 1163, 569, 293, 1035, 322
93588394, 11600, -6581, -9251, 2234, 2786, -1910, -579, 686, 499, 522, 216, 1216, 1037, 1163, 569, 293, 1035, 322
93589216, 11600, -6581, -9251, 2234, 2786, -1910, -579, 686, 499, 522, 216, 1216, 1037, 1163, 569, 293, 1035, 322
93590017, 11600, -6581, -9251, 2234, 2786, -1910, -579, 686, 499, 522, 216, 1216, 1037, 1163, 569, 293, 1035, 322
93590843, 11600, -6581, -9251, 2234, 2786, -1910, -579, 686, 499, 522, 216, 1216, 1037, 1163, 569, 293, 1035, 322
93595792, 11600, -6581, -9251, 2234, 2786, -1910, -579, 686, 499, 522, 216, 1216, 1037, 1163, 569, 293, 1035, 322
93596601, 11600, -6581, -9251, 2234, 2786, -1910, -579, 686, 499, 522, 216, 1216, 1037, 1163, 569, 293, 1035, 322
93597418, 11600, -6581, -9251, 2234, 2786, -1910, -579, 686, 499, 522, 216, 1216, 1037, 1163, 569, 293, 1035, 322
93598243, 11600, -6581, -9251, 2234, 2786, -1910, -579, 686, 499, 522, 216, 1216, 1037, 1163, 569, 293, 1035, 322
93603374, 11600, -6581, -9251, 2234, 2786, -1910, -579, 686, 499, 522, 216, 1216, 1037, 1163, 569, 293, 1035, 322
93604302, 11656, -6507, -9231, 2240, 2956, -1850, -545, 726, 475, 263, 216, 1216, 1037, 1163, 569, 293, 1035, 322
93605125, 11656, -6507, -9231, 2240, 2956, -1850, -545, 726, 475, 263, 224, 1211, 984, 1165, 509, 253, 1001, 213
93605919, 11656, -6507, -9231, 2240, 2956, -1850, -545, 726, 475, 263, 224, 1211, 984, 1165, 509, 253, 1001, 213
93610977, 11656, -6507, -9231, 2240, 2956, -1850, -545, 726, 475, 263, 224, 1211, 984, 1165, 509, 253, 1001, 213
93611743, 11656, -6507, -9231, 2240, 2956, -1850, -545, 726, 475, 263, 224, 1211, 984, 1165, 509, 253, 1001, 213
93612566, 11656, -6507, -9231, 2240, 2956, -1850, -545, 726, 475, 263, 224, 1211, 984, 1165, 509, 253, 1001, 213
93613366, 11656, -6507, -9231, 2240, 2956, -1850, -545, 726, 475, 263, 224, 1211, 984, 1165, 509, 253, 1001, 213
93618319, 11656, -6507, -9231, 2240, 2956, -1850, -545, 726, 475, 263, 224, 1211, 984, 1165, 509, 253, 1001, 213
93619157, 11656, -6507, -9231, 2240, 2956, -1850, -545, 726, 475, 263, 224, 1211, 984, 1165, 509, 253, 1001, 213
93619975, 11656, -6507, -9231, 2240, 2956, -1850, -545, 726, 475, 263, 224, 1211, 984, 1165, 509, 253, 1001, 213
93620759, 11656, -6507, -9231, 2240, 2956, -1850, -545, 726, 475, 263, 224, 1211, 984, 1165, 509, 253, 1001, 213
93625848, 11656, -6507, -9231, 2240, 2956, -1850, -545, 726, 475, 263, 224, 1211, 984, 1165, 509, 253, 1001, 213
93626768, 11691, -6400, -9272, 2196, 3019, -1599, -592, 618, 282, -64, 224, 1211, 984, 1165, 509, 253, 1001, 213
93627647, 11691, -6400, -9272, 2196, 3019, -1599, -592, 618, 282, -64, 268, 1173, 1169, 1160, 537, 252, 1016, 212
93628385, 11691, -6400, -9272, 2196, 3019, -1599, -592, 618, 282, -64, 268, 1173, 1169, 1160, 537, 252, 1016, 212
93633441, 11691, -6400, -9272, 2196, 3019, -1599, -592, 618, 282, -64, 268, 1173, 1169, 1160, 537, 252, 1016, 212
93634222, 11691, -6400, -9272, 2196, 3019, -1599, -592, 618, 282, -64, 268, 1173, 1169, 1160, 537, 252, 1016, 212
93635039, 11691, -6400, -9272, 2196, 3019, -1599, -592, 618, 282, -64, 268, 1173, 1169, 1160, 537, 252, 1016, 212
93635864, 11691, -6400, -9272, 2196, 3019, -1599, -592, 618, 282, -64, 268, 1173, 1169, 1160, 537, 252, 1016, 212
93640794, 11691, -6400, -9272, 2196, 3019, -1599, -592, 618, 282, -64, 268, 1173, 1169, 1160, 537, 252, 1016, 212
93641639, 11691, -6400, -9272, 2196, 3019, -1599, -592, 618, 282, -64, 268, 1173, 1169, 1160, 537, 252, 1016, 212
93642444, 11691, -6400, -9272, 2196, 3019, -1599, -592, 618, 282, -64, 268, 1173, 1169, 1160, 537, 252, 1016, 212
93643245, 11691, -6400, -9272, 2196, 3019, -1599, -592, 618, 282, -64, 268, 1173, 1169, 1160, 537, 252, 1016, 212
93648321, 11691, -6400, -9272, 2196, 3019, -1599, -592, 618, 282, -64, 268, 1173, 1169, 1160, 537, 252, 1016, 212
93649244, 11684, -6302, -9370, 2098, 3100, -1238, -719, 304, 98, -201, 268, 1173, 1169, 1160, 537, 252, 1016, 212
93650066, 11684, -6302, -9370, 2098, 3100, -1238, -719, 304, 98, -201, 306, 1244, 1185, 1194, 547, 309, 1004, 199
93650894, 11684, -6302, -9370, 2098, 3100, -1238, -719, 304, 98, -201, 306, 1244, 1185, 1194, 547, 309, 1004, 199
93655890, 11684, -6302, -9370, 2098, 3100, -1238, -719, 304, 98, -201, 306, 1244, 1185, 1194, 547, 309, 1004, 199
93656715, 11684, -6302, -9370, 2098, 3100, -1238, -719, 304, 98, -201, 306, 1244, 1185, 1194, 547, 309, 1004, 199
93657522, 11684, -6302, -9370, 2098, 3100, -1238, -719, 304, 98, -201, 306, 1244, 1185, 1194, 547, 309, 1004, 199
93658338, 11684, -6302, -9370, 2098, 3100, -1238, -719, 304, 98, -201, 306, 1244, 1185, 1194, 547, 309, 1004, 199
93663276, 11684, -6302, -9370, 2098, 3100, -1238, -719, 304, 98, -201, 306, 1244, 1185, 1194, 547, 309, 1004, 199
93664087, 11684, -6302, -9370, 2098, 3100, -1238, -719, 304, 98, -201, 306, 1244, 1185, 1194, 547, 309, 1004, 199
93664912, 11684, -6302, -9370, 2098, 3100, -1238, -719, 304, 98, -201, 306, 1244, 1185, 1194, 547, 309, 1004, 199
93665713, 11684, -6302, -9370, 2098, 3100, -1238, -719, 304, 98, -201, 306, 1244, 1185, 1194, 547, 309, 1004, 199
93669289, 11684, -6302, -9370, 2098, 3100, -1238, -719, 304, 98, -201, 306, 1244, 1185, 1194, 547, 309, 1004, 199
93670243, 11653, -6199, -9509, 1950, 3312, -1104, -842, 116, 4, -402, 306, 1244, 1185, 1194, 547, 309, 1004, 199
93678418, 11653, -6199, -9509, 1950, 3312, -1104, -842, 116, 4, -402, 322, 1277, 1125, 1212, 489, 297, 1113, 216
93679246, 11653, -6199, -9509, 1950, 3312, -1104, -842, 116, 4, -402, 322, 1277, 1125, 1212, 489, 297, 1113, 216
93680040, 11653, -6199, -9509, 1950, 3312, -1104, -842, 116, 4, -402, 322, 1277, 1125, 1212, 489, 297, 1113, 216
93680864, 11653, -6199, -9509, 1950, 3312, -1104, -842, 116, 4, -402, 322, 1277, 1125, 1212, 489, 297, 1113, 216
93685820, 11653, -6199, -9509, 1950, 3312, -1104, -842, 116, 4, -402, 322, 1277, 1125, 1212, 489, 297, 1113, 216
93686634, 11653, -6199, -9509, 1950, 3312, -1104, -842, 116, 4, -402, 322, 1277, 1125, 1212, 489, 297, 1113, 216
93687442, 11653, -6199, -9509, 1950, 3312, -1104, -842, 116, 4, -402, 322, 1277, 1125, 1212, 489, 297, 1113, 216
93688266, 11653, -6199, -9509, 1950, 3312, -1104, -842, 116, 4, -402, 322, 1277, 1125, 1212, 489, 297, 1113, 216
93693318, 11653, -6199, -9509, 1950, 3312, -1104, -842, 116, 4, -402, 322, 1277, 1125, 1212, 489, 297, 1113, 216
93694272, 11634, -6051, -9660, 1778, 3475, -990, -868, 227, 29, -625, 322, 1277, 1125, 1212, 489, 297, 1113, 216
93695068, 11634, -6051, -9660, 1778, 3475, -990, -868, 227, 29, -625, 339, 1170, 1109, 1165, 474, 311, 1089, 230
93695894, 11634, -6051, -9660, 1778, 3475, -990, -868, 227, 29, -625, 339, 1170, 1109, 1165, 474, 311, 1089, 230
93700890, 11634, -6051, -9660, 1778, 3475, -990, -868, 227, 29, -625, 339, 1170, 1109, 1165, 474, 311, 1089, 230
93701715, 11634, -6051, -9660, 1778, 3475, -990, -868, 227, 29, -625, 339, 1170, 1109, 1165, 474, 311, 1089, 230
93702525, 11634, -6051, -9660, 1778, 3475, -990, -868, 227, 29, -625, 339, 1170, 1109, 1165, 474, 311, 1089, 230
93703351, 11634, -6051, -9660, 1778, 3475, -990, -868, 227, 29, -625, 339, 1170, 1109, 1165, 474, 311, 1089, 230
93708292, 11634, -6051, -9660, 1778, 3475, -990, -868, 227, 29, -625, 339, 1170, 1109, 1165, 474, 311, 1089, 230
93709119, 11634, -6051, -9660, 1778, 3475, -990, -868, 227, 29, -625, 339, 1170, 1109, 1165, 474, 311, 1089, 230
93709919, 11634, -6051, -9660, 1778, 3475, -990, -868, 227, 29, -625, 339, 1170, 1109, 1165, 474, 311, 1089, 230
93710761, 11634, -6051, -9660, 1778, 3475, -990, -868, 227, 29, -625, 339, 1170, 1109, 1165, 474, 311, 1089, 230
93715797, 11634, -6051, -9660, 1778, 3475, -990, -868, 227, 29, -625, 339, 1170, 1109, 1165, 474, 311, 1089, 230
93716740, 11604, -5867, -9835, 1627, 3509, -771, -993, 425, -125, -653, 339, 1170, 1109, 1165, 474, 311, 1089, 230
93717550, 11604, -5867, -9835, 1627, 3509, -771, -993, 425, -125, -653, 341, 1194, 1074, 1092, 468, 321, 1077, 267
93718369, 11604, -5867, -9835, 1627, 3509, -771, -993, 425, -125, -653, 341, 1194, 1074, 1092, 468, 321, 1077, 267
93723364, 11604, -5867, -9835, 1627, 3509, -771, -993, 425, -125, -653, 341, 1194, 1074, 1092, 468, 321, 1077, 267
93724192, 11604, -5867, -9835, 1627, 3509, -771, -993, 425, -125, -653, 341, 1194, 1074, 1092, 468, 321, 1077, 267
93725017, 11604, -5867, -9835, 1627, 3509, -771, -993, 425, -125, -653, 341, 1194, 1074, 1092, 468, 321, 1077, 267
93725813, 11604, -5867, -9835, 1627, 3509, -771, -993, 425, -125, -653, 341, 1194, 1074, 1092, 468, 321, 1077, 267
93730842, 11604, -5867, -9835, 1627, 3509, -771, -993, 425, -125, -653, 341, 1194, 1074, 1092, 468, 321, 1077, 267
93731719, 11604, -5867, -9835, 1627, 3509, -771, -993, 425, -125, -653, 341, 1194, 1074, 1092, 468, 321, 1077, 267
93732402, 11604, -5867, -9835, 1627, 3509, -771, -993, 425, -125, -653, 341, 1194, 1074, 1092, 468, 321, 1077, 267
93733265, 11604, -5867, -9835, 1627, 3509, -771, -993, 425, -125, -653, 341, 1194, 1074, 1092, 468, 321, 1077, 267
93738339, 11604, -5867, -9835, 1627, 3509, -771, -993, 425, -125, -653, 341, 1194, 1074, 1092, 468, 321, 1077, 267
93739267, 11521, -5686, -10059, 1478, 3562, -302, -1254, 342, -404, -548, 341, 1194, 1074, 1092, 468, 321, 1077, 267
93740092, 11521, -5686, -10059, 1478, 3562, -302, -1254, 342, -404, -548, 355, 1297, 856, 1071, 417, 309, 1116, 289
93740917, 11521, -5686, -10059, 1478, 3562, -302, -1254, 342, -404, -548, 355, 1297, 856, 1071, 417, 309, 1116, 289
93745914, 11521, -5686, -10059, 1478, 3562, -302, -1254, 342, -404, -548, 355, 1297, 856, 1071, 417, 309, 1116, 289
93746717, 11521, -5686, -10059, 1478, 3562, -302, -1254, 342, -404, -548, 355, 1297, 856, 1071, 417, 309, 1116, 289
93747548, 11521, -5686, -10059, 1478, 3562, -302, -1254, 342, -404, -548, 355, 1297, 856, 1071, 417, 309, 1116, 289
93748362, 11521, -5686, -10059, 1478, 3562, -302, -1254, 342, -404, -548, 355, 1297, 856, 1071, 417, 309, 1116, 289
93753318, 11521, -5686, -10059, 1478, 3562, -302, -1254, 342, -404, -548, 355, 1297, 856, 1071, 417, 309, 1116, 289
93754118, 11521, -5686, -10059, 1478, 3562, -302, -1254, 342, -404, -548, 355, 1297, 856, 1071, 417, 309, 1116, 289
93754942, 11521, -5686, -10059, 1478, 3562, -302, -1254, 342, -404, -548, 355, 1297, 856, 1071, 417, 309, 1116, 289
93755744, 11521, -5686, -10059, 1478, 3562, -302, -1254, 342, -404, -548, 355, 1297, 856, 1071, 417, 309, 1116, 289
93760809, 11521, -5686, -10059, 1478, 3562, -302, -1254, 342, -404, -548, 355, 1297, 856, 1071, 417, 309, 1116, 289
93761744, 11408, -5541, -10291, 1302, 3556, -60, -1399, 67, -431, -478, 355, 1297, 856, 1071, 417, 309, 1116, 289
93762579, 11408, -5541, -10291, 1302, 3556, -60, -1399, 67, -431, -478, 339, 1287, 754, 1092, 352, 246, 1114, 300
93763392, 11408, -5541, -10291, 1302, 3556, -60, -1399, 67, -431, -478, 339, 1287, 754, 1092, 352, 246, 1114, 300
93768389, 11408, -5541, -10291, 1302, 3556, -60, -1399, 67, -431, -478, 339, 1287, 754, 1092, 352, 246, 1114, 300
93769213, 11408, -5541, -10291, 1302, 3556, -60, -1399, 67, -431, -478, 339, 1287, 754, 1092, 352, 246, 1114, 300
93770014, 11408, -5541, -10291, 1302, 3556, -60, -1399, 67, -431, -478, 339, 1287, 754, 1092, 352, 246, 1114, 300
93770838, 11408, -5541, -10291, 1302, 3556, -60, -1399, 67, -431, -478, 339, 1287, 754, 1092, 352, 246, 1114, 300
93775794, 11408, -5541, -10291, 1302, 3556, -60, -1399, 67, -431, -478, 339, 1287, 754, 1092, 352, 246, 1114, 300
93776648, 11408, -5541, -10291, 1302, 3556, -60, -1399, 67, -431, -478, 339, 1287, 754, 1092, 352, 246, 1114, 300
93777431, 11408, -5541, -10291, 1302, 3556, -60, -1399, 67, -431, -478, 339, 1287, 754, 1092, 352, 246, 1114, 300
93778210, 11408, -5541, -10291, 1302, 3556, -60, -1399, 67, -431, -478, 339, 1287, 754, 1092, 352, 246, 1114, 300
93783344, 11408, -5541, -10291, 1302, 3556, -60, -1399, 67, -431, -478, 339, 1287, 754, 1092, 352, 246, 1114, 300
93784294, 11314, -5401, -10481, 1184, 3471, -105, -1362, 283, -352, -257, 339, 1287, 754, 1092, 352, 246, 1114, 300
93785113, 11314, -5401, -10481, 1184, 3471, -105, -1362, 283, -352, -257, 314, 1226, 796, 1018, 332, 270, 1017, 298
93785908, 11314, -5401, -10481, 1184, 3471, -105, -1362, 283, -352, -257, 314, 1226, 796, 1018, 332, 270, 1017, 298
93790915, 11314, -5401, -10481, 1184, 3471, -105, -1362, 283, -352, -257, 314, 1226, 796, 1018, 332, 270, 1017, 298
93791737, 11314, -5401, -10481, 1184, 3471, -105, -1362, 283, -352, -257, 314, 1226, 796, 1018, 332, 270, 1017, 298
93792549, 11314, -5401, -10481, 1184, 3471, -105, -1362, 283, -352, -257, 314, 1226, 796, 1018, 332, 270, 1017, 298
93793368, 11314, -5401, -10481, 1184, 3471, -105, -1362, 283, -352, -257, 314, 1226, 796, 1018, 332, 270, 1017, 298
93798317, 11314, -5401, -10481, 1184, 3471, -105, -1362, 283, -352, -257, 314, 1226, 796, 1018, 332, 270, 1017, 298
93799133, 11314, -5401, -10481, 1184, 3471, -105, -1362, 283, -352, -257, 314, 1226, 796, 1018, 332, 270, 1017, 298
93799941, 11314, -5401, -10481, 1184, 3471, -105, -1362, 283, -352, -257, 314, 1226, 796, 1018, 332, 270, 1017, 298
93800768, 11314, -5401, -10481, 1184, 3471, -105, -1362, 283, -352, -257, 314, 1226, 796, 1018, 332, 270, 1017, 298
93805845, 11314, -5401, -10481, 1184, 3471, -105, -1362, 283, -352, -257, 314, 1226, 796, 1018, 332, 270, 1017, 298
93806773, 11211, -5308, -10648, 1093, 3281, -75, -1311, 156, -367, -16, 314, 1226, 796, 1018, 332, 270, 1017, 298
93807575, 11211, -5308, -10648, 1093, 3281, -75, -1311, 156, -367, -16, 292, 1193, 810, 930, 280, 246, 950, 275
93808389, 11211, -5308, -10648, 1093, 3281, -75, -1311, 156, -367, -16, 292, 1193, 810, 930, 280, 246, 950, 275
93813414, 11211, -5308, -10648, 1093, 3281, -75, -1311, 156, -367, -16, 292, 1193, 810, 930, 280, 246, 950, 275
93814209, 11211, -5308, -10648, 1093, 3281, -75, -1311, 156, -367, -16, 292, 1193, 810, 930, 280, 246, 950, 275
93815039, 11211, -5308, -10648, 1093, 3281, -75, -1311, 156, -367, -16, 292, 1193, 810, 930, 280, 246, 950, 275
93815833, 11211, -5308, -10648, 1093, 3281, -75, -1311, 156, -367, -16, 292, 1193, 810, 930, 280, 246, 950, 275
93820787, 11211, -5308, -10648, 1093, 3281, -75, -1311, 156, -367, -16, 292, 1193, 810, 930, 280, 246, 950, 275
93821599, 11211, -5308, -10648, 1093, 3281, -75, -1311, 156, -367, -16, 292, 1193, 810, 930, 280, 246, 950, 275
93822434, 11211, -5308, -10648, 1093, 3281, -75, -1311, 156, -367, -16, 292, 1193, 810, 930, 280, 246, 950, 275
93823237, 11211, -5308, -10648, 1093, 3281, -75, -1311, 156, -367, -16, 292, 1193, 810, 930, 280, 246, 950, 275
93828317, 11211, -5308, -10648, 1093, 3281, -75, -1311, 156, -367, -16, 292, 1193, 810, 930, 280, 246, 950, 275
93829240, 11115, -5275, -10771, 1023, 3083, -443, -1203, -22, -261, 106, 292, 1193, 810, 930, 280, 246, 950, 275
93830072, 11115, -5275, -10771, 1023, 3083, -443, -1203, -22, -261, 106, 298, 1170, 880, 931, 270, 237, 983, 225
93830876, 11115, -5275, -10771, 1023, 3083, -443, -1203, -22, -261, 106, 298, 1170, 880, 931, 270, 237, 983, 225
93835887, 11115, -5275, -10771, 1023, 3083, -443, -1203, -22, -261, 106, 298, 1170, 880, 931, 270, 237, 983, 225
93836724, 11115, -5275, -10771, 1023, 3083, -443, -1203, -22, -261, 106, 298, 1170, 880, 931, 270, 237, 983, 225
93837521, 11115, -5275, -10771, 1023, 3083, -443, -1203, -22, -261, 106, 298, 1170, 880, 931, 270, 237, 983, 225
93838344, 11115, -5275, -10771, 1023, 3083, -443, -1203, -22, -261, 106, 298, 1170, 880, 931, 270, 237, 983, 225
93843269, 11115, -5275, -10771, 1023, 3083, -443, -1203, -22, -261, 106, 298, 1170, 880, 931, 270, 237, 983, 225
93844103, 11115, -5275, -10771, 1023, 3083, -443, -1203, -22, -261, 106, 298, 1170, 880, 931, 270, 237, 983, 225
93844927, 11115, -5275, -10771, 1023, 3083, -443, -1203, -22, -261, 106, 298, 1170, 880, 931, 270, 237, 983, 225
93845729, 11115, -5275, -10771, 1023, 3083, -443, -1203, -22, -261, 106, 298, 1170, 880, 931, 270, 237, 983, 225
93850845, 11115, -5275, -10771, 1023, 3083, -443, -1203, -22, -261, 106, 298, 1170, 880, 931, 270, 237, 983, 225
93851801, 11045, -5234, -10866, 994, 2850, -627, -1018, 146, -228, 103, 298, 1170, 880, 931, 270, 237, 983, 225
93852612, 11045, -5234, -10866, 994, 2850, -627, -1018, 146, -228, 103, 269, 1020, 919, 947, 292, 234, 869, 196
93853423, 11045, -5234, -10866, 994, 2850, -627, -1018, 146, -228, 103, 269, 1020, 919, 947, 292, 234, 869, 196
93858418, 11045, -5234, -10866, 994, 2850, -627, -1018, 146, -228, 103, 269, 1020, 919, 947, 292, 234, 869, 196
93859242, 11045, -5234, -10866, 994, 2850, -627, -1018, 146, -228, 103, 269, 1020, 919, 947, 292, 234, 869, 196
93860038, 11045, -5234, -10866, 994, 2850, -627, -1018, 146, -228, 103, 269, 1020, 919, 947, 292, 234, 869, 196
93860853, 11045, -5234, -10866, 994, 2850, -627, -1018, 146, -228, 103, 269, 1020, 919, 947, 292, 234, 869, 196
93865821, 11045, -5234, -10866, 994, 2850, -627, -1018, 146, -228, 103, 269, 1020, 919, 947, 292, 234, 869, 196
93866633, 11045, -5234, -10866, 994, 2850, -627, -1018, 146, -228, 103, 269, 1020, 919, 947, 292, 234, 869, 196
93867445, 11045, -5234, -10866, 994, 2850, -627, -1018, 146, -228, 103, 269, 1020, 919, 947, 292, 234, 869, 196
93868272, 11045, -5234, -10866, 994, 2850, -627, -1018, 146, -228, 103, 269, 1020, 919, 947, 292, 234, 869, 196
93873322, 11045, -5234, -10866, 994, 2850, -627, -1018, 146, -228, 103, 269, 1020, 919, 947, 292, 234, 869, 196
93874272, 10976, -5200, -10955, 965, 2728, -745, -920, 85, -261, 40, 269, 1020, 919, 947, 292, 234, 869, 196
93875074, 10976, -5200, -10955, 965, 2728, -745, -920, 85, -261, 40, 279, 951, 987, 884, 296, 251, 861, 228
93875897, 10976, -5200, -10955, 965, 2728, -745, -920, 85, -261, 40, 279, 951, 987, 884, 296, 251, 861, 228
93880920, 10976, -5200, -10955, 965, 2728, -745, -920, 85, -261, 40, 279, 951, 987, 884, 296, 251, 861, 228