Timestamp, Orientation x, Orientation y, Orientation z, Orientation w, Acceleration x, Acceleration y, Acceleration z, Rotation x, Rotation y, Rotation z, EMG 0, EMG 1, EMG 2, EMG 3, EMG 4, EMG 5, EMG 6, EMG 7
104033844, 8255, -2626, -13779, -1887, 4038, -35, -1866, -117, 168, 142, 0, 0, 0, 0, 0, 0, 0, 0
104034714, 8298, -2662, -13745, -1891, 4033, -20, -1882, -139, 172, 140, 0, 0, 0, 0, 0, 0, 0, 0
104048142, 8340, -2700, -13711, -1902, 4036, -7, -1873, -176, 181, 139, 0, 0, 0, 0, 0, 0, 0, 0
104070726, 8378, -2737, -13677, -1921, 4039, 6, -1886, -209, 196, 125, 0, 0, 0, 0, 0, 0, 0, 0
104093146, 8416, -2776, -13642, -1949, 4038, 22, -1869, -249, 211, 113, 0, 0, 0, 0, 0, 0, 0, 0
104101316, 8416, -2776, -13642, -1949, 4038, 22, -1869, -249, 211, 113, 49, 356, 79, 29, 23, 21, 25, 51
104102117, 8416, -2776, -13642, -1949, 4038, 22, -1869, -249, 211, 113, 49, 356, 79, 29, 23, 21, 25, 51
104108266, 8452, -2819, -13606, -1984, 4038, 7, -1846, -298, 212, 108, 49, 356, 79, 29, 23, 21, 25, 51
104123786, 8452, -2819, -13606, -1984, 4038, 7, -1846, -298, 212, 108, 43, 340, 80, 37, 23, 21, 23, 32
104124603, 8452, -2819, -13606, -1984, 4038, 7, -1846, -298, 212, 108, 43, 340, 80, 37, 23, 21, 23, 32
104130757, 8485, -2863, -13571, -2022, 4052, -14, -1836, -327, 200, 92, 43, 340, 80, 37, 23, 21, 23, 32
104146288, 8485, -2863, -13571, -2022, 4052, -14, -1836, -327, 200, 92, 41, 300, 94, 36, 23, 23, 25, 31
104147083, 8485, -2863, -13571, -2022, 4052, -14, -1836, -327, 200, 92, 41, 300, 94, 36, 23, 23, 25, 31
104153235, 8521, -2907, -13533, -2061, 4057, -42, -1802, -329, 223, 79, 41, 300, 94, 36, 23, 23, 25, 31
104169480, 8521, -2907, -13533, -2061, 4057, -42, -1802, -329, 223, 79, 41, 279, 182, 85, 26, 21, 27, 28
104170306, 8521, -2907, -13533, -2061, 4057, -42, -1802, -329, 223, 79, 41, 279, 182, 85, 26, 21, 27, 28
104171237, 8555, -2964, -13493, -2100, 4033, -168, -1796, -402, 233, 76, 41, 279, 182, 85, 26, 21, 27, 28
104183761, 8555, -2964, -13493, -2100, 4033, -168, -1796, -402, 233, 76, 44, 292, 350, 359, 67, 33, 32, 33
104184566, 8555, -2964, -13493, -2100, 4033, -168, -1796, -402, 233, 76, 44, 292, 350, 359, 67, 33, 32, 33
104190735, 8570, -3051, -13450, -2188, 4091, -230, -2035, -766, 296, 21, 44, 292, 350, 359, 67, 33, 32, 33
104206314, 8570, -3051, -13450, -2188, 4091, -230, -2035, -766, 296, 21, 48, 291, 478, 481, 89, 43, 36, 37
104207111, 8570, -3051, -13450, -2188, 4091, -230, -2035, -766, 296, 21, 48, 291, 478, 481, 89, 43, 36, 37
104213296, 8612, -3051, -13412, -2255, 4121, 327, -1946, -245, 425, -28, 48, 291, 478, 481, 89, 43, 36, 37
104221262, 8612, -3051, -13412, -2255, 4121, 327, -1946, -245, 425, -28, 56, 303, 534, 554, 96, 46, 38, 39
104222080, 8612, -3051, -13412, -2255, 4121, 327, -1946, -245, 425, -28, 56, 303, 534, 554, 96, 46, 38, 39
104228227, 8648, -3012, -13382, -2347, 4025, 589, -1904, -201, 446, -174, 56, 303, 534, 554, 96, 46, 38, 39
104243817, 8648, -3012, -13382, -2347, 4025, 589, -1904, -201, 446, -174, 60, 294, 607, 654, 126, 57, 42, 44
104244623, 8648, -3012, -13382, -2347, 4025, 589, -1904, -201, 446, -174, 60, 294, 607, 654, 126, 57, 42, 44
104250790, 8672, -3129, -13288, -2621, 4212, 578, -2028, -1636, 610, -121, 60, 294, 607, 654, 126, 57, 42, 44
104266314, 8672, -3129, -13288, -2621, 4212, 578, -2028, -1636, 610, -121, 64, 236, 707, 819, 141, 62, 50, 52
104267106, 8672, -3129, -13288, -2621, 4212, 578, -2028, -1636, 610, -121, 64, 236, 707, 819, 141, 62, 50, 52
104273256, 8706, -3337, -13135, -2998, 4196, 542, -1806, -2419, 841, 48, 64, 236, 707, 819, 141, 62, 50, 52
104281258, 8706, -3337, -13135, -2998, 4196, 542, -1806, -2419, 841, 48, 62, 210, 735, 784, 137, 61, 48, 51
104282062, 8706, -3337, -13135, -2998, 4196, 542, -1806, -2419, 841, 48, 62, 210, 735, 784, 137, 61, 48, 51
104288285, 8726, -3654, -12924, -3453, 4220, 342, -1751, -3184, 937, 315, 62, 210, 735, 784, 137, 61, 48, 51
104303808, 8726, -3654, -12924, -3453, 4220, 342, -1751, -3184, 937, 315, 62, 199, 753, 776, 140, 69, 53, 51
104304617, 8726, -3654, -12924, -3453, 4220, 342, -1751, -3184, 937, 315, 62, 199, 753, 776, 140, 69, 53, 51
104310762, 8775, -4025, -12647, -3912, 4261, 18, -1439, -3423, 1182, 614, 62, 199, 753, 776, 140, 69, 53, 51
104326279, 8775, -4025, -12647, -3912, 4261, 18, -1439, -3423, 1182, 614, 58, 175, 776, 774, 148, 70, 59, 52
104327105, 8775, -4025, -12647, -3912, 4261, 18, -1439, -3423, 1182, 614, 58, 175, 776, 774, 148, 70, 59, 52
104333257, 8864, -4427, -12310, -4329, 4232, -464, -1280, -3374, 1432, 947, 58, 175, 776, 774, 148, 70, 59, 52
104341306, 8864, -4427, -12310, -4329, 4232, -464, -1280, -3374, 1432, 947, 59, 170, 777, 783, 144, 81, 78, 55
104342104, 8864, -4427, -12310, -4329, 4232, -464, -1280, -3374, 1432, 947, 59, 170, 777, 783, 144, 81, 78, 55
104348287, 9013, -4788, -11949, -4640, 4243, -697, -928, -2749, 1638, 1200, 59, 170, 777, 783, 144, 81, 78, 55
104363785, 9013, -4788, -11949, -4640, 4243, -697, -928, -2749, 1638, 1200, 91, 299, 812, 821, 174, 99, 210, 75
104364616, 9013, -4788, -11949, -4640, 4243, -697, -928, -2749, 1638, 1200, 91, 299, 812, 821, 174, 99, 210, 75
104370765, 9210, -5092, -11588, -4838, 4114, -715, -876, -2025, 1762, 1401, 91, 299, 812, 821, 174, 99, 210, 75
104386282, 9210, -5092, -11588, -4838, 4114, -715, -876, -2025, 1762, 1401, 101, 321, 871, 864, 203, 107, 248, 83
104387109, 9210, -5092, -11588, -4838, 4114, -715, -876, -2025, 1762, 1401, 101, 321, 871, 864, 203, 107, 248, 83
104393260, 9437, -5349, -11236, -4954, 3988, -608, -1029, -1477, 1838, 1534, 101, 321, 871, 864, 203, 107, 248, 83
104401316, 9437, -5349, -11236, -4954, 3988, -608, -1029, -1477, 1838, 1534, 120, 403, 1018, 954, 240, 135, 393, 149
104402112, 9437, -5349, -11236, -4954, 3988, -608, -1029, -1477, 1838, 1534, 120, 403, 1018, 954, 240, 135, 393, 149
104408265, 9675, -5587, -10871, -5044, 3930, -679, -1216, -1312, 1951, 1598, 120, 403, 1018, 954, 240, 135, 393, 149
104423790, 9675, -5587, -10871, -5044, 3930, -679, -1216, -1312, 1951, 1598, 127, 430, 1030, 1009, 268, 148, 404, 159
104424605, 9675, -5587, -10871, -5044, 3930, -679, -1216, -1312, 1951, 1598, 127, 430, 1030, 1009, 268, 148, 404, 159
104430777, 9932, -5791, -10493, -5115, 3928, -945, -1270, -1107, 2122, 1575, 127, 430, 1030, 1009, 268, 148, 404, 159
104446299, 9932, -5791, -10493, -5115, 3928, -945, -1270, -1107, 2122, 1575, 129, 453, 1017, 1019, 272, 143, 408, 164
104447088, 9932, -5791, -10493, -5115, 3928, -945, -1270, -1107, 2122, 1575, 129, 453, 1017, 1019, 272, 143, 408, 164
104453240, 10236, -5920, -10119, -5122, 3757, -988, -1323, -511, 2314, 1606, 129, 453, 1017, 1019, 272, 143, 408, 164
104461334, 10236, -5920, -10119, -5122, 3757, -988, -1323, -511, 2314, 1606, 110, 382, 971, 973, 259, 133, 374, 155
104462106, 10236, -5920, -10119, -5122, 3757, -988, -1323, -511, 2314, 1606, 110, 382, 971, 973, 259, 133, 374, 155
104468260, 10536, -6018, -9747, -5121, 3651, -884, -1295, -371, 2349, 1552, 110, 382, 971, 973, 259, 133, 374, 155
104483787, 10536, -6018, -9747, -5121, 3651, -884, -1295, -371, 2349, 1552, 123, 426, 980, 1012, 280, 137, 382, 157
104484598, 10536, -6018, -9747, -5121, 3651, -884, -1295, -371, 2349, 1552, 123, 426, 980, 1012, 280, 137, 382, 157
104490763, 10799, -6155, -9348, -5153, 3593, -865, -1337, -731, 2351, 1566, 123, 426, 980, 1012, 280, 137, 382, 157
104506261, 10799, -6155, -9348, -5153, 3593, -865, -1337, -731, 2351, 1566, 118, 455, 846, 966, 263, 113, 232, 110
104507079, 10799, -6155, -9348, -5153, 3593, -865, -1337, -731, 2351, 1566, 118, 455, 846, 966, 263, 113, 232, 110
104513244, 11026, -6319, -8944, -5190, 3383, -922, -1495, -913, 2253, 1590, 118, 455, 846, 966, 263, 113, 232, 110
104521289, 11026, -6319, -8944, -5190, 3383, -922, -1495, -913, 2253, 1590, 119, 475, 870, 941, 261, 115, 270, 102
104522109, 11026, -6319, -8944, -5190, 3383, -922, -1495, -913, 2253, 1590, 119, 475, 870, 941, 261, 115, 270, 102
104528266, 11207, -6497, -8556, -5237, 3287, -978, -1654, -1046, 2078, 1486, 119, 475, 870, 941, 261, 115, 270, 102
104543783, 11207, -6497, -8556, -5237, 3287, -978, -1654, -1046, 2078, 1486, 119, 521, 904, 881, 252, 111, 468, 95
104544587, 11207, -6497, -8556, -5237, 3287, -978, -1654, -1046, 2078, 1486, 119, 521, 904, 881, 252, 111, 468, 95
104550737, 11361, -6656, -8199, -5276, 3216, -989, -1646, -955, 1910, 1355, 119, 521, 904, 881, 252, 111, 468, 95
104566262, 11361, -6656, -8199, -5276, 3216, -989, -1646, -955, 1910, 1355, 122, 539, 975, 831, 268, 113, 508, 206
104567081, 11361, -6656, -8199, -5276, 3216, -989, -1646, -955, 1910, 1355, 122, 539, 975, 831, 268, 113, 508, 206
104573243, 11490, -6797, -7876, -5309, 3281, -1033, -1605, -846, 1722, 1218, 122, 539, 975, 831, 268, 113, 508, 206
104589489, 11490, -6797, -7876, -5309, 3281, -1033, -1605, -846, 1722, 1218, 116, 511, 891, 854, 241, 111, 527, 280
104590285, 11490, -6797, -7876, -5309, 3281, -1033, -1605, -846, 1722, 1218, 116, 511, 891, 854, 241, 111, 527, 280
104591238, 11499, -7017, -7696, -5268, 3189, -983, -1609, -703, 1422, 1190, 116, 511, 891, 854, 241, 111, 527, 280
104603817, 11499, -7017, -7696, -5268, 3189, -983, -1609, -703, 1422, 1190, 121, 486, 889, 805, 230, 113, 629, 363
104604609, 11499, -7017, -7696, -5268, 3189, -983, -1609, -703, 1422, 1190, 121, 486, 889, 805, 230, 113, 629, 363
104610785, 11453, -7272, -7556, -5225, 3180, -1004, -1660, -862, 1046, 1136, 121, 486, 889, 805, 230, 113, 629, 363
104626288, 11453, -7272, -7556, -5225, 3180, -1004, -1660, -862, 1046, 1136, 116, 479, 849, 868, 223, 98, 654, 424
104627134, 11453, -7272, -7556, -5225, 3180, -1004, -1660, -862, 1046, 1136, 116, 479, 849, 868, 223, 98, 654, 424
104633276, 11379, -7540, -7460, -5144, 3166, -1170, -1821, -740, 732, 1126, 116, 479, 849, 868, 223, 98, 654, 424
104641309, 11379, -7540, -7460, -5144, 3166, -1170, -1821, -740, 732, 1126, 115, 447, 847, 884, 233, 131, 713, 481
104642129, 11379, -7540, -7460, -5144, 3166, -1170, -1821, -740, 732, 1126, 115, 447, 847, 884, 233, 131, 713, 481
104648298, 11318, -7763, -7406, -5026, 3023, -1203, -1759, -371, 499, 1073, 115, 447, 847, 884, 233, 131, 713, 481
104663810, 11318, -7763, -7406, -5026, 3023, -1203, -1759, -371, 499, 1073, 217, 490, 761, 939, 239, 150, 735, 501
104664598, 11318, -7763, -7406, -5026, 3023, -1203, -1759, -371, 499, 1073, 217, 490, 761, 939, 239, 150, 735, 501
104670791, 11270, -7953, -7373, -4882, 2939, -1308, -1628, -113, 326, 1029, 217, 490, 761, 939, 239, 150, 735, 501
104686289, 11270, -7953, -7373, -4882, 2939, -1308, -1628, -113, 326, 1029, 231, 471, 802, 882, 226, 152, 836, 556
104687118, 11270, -7953, -7373, -4882, 2939, -1308, -1628, -113, 326, 1029, 231, 471, 802, 882, 226, 152, 836, 556
104693263, 11225, -8125, -7370, -4701, 2859, -1356, -1465, 74, 23, 1055, 231, 471, 802, 882, 226, 152, 836, 556
104700635, 11225, -8125, -7370, -4701, 2859, -1356, -1465, 74, 23, 1055, 283, 406, 728, 871, 225, 152, 856, 639
104708824, 11225, -8125, -7370, -4701, 2859, -1356, -1465, 74, 23, 1055, 283, 406, 728, 871, 225, 152, 856, 639
104709744, 11163, -8310, -7396, -4483, 2810, -1355, -1363, 97, -350, 1155, 283, 406, 728, 871, 225, 152, 856, 639
104723794, 11163, -8310, -7396, -4483, 2810, -1355, -1363, 97, -350, 1155, 366, 436, 723, 777, 205, 151, 897, 740
104724606, 11163, -8310, -7396, -4483, 2810, -1355, -1363, 97, -350, 1155, 366, 436, 723, 777, 205, 151, 897, 740
104730781, 11080, -8519, -7441, -4211, 2734, -1565, -1328, 100, -749, 1260, 366, 436, 723, 777, 205, 151, 897, 740
104746283, 11080, -8519, -7441, -4211, 2734, -1565, -1328, 100, -749, 1260, 392, 453, 694, 792, 202, 130, 839, 833
104747104, 11080, -8519, -7441, -4211, 2734, -1565, -1328, 100, -749, 1260, 392, 453, 694, 792, 202, 130, 839, 833
104753262, 10991, -8713, -7521, -3894, 2626, -1565, -1207, 262, -1120, 1305, 392, 453, 694, 792, 202, 130, 839, 833
104760624, 10991, -8713, -7521, -3894, 2626, -1565, -1207, 262, -1120, 1305, 399, 459, 783, 714, 160, 105, 807, 886
104768784, 10991, -8713, -7521, -3894, 2626, -1565, -1207, 262, -1120, 1305, 399, 459, 783, 714, 160, 105, 807, 886
104769751, 10890, -8905, -7623, -3530, 2569, -1596, -1254, 386, -1415, 1422, 399, 459, 783, 714, 160, 105, 807, 886
104783795, 10890, -8905, -7623, -3530, 2569, -1596, -1254, 386, -1415, 1422, 393, 486, 713, 654, 159, 97, 693, 886
104784610, 10890, -8905, -7623, -3530, 2569, -1596, -1254, 386, -1415, 1422, 393, 486, 713, 654, 159, 97, 693, 886
104790756, 10848, -9033, -7704, -3133, 2601, -1606, -1336, 610, -1637, 1526, 393, 486, 713, 654, 159, 97, 693, 886
104806282, 10848, -9033, -7704, -3133, 2601, -1606, -1336, 610, -1637, 1526, 385, 494, 763, 648, 151, 85, 588, 831
104807089, 10848, -9033, -7704, -3133, 2601, -1606, -1336, 610, -1637, 1526, 385, 494, 763, 648, 151, 85, 588, 831
104813236, 10817, -9134, -7791, -2705, 2590, -1676, -1326, 838, -1712, 1569, 385, 494, 763, 648, 151, 85, 588, 831
104829486, 10817, -9134, -7791, -2705, 2590, -1676, -1326, 838, -1712, 1569, 328, 441, 727, 635, 141, 84, 516, 732
104830304, 10817, -9134, -7791, -2705, 2590, -1676, -1326, 838, -1712, 1569, 328, 441, 727, 635, 141, 84, 516, 732
104831240, 10791, -9209, -7883, -2247, 2566, -1699, -1300, 1028, -1800, 1615, 328, 441, 727, 635, 141, 84, 516, 732
104843765, 10791, -9209, -7883, -2247, 2566, -1699, -1300, 1028, -1800, 1615, 363, 391, 704, 589, 123, 73, 420, 622
104844564, 10791, -9209, -7883, -2247, 2566, -1699, -1300, 1028, -1800, 1615, 363, 391, 704, 589, 123, 73, 420, 622
104850746, 10748, -9282, -7973, -1788, 2634, -1514, -1291, 984, -1857, 1646, 363, 391, 704, 589, 123, 73, 420, 622
104866305, 10748, -9282, -7973, -1788, 2634, -1514, -1291, 984, -1857, 1646, 339, 307, 523, 544, 122, 80, 435, 543
104867124, 10748, -9282, -7973, -1788, 2634, -1514, -1291, 984, -1857, 1646, 339, 307, 523, 544, 122, 80, 435, 543
104873293, 10645, -9406, -8051, -1356, 2660, -1563, -1406, 534, -1924, 1701, 339, 307, 523, 544, 122, 80, 435, 543
104889463, 10645, -9406, -8051, -1356, 2660, -1563, -1406, 534, -1924, 1701, 350, 372, 507, 514, 109, 71, 480, 497
104890279, 10645, -9406, -8051, -1356, 2660, -1563, -1406, 534, -1924, 1701, 350, 372, 507, 514, 109, 71, 480, 497
104891207, 10536, -9514, -8130, -910, 2584, -1689, -1337, 604, -2002, 1702, 350, 372, 507, 514, 109, 71, 480, 497
104903800, 10536, -9514, -8130, -910, 2584, -1689, -1337, 604, -2002, 1702, 330, 371, 498, 471, 102, 74, 507, 490
104904611, 10536, -9514, -8130, -910, 2584, -1689, -1337, 604, -2002, 1702, 330, 371, 498, 471, 102, 74, 507, 490
104910785, 10443, -9580, -8211, -436, 2667, -1685, -1284, 879, -2064, 1702, 330, 371, 498, 471, 102, 74, 507, 490
104926292, 10443, -9580, -8211, -436, 2667, -1685, -1284, 879, -2064, 1702, 389, 361, 525, 452, 102, 77, 496, 548
104927080, 10443, -9580, -8211, -436, 2667, -1685, -1284, 879, -2064, 1702, 389, 361, 525, 452, 102, 77, 496, 548
104933266, 10339, -9627, -8299, 52, 2719, -1601, -1212, 951, -2179, 1707, 389, 361, 525, 452, 102, 77, 496, 548
104949481, 10339, -9627, -8299, 52, 2719, -1601, -1212, 951, -2179, 1707, 375, 342, 520, 446, 107, 76, 506, 541
104950309, 10339, -9627, -8299, 52, 2719, -1601, -1212, 951, -2179, 1707, 375, 342, 520, 446, 107, 76, 506, 541
104951238, 10209, -9673, -8390, 528, 2689, -1560, -1322, 843, -2227, 1671, 375, 342, 520, 446, 107, 76, 506, 541
104963759, 10209, -9673, -8390, 528, 2689, -1560, -1322, 843, -2227, 1671, 367, 402, 523, 449, 110, 71, 482, 500
104964568, 10209, -9673, -8390, 528, 2689, -1560, -1322, 843, -2227, 1671, 367, 402, 523, 449, 110, 71, 482, 500
104970736, 10059, -9712, -8482, 996, 2698, -1666, -1407, 788, -2272, 1634, 367, 402, 523, 449, 110, 71, 482, 500
104986262, 10059, -9712, -8482, 996, 2698, -1666, -1407, 788, -2272, 1634, 359, 298, 506, 454, 111, 75, 482, 489
104987058, 10059, -9712, -8482, 996, 2698, -1666, -1407, 788, -2272, 1634, 359, 298, 506, 454, 111, 75, 482, 489
104993287, 9924, -9710, -8570, 1491, 2794, -1674, -1385, 1050, -2331, 1641, 359, 298, 506, 454, 111, 75, 482, 489
105009466, 9924, -9710, -8570, 1491, 2794, -1674, -1385, 1050, -2331, 1641, 371, 275, 469, 524, 109, 70, 496, 562
105010336, 9924, -9710, -8570, 1491, 2794, -1674, -1385, 1050, -2331, 1641, 371, 275, 469, 524, 109, 70, 496, 562
105011211, 9785, -9688, -8651, 2003, 2879, -1608, -1360, 1167, -2407, 1695, 371, 275, 469, 524, 109, 70, 496, 562
105031979, 9785, -9688, -8651, 2003, 2879, -1608, -1360, 1167, -2407, 1695, 338, 307, 472, 560, 116, 93, 547, 529
105032805, 9785, -9688, -8651, 2003, 2879, -1608, -1360, 1167, -2407, 1695, 338, 307, 472, 560, 116, 93, 547, 529
105033732, 9626, -9658, -8728, 2514, 2832, -1574, -1240, 1110, -2468, 1709, 338, 307, 472, 560, 116, 93, 547, 529
105046262, 9626, -9658, -8728, 2514, 2832, -1574, -1240, 1110, -2468, 1709, 291, 311, 451, 576, 178, 116, 519, 509
105047088, 9626, -9658, -8728, 2514, 2832, -1574, -1240, 1110, -2468, 1709, 291, 311, 451, 576, 178, 116, 519, 509
105053249, 9469, -9597, -8798, 3044, 2721, -1521, -1163, 1281, -2529, 1708, 291, 311, 451, 576, 178, 116, 519, 509
105069485, 9469, -9597, -8798, 3044, 2721, -1521, -1163, 1281, -2529, 1708, 307, 248, 449, 541, 190, 170, 576, 620
105070280, 9469, -9597, -8798, 3044, 2721, -1521, -1163, 1281, -2529, 1708, 307, 248, 449, 541, 190, 170, 576, 620
105071233, 9272, -9544, -8879, 3543, 2829, -1472, -1280, 1037, -2592, 1669, 307, 248, 449, 541, 190, 170, 576, 620
105091294, 9272, -9544, -8879, 3543, 2829, -1472, -1280, 1037, -2592, 1669, 401, 248, 478, 558, 208, 223, 569, 658
105092119, 9272, -9544, -8879, 3543, 2829, -1472, -1280, 1037, -2592, 1669, 401, 248, 478, 558, 208, 223, 569, 658
105105723, 9074, -9497, -8936, 4009, 2965, -1473, -1283, 943, -2411, 1688, 401, 248, 478, 558, 208, 223, 569, 658
105114505, 8861, -9465, -8978, 4444, 2777, -1598, -1254, 772, -2288, 1693, 401, 248, 478, 558, 208, 223, 569, 658
105115322, 8861, -9465, -8978, 4444, 2777, -1598, -1254, 772, -2288, 1693, 406, 252, 580, 595, 263, 244, 559, 597
105116121, 8861, -9465, -8978, 4444, 2777, -1598, -1254, 772, -2288, 1693, 406, 252, 580, 595, 263, 244, 559, 597
105135724, 8711, -9360, -8982, 4927, 2663, -1483, -1237, 1407, -2251, 1647, 406, 252, 580, 595, 263, 244, 559, 597
105143747, 8711, -9360, -8982, 4927, 2663, -1483, -1237, 1407, -2251, 1647, 403, 269, 575, 609, 308, 294, 494, 642
105144716, 8711, -9360, -8982, 4927, 2663, -1483, -1237, 1407, -2251, 1647, 403, 269, 575, 609, 308, 294, 494, 642
105158162, 8544, -9249, -8992, 5390, 2887, -1325, -1292, 1313, -2269, 1625, 403, 269, 575, 609, 308, 294, 494, 642
105166262, 8544, -9249, -8992, 5390, 2887, -1325, -1292, 1313, -2269, 1625, 446, 328, 621, 596, 283, 347, 651, 684
105167063, 8544, -9249, -8992, 5390, 2887, -1325, -1292, 1313, -2269, 1625, 446, 328, 621, 596, 283, 347, 651, 684
105189515, 8370, -9140, -8994, 5827, 2853, -1402, -1144, 1211, -2186, 1594, 446, 328, 621, 596, 283, 347, 651, 684
105190315, 8370, -9140, -8994, 5827, 2853, -1402, -1144, 1211, -2186, 1594, 490, 318, 675, 587, 275, 340, 652, 644
105191141, 8370, -9140, -8994, 5827, 2853, -1402, -1144, 1211, -2186, 1594, 490, 318, 675, 587, 275, 340, 652, 644
105211357, 8206, -9016, -8978, 6262, 2809, -1341, -1058, 1303, -2132, 1585, 490, 318, 675, 587, 275, 340, 652, 644
105212209, 8027, -8892, -8958, 6685, 2753, -1238, -990, 1229, -2121, 1602, 490, 318, 675, 587, 275, 340, 652, 644
105218758, 8027, -8892, -8958, 6685, 2753, -1238, -990, 1229, -2121, 1602, 420, 317, 702, 567, 264, 313, 664, 622
105219615, 8027, -8892, -8958, 6685, 2753, -1238, -990, 1229, -2121, 1602, 420, 317, 702, 567, 264, 313, 664, 622
105241958, 7822, -8774, -8948, 7085, 2814, -1207, -926, 1031, -2143, 1595, 420, 317, 702, 567, 264, 313, 664, 622
105242768, 7822, -8774, -8948, 7085, 2814, -1207, -926, 1031, -2143, 1595, 482, 355, 581, 517, 216, 307, 637, 608
105243667, 7822, -8774, -8948, 7085, 2814, -1207, -926, 1031, -2143, 1595, 482, 355, 581, 517, 216, 307, 637, 608
105263174, 7606, -8663, -8952, 7442, 2840, -1247, -1027, 838, -2068, 1501, 482, 355, 581, 517, 216, 307, 637, 608
105271252, 7606, -8663, -8952, 7442, 2840, -1247, -1027, 838, -2068, 1501, 458, 321, 556, 499, 141, 262, 793, 744
105272095, 7606, -8663, -8952, 7442, 2840, -1247, -1027, 838, -2068, 1501, 458, 321, 556, 499, 141, 262, 793, 744
105285731, 7382, -8546, -8969, 7776, 2806, -1378, -1053, 724, -2069, 1409, 458, 321, 556, 499, 141, 262, 793, 744
105294516, 7180, -8410, -8978, 8097, 2787, -1284, -995, 817, -1996, 1278, 458, 321, 556, 499, 141, 262, 793, 744
105295312, 7180, -8410, -8978, 8097, 2787, -1284, -995, 817, -1996, 1278, 417, 265, 527, 497, 137, 180, 744, 740
105296139, 7180, -8410, -8978, 8097, 2787, -1284, -995, 817, -1996, 1278, 417, 265, 527, 497, 137, 180, 744, 740
105315640, 6977, -8277, -8992, 8390, 2760, -1212, -994, 710, -1917, 1214, 417, 265, 527, 497, 137, 180, 744, 740
105323809, 6977, -8277, -8992, 8390, 2760, -1212, -994, 710, -1917, 1214, 339, 255, 494, 565, 144, 225, 723, 708
105324605, 6977, -8277, -8992, 8390, 2760, -1212, -994, 710, -1917, 1214, 339, 255, 494, 565, 144, 225, 723, 708
105338134, 6772, -8149, -9023, 8646, 2718, -1201, -993, 532, -1845, 1093, 339, 255, 494, 565, 144, 225, 723, 708
105346307, 6772, -8149, -9023, 8646, 2718, -1201, -993, 532, -1845, 1093, 382, 293, 434, 574, 149, 227, 684, 706
105347110, 6772, -8149, -9023, 8646, 2718, -1201, -993, 532, -1845, 1093, 382, 293, 434, 574, 149, 227, 684, 706
105368837, 6573, -8025, -9069, 8864, 2626, -1251, -996, 376, -1736, 950, 382, 293, 434, 574, 149, 227, 684, 706
105369703, 6573, -8025, -9069, 8864, 2626, -1251, -996, 376, -1736, 950, 331, 366, 457, 585, 152, 230, 769, 743
105375611, 6573, -8025, -9069, 8864, 2626, -1251, -996, 376, -1736, 950, 331, 366, 457, 585, 152, 230, 769, 743
105391312, 6492, -7827, -9241, 8924, 2555, -1178, -969, 329, -1571, 727, 331, 366, 457, 585, 152, 230, 769, 743
105392130, 6439, -7636, -9419, 8942, 2569, -1143, -848, 178, -1352, 553, 331, 366, 457, 585, 152, 230, 769, 743
105398786, 6439, -7636, -9419, 8942, 2569, -1143, -848, 178, -1352, 553, 328, 397, 606, 621, 188, 220, 653, 527
105399589, 6439, -7636, -9419, 8942, 2569, -1143, -848, 178, -1352, 553, 328, 397, 606, 621, 188, 220, 653, 527
105421310, 6391, -7462, -9608, 8923, 2545, -1225, -856, -7, -1211, 460, 328, 397, 606, 621, 188, 220, 653, 527
105422106, 6391, -7462, -9608, 8923, 2545, -1225, -856, -7, -1211, 460, 338, 442, 600, 617, 190, 218, 591, 510
105428086, 6391, -7462, -9608, 8923, 2545, -1225, -856, -7, -1211, 460, 338, 442, 600, 617, 190, 218, 591, 510
105443137, 6377, -7290, -9784, 8883, 2593, -1285, -844, 35, -1016, 364, 338, 442, 600, 617, 190, 218, 591, 510
105451285, 6377, -7290, -9784, 8883, 2593, -1285, -844, 35, -1016, 364, 336, 486, 593, 557, 190, 138, 597, 505
105452114, 6377, -7290, -9784, 8883, 2593, -1285, -844, 35, -1016, 364, 336, 486, 593, 557, 190, 138, 597, 505
105465651, 6403, -7112, -9939, 8836, 2591, -1253, -864, 203, -829, 244, 336, 486, 593, 557, 190, 138, 597, 505
105474454, 6454, -6949, -10098, 8748, 2642, -1213, -877, 92, -615, 124, 336, 486, 593, 557, 190, 138, 597, 505
105475291, 6454, -6949, -10098, 8748, 2642, -1213, -877, 92, -615, 124, 354, 480, 607, 592, 194, 130, 592, 489
105476089, 6454, -6949, -10098, 8748, 2642, -1213, -877, 92, -615, 124, 354, 480, 607, 592, 194, 130, 592, 489
105495714, 6524, -6808, -10244, 8637, 2609, -1222, -853, 27, -388, 85, 354, 480, 607, 592, 194, 130, 592, 489
105503785, 6524, -6808, -10244, 8637, 2609, -1222, -853, 27, -388, 85, 299, 405, 602, 537, 181, 100, 583, 408
105504588, 6524, -6808, -10244, 8637, 2609, -1222, -853, 27, -388, 85, 299, 405, 602, 537, 181, 100, 583, 408
105518165, 6611, -6686, -10377, 8505, 2575, -1297, -849, -23, -198, 46, 299, 405, 602, 537, 181, 100, 583, 408
105526262, 6611, -6686, -10377, 8505, 2575, -1297, -849, -23, -198, 46, 305, 388, 442, 406, 151, 100, 546, 390
105527070, 6611, -6686, -10377, 8505, 2575, -1297, -849, -23, -198, 46, 305, 388, 442, 406, 151, 100, 546, 390
105548140, 6704, -6587, -10512, 8343, 2572, -1320, -855, -174, -42, 6, 305, 388, 442, 406, 151, 100, 546, 390
105556288, 6704, -6587, -10512, 8343, 2572, -1320, -855, -174, -42, 6, 309, 388, 420, 387, 143, 98, 529, 330
105557112, 6704, -6587, -10512, 8343, 2572, -1320, -855, -174, -42, 6, 309, 388, 420, 387, 143, 98, 529, 330
105571324, 6818, -6487, -10636, 8170, 2584, -1277, -831, -154, 74, -74, 309, 388, 420, 387, 143, 98, 529, 330
105572163, 6940, -6386, -10746, 8002, 2544, -1244, -837, -75, 130, -111, 309, 388, 420, 387, 143, 98, 529, 330
105578818, 6940, -6386, -10746, 8002, 2544, -1244, -837, -75, 130, -111, 304, 423, 410, 383, 125, 101, 497, 362
105579624, 6940, -6386, -10746, 8002, 2544, -1244, -837, -75, 130, -111, 304, 423, 410, 383, 125, 101, 497, 362