Timestamp, Orientation x, Orientation y, Orientation z, Orientation w, Acceleration x, Acceleration y, Acceleration z, Rotation x, Rotation y, Rotation z, EMG 0, EMG 1, EMG 2, EMG 3, EMG 4, EMG 5, EMG 6, EMG 7
167520927, 8341, -2252, -13835, -1547, 4055, 208, -1945, 176, 34, 42, 0, 0, 0, 0, 0, 0, 0, 0
167527971, 8358, -2255, -13824, -1549, 4034, 128, -1927, -2, 24, 48, 0, 0, 0, 0, 0, 0, 0, 0
167543035, 8370, -2264, -13816, -1545, 4017, 42, -1928, -10, -7, 47, 0, 0, 0, 0, 0, 0, 0, 0
167557955, 8380, -2263, -13812, -1531, 4036, 22, -1941, 63, -30, 16, 0, 0, 0, 0, 0, 0, 0, 0
167580412, 8393, -2250, -13807, -1523, 4059, 97, -1931, 90, -4, -19, 0, 0, 0, 0, 0, 0, 0, 0
167588587, 8393, -2250, -13807, -1523, 4059, 97, -1931, 90, -4, -19, 32, 237, 72, 30, 26, 26, 26, 24
167589377, 8393, -2250, -13807, -1523, 4059, 97, -1931, 90, -4, -19, 32, 237, 72, 30, 26, 26, 26, 24
167603064, 8409, -2236, -13798, -1525, 4060, 126, -1912, 51, 26, -28, 32, 237, 72, 30, 26, 26, 26, 24
167611080, 8409, -2236, -13798, -1525, 4060, 126, -1912, 51, 26, -28, 31, 238, 82, 31, 26, 26, 26, 24
167611905, 8409, -2236, -13798, -1525, 4060, 126, -1912, 51, 26, -28, 31, 238, 82, 31, 26, 26, 26, 24
167618054, 8429, -2228, -13787, -1536, 4071, 143, -1895, -3, 47, -20, 31, 238, 82, 31, 26, 26, 26, 24
167633983, 8429, -2228, -13787, -1536, 4071, 143, -1895, -3, 47, -20, 28, 195, 127, 26, 22, 24, 24, 27
167641082, 8429, -2228, -13787, -1536, 4071, 143, -1895, -3, 47, -20, 28, 195, 127, 26, 22, 24, 24, 27
167642029, 8450, -2232, -13771, -1555, 4090, 131, -1896, -76, 77, 10, 28, 195, 127, 26, 22, 24, 24, 27
167650651, 8450, -2232, -13771, -1555, 4090, 131, -1896, -76, 77, 10, 23, 128, 139, 26, 21, 20, 22, 25
167651433, 8450, -2232, -13771, -1555, 4090, 131, -1896, -76, 77, 10, 23, 128, 139, 26, 21, 20, 22, 25
167652254, 8450, -2232, -13771, -1555, 4090, 131, -1896, -76, 77, 10, 23, 128, 139, 26, 21, 20, 22, 25
167653057, 8450, -2232, -13771, -1555, 4090, 131, -1896, -76, 77, 10, 23, 128, 139, 26, 21, 20, 22, 25
167658077, 8450, -2232, -13771, -1555, 4090, 131, -1896, -76, 77, 10, 23, 128, 139, 26, 21, 20, 22, 25
167658880, 8450, -2232, -13771, -1555, 4090, 131, -1896, -76, 77, 10, 23, 128, 139, 26, 21, 20, 22, 25
167659703, 8450, -2232, -13771, -1555, 4090, 131, -1896, -76, 77, 10, 23, 128, 139, 26, 21, 20, 22, 25
167660505, 8450, -2232, -13771, -1555, 4090, 131, -1896, -76, 77, 10, 23, 128, 139, 26, 21, 20, 22, 25
167663010, 8470, -2245, -13754, -1583, 4128, 162, -1885, -145, 65, 35, 23, 128, 139, 26, 21, 20, 22, 25
167679256, 8470, -2245, -13754, -1583, 4128, 162, -1885, -145, 65, 35, 26, 109, 201, 37, 24, 21, 24, 25
167680074, 8470, -2245, -13754, -1583, 4128, 162, -1885, -145, 65, 35, 26, 109, 201, 37, 24, 21, 24, 25
167681009, 8498, -2266, -13727, -1632, 4131, 213, -1840, -253, 136, 49, 26, 109, 201, 37, 24, 21, 24, 25
167693601, 8498, -2266, -13727, -1632, 4131, 213, -1840, -253, 136, 49, 35, 152, 326, 94, 25, 29, 30, 34
167694404, 8498, -2266, -13727, -1632, 4131, 213, -1840, -253, 136, 49, 35, 152, 326, 94, 25, 29, 30, 34
167700566, 8531, -2336, -13681, -1738, 4197, 274, -1827, -665, 228, 144, 35, 152, 326, 94, 25, 29, 30, 34
167708529, 8531, -2336, -13681, -1738, 4197, 274, -1827, -665, 228, 144, 150, 160, 434, 141, 46, 38, 87, 97
167709381, 8531, -2336, -13681, -1738, 4197, 274, -1827, -665, 228, 144, 150, 160, 434, 141, 46, 38, 87, 97
167722933, 8564, -2468, -13619, -1879, 4242, 174, -1873, -1047, 298, 285, 150, 160, 434, 141, 46, 38, 87, 97
167731082, 8564, -2468, -13619, -1879, 4242, 174, -1873, -1047, 298, 285, 230, 221, 568, 222, 63, 53, 316, 559
167731900, 8564, -2468, -13619, -1879, 4242, 174, -1873, -1047, 298, 285, 230, 221, 568, 222, 63, 53, 316, 559
167738058, 8610, -2602, -13555, -1949, 4265, 211, -1824, -700, 299, 544, 230, 221, 568, 222, 63, 53, 316, 559
167753589, 8610, -2602, -13555, -1949, 4265, 211, -1824, -700, 299, 544, 256, 239, 724, 287, 91, 120, 474, 697
167754402, 8610, -2602, -13555, -1949, 4265, 211, -1824, -700, 299, 544, 256, 239, 724, 287, 91, 120, 474, 697
167760625, 8690, -2768, -13474, -1931, 4353, -141, -1706, -434, 352, 837, 256, 239, 724, 287, 91, 120, 474, 697
167768553, 8690, -2768, -13474, -1931, 4353, -141, -1706, -434, 352, 837, 296, 265, 869, 352, 106, 196, 590, 859
167769350, 8690, -2768, -13474, -1931, 4353, -141, -1706, -434, 352, 837, 296, 265, 869, 352, 106, 196, 590, 859
167782919, 8825, -2917, -13361, -1882, 4445, -24, -1552, -165, 629, 1020, 296, 265, 869, 352, 106, 196, 590, 859
167791081, 8825, -2917, -13361, -1882, 4445, -24, -1552, -165, 629, 1020, 313, 438, 878, 409, 138, 292, 629, 884
167791909, 8825, -2917, -13361, -1882, 4445, -24, -1552, -165, 629, 1020, 313, 438, 878, 409, 138, 292, 629, 884
167798057, 8999, -3086, -13223, -1754, 4375, -264, -1490, 135, 829, 1357, 313, 438, 878, 409, 138, 292, 629, 884
167813576, 8999, -3086, -13223, -1754, 4375, -264, -1490, 135, 829, 1357, 288, 453, 904, 415, 141, 306, 637, 937
167814378, 8999, -3086, -13223, -1754, 4375, -264, -1490, 135, 829, 1357, 288, 453, 904, 415, 141, 306, 637, 937
167820563, 9180, -3305, -13070, -1559, 4335, -438, -1472, 298, 930, 1846, 288, 453, 904, 415, 141, 306, 637, 937
167828579, 9180, -3305, -13070, -1559, 4335, -438, -1472, 298, 930, 1846, 247, 460, 876, 393, 139, 308, 580, 812
167829403, 9180, -3305, -13070, -1559, 4335, -438, -1472, 298, 930, 1846, 247, 460, 876, 393, 139, 308, 580, 812
167842905, 9378, -3568, -12885, -1316, 4129, -842, -1397, 368, 1036, 2211, 247, 460, 876, 393, 139, 308, 580, 812
167851080, 9378, -3568, -12885, -1316, 4129, -842, -1397, 368, 1036, 2211, 275, 464, 828, 364, 126, 297, 467, 724
167851876, 9378, -3568, -12885, -1316, 4129, -842, -1397, 368, 1036, 2211, 275, 464, 828, 364, 126, 297, 467, 724
167858064, 9613, -3791, -12675, -1001, 3840, -1166, -1208, 847, 1220, 2299, 275, 464, 828, 364, 126, 297, 467, 724
167873555, 9613, -3791, -12675, -1001, 3840, -1166, -1208, 847, 1220, 2299, 289, 486, 729, 320, 119, 261, 329, 557
167874384, 9613, -3791, -12675, -1001, 3840, -1166, -1208, 847, 1220, 2299, 289, 486, 729, 320, 119, 261, 329, 557
167880549, 9879, -3951, -12444, -616, 3641, -1000, -1104, 1404, 1363, 2333, 289, 486, 729, 320, 119, 261, 329, 557
167888582, 9879, -3951, -12444, -616, 3641, -1000, -1104, 1404, 1363, 2333, 291, 396, 760, 244, 80, 158, 322, 527
167889400, 9879, -3951, -12444, -616, 3641, -1000, -1104, 1404, 1363, 2333, 291, 396, 760, 244, 80, 158, 322, 527
167902909, 10141, -4097, -12197, -231, 3436, -972, -1039, 1455, 1418, 2323, 291, 396, 760, 244, 80, 158, 322, 527
167911058, 10141, -4097, -12197, -231, 3436, -972, -1039, 1455, 1418, 2323, 377, 428, 830, 220, 72, 160, 371, 451
167911899, 10141, -4097, -12197, -231, 3436, -972, -1039, 1455, 1418, 2323, 377, 428, 830, 220, 72, 160, 371, 451
167942665, 10398, -4238, -11931, 133, 3392, -1141, -916, 1378, 1500, 2255, 377, 428, 830, 220, 72, 160, 371, 451
167943396, 10398, -4238, -11931, 133, 3392, -1141, -916, 1378, 1500, 2255, 391, 433, 1026, 261, 77, 169, 394, 363
167944212, 10398, -4238, -11931, 133, 3392, -1141, -916, 1378, 1500, 2255, 391, 433, 1026, 261, 77, 169, 394, 363
167945121, 10690, -4322, -11628, 530, 3471, -1375, -720, 1767, 1714, 2195, 391, 433, 1026, 261, 77, 169, 394, 363
167949315, 10690, -4322, -11628, 530, 3471, -1375, -720, 1767, 1714, 2195, 380, 683, 1023, 259, 76, 167, 429, 362
167950138, 10690, -4322, -11628, 530, 3471, -1375, -720, 1767, 1714, 2195, 380, 683, 1023, 259, 76, 167, 429, 362
167950932, 10690, -4322, -11628, 530, 3471, -1375, -720, 1767, 1714, 2195, 380, 683, 1023, 259, 76, 167, 429, 362
167956757, 10690, -4322, -11628, 530, 3471, -1375, -720, 1767, 1714, 2195, 380, 683, 1023, 259, 76, 167, 429, 362
167957564, 10690, -4322, -11628, 530, 3471, -1375, -720, 1767, 1714, 2195, 380, 683, 1023, 259, 76, 167, 429, 362
167958377, 10690, -4322, -11628, 530, 3471, -1375, -720, 1767, 1714, 2195, 380, 683, 1023, 259, 76, 167, 429, 362
167963017, 11013, -4310, -11297, 979, 3351, -1074, -596, 2390, 1859, 2089, 380, 683, 1023, 259, 76, 167, 429, 362
167971467, 11013, -4310, -11297, 979, 3351, -1074, -596, 2390, 1859, 2089, 435, 762, 1052, 250, 72, 170, 505, 430
167978659, 11013, -4310, -11297, 979, 3351, -1074, -596, 2390, 1859, 2089, 435, 762, 1052, 250, 72, 170, 505, 430
167979556, 11299, -4313, -10966, 1378, 3225, -800, -642, 2100, 1820, 2019, 435, 762, 1052, 250, 72, 170, 505, 430
167993558, 11299, -4313, -10966, 1378, 3225, -800, -642, 2100, 1820, 2019, 440, 849, 1062, 257, 84, 176, 568, 446
167994350, 11299, -4313, -10966, 1378, 3225, -800, -642, 2100, 1820, 2019, 440, 849, 1062, 257, 84, 176, 568, 446
168000506, 11552, -4334, -10641, 1721, 3316, -869, -655, 1773, 1788, 1889, 440, 849, 1062, 257, 84, 176, 568, 446
168008552, 11552, -4334, -10641, 1721, 3316, -869, -655, 1773, 1788, 1889, 379, 998, 980, 264, 90, 181, 638, 433
168009389, 11552, -4334, -10641, 1721, 3316, -869, -655, 1773, 1788, 1889, 379, 998, 980, 264, 90, 181, 638, 433
168022939, 11793, -4319, -10320, 2051, 3350, -1117, -700, 1868, 1752, 1700, 379, 998, 980, 264, 90, 181, 638, 433
168031039, 11793, -4319, -10320, 2051, 3350, -1117, -700, 1868, 1752, 1700, 361, 1071, 830, 221, 88, 184, 648, 444
168031851, 11793, -4319, -10320, 2051, 3350, -1117, -700, 1868, 1752, 1700, 361, 1071, 830, 221, 88, 184, 648, 444
168038003, 12023, -4243, -10009, 2386, 3494, -867, -816, 2119, 1664, 1549, 361, 1071, 830, 221, 88, 184, 648, 444
168053528, 12023, -4243, -10009, 2386, 3494, -867, -816, 2119, 1664, 1549, 349, 1023, 827, 204, 96, 180, 686, 423
168054352, 12023, -4243, -10009, 2386, 3494, -867, -816, 2119, 1664, 1549, 349, 1023, 827, 204, 96, 180, 686, 423
168060513, 12233, -4155, -9705, 2710, 3472, -822, -833, 2105, 1591, 1481, 349, 1023, 827, 204, 96, 180, 686, 423
168068552, 12233, -4155, -9705, 2710, 3472, -822, -833, 2105, 1591, 1481, 359, 1076, 821, 206, 104, 202, 695, 335
168069352, 12233, -4155, -9705, 2710, 3472, -822, -833, 2105, 1591, 1481, 359, 1076, 821, 206, 104, 202, 695, 335
168082929, 12409, -4058, -9435, 2992, 3362, -734, -895, 1934, 1412, 1267, 359, 1076, 821, 206, 104, 202, 695, 335
168091028, 12409, -4058, -9435, 2992, 3362, -734, -895, 1934, 1412, 1267, 471, 1069, 833, 203, 107, 251, 852, 346
168091855, 12409, -4058, -9435, 2992, 3362, -734, -895, 1934, 1412, 1267, 471, 1069, 833, 203, 107, 251, 852, 346
168098007, 12554, -3950, -9201, 3250, 3333, -785, -864, 1829, 1192, 1113, 471, 1069, 833, 203, 107, 251, 852, 346
168113579, 12554, -3950, -9201, 3250, 3333, -785, -864, 1829, 1192, 1113, 560, 965, 828, 222, 106, 246, 917, 373
168114404, 12554, -3950, -9201, 3250, 3333, -785, -864, 1829, 1192, 1113, 560, 965, 828, 222, 106, 246, 917, 373
168120548, 12679, -3805, -9003, 3483, 3374, -702, -979, 1847, 997, 875, 560, 965, 828, 222, 106, 246, 917, 373
168128533, 12679, -3805, -9003, 3483, 3374, -702, -979, 1847, 997, 875, 568, 1044, 809, 225, 112, 261, 1024, 460
168129355, 12679, -3805, -9003, 3483, 3374, -702, -979, 1847, 997, 875, 568, 1044, 809, 225, 112, 261, 1024, 460
168142946, 12775, -3659, -8846, 3687, 3326, -482, -1007, 1669, 773, 746, 568, 1044, 809, 225, 112, 261, 1024, 460
168151087, 12775, -3659, -8846, 3687, 3326, -482, -1007, 1669, 773, 746, 649, 1159, 818, 327, 116, 280, 1062, 580
168151909, 12775, -3659, -8846, 3687, 3326, -482, -1007, 1669, 773, 746, 649, 1159, 818, 327, 116, 280, 1062, 580
168158062, 12786, -3480, -8876, 3746, 3403, -535, -1051, 1369, 637, 548, 649, 1159, 818, 327, 116, 280, 1062, 580
168173584, 12786, -3480, -8876, 3746, 3403, -535, -1051, 1369, 637, 548, 670, 1171, 814, 381, 146, 308, 1126, 772
168174412, 12786, -3480, -8876, 3746, 3403, -535, -1051, 1369, 637, 548, 670, 1171, 814, 381, 146, 308, 1126, 772
168180566, 12787, -3307, -8915, 3808, 3475, -608, -1027, 1323, 587, 547, 670, 1171, 814, 381, 146, 308, 1126, 772
168187878, 12787, -3307, -8915, 3808, 3475, -608, -1027, 1323, 587, 547, 653, 1233, 816, 435, 143, 280, 1098, 855
168195390, 12787, -3307, -8915, 3808, 3475, -608, -1027, 1323, 587, 547, 653, 1233, 816, 435, 143, 280, 1098, 855
168203056, 12797, -3101, -8944, 3878, 3186, -225, -875, 1397, 495, 528, 653, 1233, 816, 435, 143, 280, 1098, 855
168211057, 12797, -3101, -8944, 3878, 3186, -225, -875, 1397, 495, 528, 642, 1308, 850, 563, 173, 320, 1113, 904
168211851, 12797, -3101, -8944, 3878, 3186, -225, -875, 1397, 495, 528, 642, 1308, 850, 563, 173, 320, 1113, 904
168218006, 12762, -2946, -9026, 3928, 2973, -284, -901, 1003, 192, 480, 642, 1308, 850, 563, 173, 320, 1113, 904
168233530, 12762, -2946, -9026, 3928, 2973, -284, -901, 1003, 192, 480, 660, 1303, 851, 623, 180, 321, 1130, 910
168234348, 12762, -2946, -9026, 3928, 2973, -284, -901, 1003, 192, 480, 660, 1303, 851, 623, 180, 321, 1130, 910
168240548, 12700, -2795, -9145, 3960, 3149, -524, -856, 876, -25, 351, 660, 1303, 851, 623, 180, 321, 1130, 910
168256076, 12700, -2795, -9145, 3960, 3149, -524, -856, 876, -25, 351, 700, 1318, 908, 616, 186, 373, 1216, 850
168256901, 12700, -2795, -9145, 3960, 3149, -524, -856, 876, -25, 351, 700, 1318, 908, 616, 186, 373, 1216, 850
168263064, 12650, -2626, -9256, 3981, 3105, -262, -806, 876, -7, 315, 700, 1318, 908, 616, 186, 373, 1216, 850
168271031, 12650, -2626, -9256, 3981, 3105, -262, -806, 876, -7, 315, 662, 1308, 931, 651, 172, 357, 1213, 786
168271853, 12650, -2626, -9256, 3981, 3105, -262, -806, 876, -7, 315, 662, 1308, 931, 651, 172, 357, 1213, 786
168278002, 12585, -2511, -9377, 3978, 2965, -381, -676, 514, -100, 278, 662, 1308, 931, 651, 172, 357, 1213, 786
168293588, 12585, -2511, -9377, 3978, 2965, -381, -676, 514, -100, 278, 622, 1277, 931, 688, 171, 361, 1143, 717
168294408, 12585, -2511, -9377, 3978, 2965, -381, -676, 514, -100, 278, 622, 1277, 931, 688, 171, 361, 1143, 717
168300562, 12513, -2399, -9513, 3950, 3009, -328, -640, 373, -184, 195, 622, 1277, 931, 688, 171, 361, 1143, 717
168316079, 12513, -2399, -9513, 3950, 3009, -328, -640, 373, -184, 195, 581, 1230, 918, 614, 154, 376, 1167, 742
168316880, 12513, -2399, -9513, 3950, 3009, -328, -640, 373, -184, 195, 581, 1230, 918, 614, 154, 376, 1167, 742
168323028, 12444, -2304, -9644, 3907, 3027, -426, -561, 244, -177, 131, 581, 1230, 918, 614, 154, 376, 1167, 742
168331085, 12444, -2304, -9644, 3907, 3027, -426, -561, 244, -177, 131, 555, 1140, 941, 665, 178, 407, 1099, 742
168331905, 12444, -2304, -9644, 3907, 3027, -426, -561, 244, -177, 131, 555, 1140, 941, 665, 178, 407, 1099, 742
168338060, 12383, -2206, -9771, 3840, 2982, -179, -534, 144, -151, 91, 555, 1140, 941, 665, 178, 407, 1099, 742
168353587, 12383, -2206, -9771, 3840, 2982, -179, -534, 144, -151, 91, 455, 971, 890, 651, 184, 363, 992, 758
168354391, 12383, -2206, -9771, 3840, 2982, -179, -534, 144, -151, 91, 455, 971, 890, 651, 184, 363, 992, 758
168360563, 12315, -2163, -9902, 3746, 2954, -368, -472, -185, -161, 52, 455, 971, 890, 651, 184, 363, 992, 758
168376074, 12315, -2163, -9902, 3746, 2954, -368, -472, -185, -161, 52, 419, 900, 824, 621, 180, 349, 936, 695
168376881, 12315, -2163, -9902, 3746, 2954, -368, -472, -185, -161, 52, 419, 900, 824, 621, 180, 349, 936, 695
168383039, 12260, -2113, -10021, 3637, 2984, -291, -442, -202, -97, -19, 419, 900, 824, 621, 180, 349, 936, 695
168399297, 12260, -2113, -10021, 3637, 2984, -291, -442, -202, -97, -19, 383, 863, 738, 648, 204, 346, 906, 718
168400084, 12260, -2113, -10021, 3637, 2984, -291, -442, -202, -97, -19, 383, 863, 738, 648, 204, 346, 906, 718
168401033, 12202, -2101, -10149, 3482, 3016, -282, -486, -529, -66, -90, 383, 863, 738, 648, 204, 346, 906, 718
168413558, 12202, -2101, -10149, 3482, 3016, -282, -486, -529, -66, -90, 344, 817, 683, 660, 205, 278, 705, 624
168414369, 12202, -2101, -10149, 3482, 3016, -282, -486, -529, -66, -90, 344, 817, 683, 660, 205, 278, 705, 624
168420513, 12148, -2145, -10269, 3288, 3078, -366, -495, -880, 55, -99, 344, 817, 683, 660, 205, 278, 705, 624
168436034, 12148, -2145, -10269, 3288, 3078, -366, -495, -880, 55, -99, 360, 973, 546, 713, 188, 208, 615, 640
168436859, 12148, -2145, -10269, 3288, 3078, -366, -495, -880, 55, -99, 360, 973, 546, 713, 188, 208, 615, 640
168443005, 12109, -2259, -10375, 3008, 3159, -140, -474, -1474, 281, -108, 360, 973, 546, 713, 188, 208, 615, 640
168451055, 12109, -2259, -10375, 3008, 3159, -140, -474, -1474, 281, -108, 302, 1028, 451, 773, 181, 177, 528, 626
168451854, 12109, -2259, -10375, 3008, 3159, -140, -474, -1474, 281, -108, 302, 1028, 451, 773, 181, 177, 528, 626
168458030, 12089, -2594, -10413, 2667, 3055, -124, -638, -2607, 521, -69, 302, 1028, 451, 773, 181, 177, 528, 626
168473544, 12089, -2594, -10413, 2667, 3055, -124, -638, -2607, 521, -69, 342, 1111, 423, 868, 190, 167, 416, 591
168474362, 12089, -2594, -10413, 2667, 3055, -124, -638, -2607, 521, -69, 342, 1111, 423, 868, 190, 167, 416, 591
168480509, 12052, -3047, -10448, 2182, 2927, -493, -758, -3604, 707, -281, 342, 1111, 423, 868, 190, 167, 416, 591
168496031, 12052, -3047, -10448, 2182, 2927, -493, -758, -3604, 707, -281, 345, 1074, 455, 942, 273, 141, 361, 541
168496855, 12052, -3047, -10448, 2182, 2927, -493, -758, -3604, 707, -281, 345, 1074, 455, 942, 273, 141, 361, 541
168503066, 12020, -3501, -10439, 1644, 2994, -822, -660, -3770, 944, -487, 345, 1074, 455, 942, 273, 141, 361, 541
168519234, 12020, -3501, -10439, 1644, 2994, -822, -660, -3770, 944, -487, 331, 1090, 496, 1018, 316, 148, 344, 549
168520050, 12020, -3501, -10439, 1644, 2994, -822, -660, -3770, 944, -487, 331, 1090, 496, 1018, 316, 148, 344, 549
168521003, 11986, -3934, -10389, 1167, 2818, -1079, -856, -3430, 1034, -309, 331, 1090, 496, 1018, 316, 148, 344, 549
168533576, 11986, -3934, -10389, 1167, 2818, -1079, -856, -3430, 1034, -309, 339, 927, 585, 969, 346, 139, 312, 481
168534387, 11986, -3934, -10389, 1167, 2818, -1079, -856, -3430, 1034, -309, 339, 927, 585, 969, 346, 139, 312, 481
168540527, 11976, -4329, -10284, 715, 2937, -1065, -801, -3136, 1283, -263, 339, 927, 585, 969, 346, 139, 312, 481
168556064, 11976, -4329, -10284, 715, 2937, -1065, -801, -3136, 1283, -263, 368, 836, 568, 991, 356, 131, 258, 496
168556883, 11976, -4329, -10284, 715, 2937, -1065, -801, -3136, 1283, -263, 368, 836, 568, 991, 356, 131, 258, 496
168563041, 11960, -4745, -10139, 284, 2746, -1182, -774, -3147, 1400, -64, 368, 836, 568, 991, 356, 131, 258, 496
168579323, 11960, -4745, -10139, 284, 2746, -1182, -774, -3147, 1400, -64, 340, 651, 558, 988, 352, 120, 393, 593
168580074, 11960, -4745, -10139, 284, 2746, -1182, -774, -3147, 1400, -64, 340, 651, 558, 988, 352, 120, 393, 593
168581027, 11911, -5155, -9998, -187, 2536, -1062, -935, -3310, 1339, -256, 340, 651, 558, 988, 352, 120, 393, 593
168593561, 11911, -5155, -9998, -187, 2536, -1062, -935, -3310, 1339, -256, 347, 637, 582, 962, 286, 109, 372, 619
168594356, 11911, -5155, -9998, -187, 2536, -1062, -935, -3310, 1339, -256, 347, 637, 582, 962, 286, 109, 372, 619
168600505, 11825, -5548, -9868, -678, 2502, -1451, -922, -3375, 1205, -466, 347, 637, 582, 962, 286, 109, 372, 619
168616033, 11825, -5548, -9868, -678, 2502, -1451, -922, -3375, 1205, -466, 382, 624, 550, 862, 242, 102, 382, 597
168616853, 11825, -5548, -9868, -678, 2502, -1451, -922, -3375, 1205, -466, 382, 624, 550, 862, 242, 102, 382, 597
168623003, 11740, -5873, -9744, -1083, 2652, -1648, -883, -2810, 1021, -371, 382, 624, 550, 862, 242, 102, 382, 597
168639292, 11740, -5873, -9744, -1083, 2652, -1648, -883, -2810, 1021, -371, 363, 638, 525, 794, 189, 90, 381, 653
168640051, 11740, -5873, -9744, -1083, 2652, -1648, -883, -2810, 1021, -371, 363, 638, 525, 794, 189, 90, 381, 653
168641009, 11670, -6150, -9613, -1421, 2597, -1450, -1082, -2353, 1015, -230, 363, 638, 525, 794, 189, 90, 381, 653
168653579, 11670, -6150, -9613, -1421, 2597, -1450, -1082, -2353, 1015, -230, 349, 668, 528, 712, 171, 95, 378, 669
168654404, 11670, -6150, -9613, -1421, 2597, -1450, -1082, -2353, 1015, -230, 349, 668, 528, 712, 171, 95, 378, 669
168660560, 11565, -6455, -9483, -1760, 2605, -1251, -1225, -2541, 892, -131, 349, 668, 528, 712, 171, 95, 378, 669
168676075, 11565, -6455, -9483, -1760, 2605, -1251, -1225, -2541, 892, -131, 400, 781, 625, 570, 171, 122, 250, 619
168676875, 11565, -6455, -9483, -1760, 2605, -1251, -1225, -2541, 892, -131, 400, 781, 625, 570, 171, 122, 250, 619
168683032, 11425, -6801, -9325, -2169, 2579, -1405, -1307, -3020, 1022, -260, 400, 781, 625, 570, 171, 122, 250, 619
168699295, 11425, -6801, -9325, -2169, 2579, -1405, -1307, -3020, 1022, -260, 400, 855, 585, 398, 164, 125, 243, 597
168700099, 11425, -6801, -9325, -2169, 2579, -1405, -1307, -3020, 1022, -260, 400, 855, 585, 398, 164, 125, 243, 597
168701034, 11236, -7152, -9180, -2604, 2492, -1301, -1453, -3223, 891, -406, 400, 855, 585, 398, 164, 125, 243, 597
168712886, 11236, -7152, -9180, -2604, 2492, -1301, -1453, -3223, 891, -406, 379, 861, 772, 474, 174, 132, 236, 593
168721112, 11236, -7152, -9180, -2604, 2492, -1301, -1453, -3223, 891, -406, 379, 861, 772, 474, 174, 132, 236, 593
168722057, 10991, -7527, -9029, -3076, 2476, -1615, -1657, -3565, 825, -555, 379, 861, 772, 474, 174, 132, 236, 593
168736063, 10991, -7527, -9029, -3076, 2476, -1615, -1657, -3565, 825, -555, 372, 960, 960, 513, 180, 138, 241, 591
168736856, 10991, -7527, -9029, -3076, 2476, -1615, -1657, -3565, 825, -555, 372, 960, 960, 513, 180, 138, 241, 591
168743010, 10765, -7879, -8862, -3453, 2652, -1879, -1811, -3158, 732, -238, 372, 960, 960, 513, 180, 138, 241, 591
168759266, 10765, -7879, -8862, -3453, 2652, -1879, -1811, -3158, 732, -238, 364, 1010, 961, 492, 171, 138, 242, 593
168760077, 10765, -7879, -8862, -3453, 2652, -1879, -1811, -3158, 732, -238, 364, 1010, 961, 492, 171, 138, 242, 593
168761003, 10557, -8173, -8703, -3804, 2553, -1792, -1769, -2811, 749, -313, 364, 1010, 961, 492, 171, 138, 242, 593
168781738, 10557, -8173, -8703, -3804, 2553, -1792, -1769, -2811, 749, -313, 287, 999, 905, 518, 162, 132, 242, 589
168782534, 10557, -8173, -8703, -3804, 2553, -1792, -1769, -2811, 749, -313, 287, 999, 905, 518, 162, 132, 242, 589
168783485, 10356, -8424, -8570, -4098, 2639, -1701, -1897, -2429, 583, -279, 287, 999, 905, 518, 162, 132, 242, 589
168796066, 10356, -8424, -8570, -4098, 2639, -1701, -1897, -2429, 583, -279, 284, 1014, 919, 541, 152, 132, 249, 631
168796889, 10356, -8424, -8570, -4098, 2639, -1701, -1897, -2429, 583, -279, 284, 1014, 919, 541, 152, 132, 249, 631
168803049, 10152, -8667, -8447, -4348, 2856, -1817, -1880, -2276, 411, -193, 284, 1014, 919, 541, 152, 132, 249, 631
168819249, 10152, -8667, -8447, -4348, 2856, -1817, -1880, -2276, 411, -193, 353, 983, 774, 503, 130, 131, 250, 762
168820063, 10152, -8667, -8447, -4348, 2856, -1817, -1880, -2276, 411, -193, 353, 983, 774, 503, 130, 131, 250, 762
168821014, 10024, -8871, -8314, -4490, 2747, -2120, -1891, -1627, 408, 176, 353, 983, 774, 503, 130, 131, 250, 762
168841737, 10024, -8871, -8314, -4490, 2747, -2120, -1891, -1627, 408, 176, 384, 978, 433, 472, 120, 137, 316, 787
168842554, 10024, -8871, -8314, -4490, 2747, -2120, -1891, -1627, 408, 176, 384, 978, 433, 472, 120, 137, 316, 787
168843482, 9883, -9080, -8228, -4541, 2462, -1782, -1741, -1162, 444, 81, 384, 978, 433, 472, 120, 137, 316, 787
168856061, 9883, -9080, -8228, -4541, 2462, -1782, -1741, -1162, 444, 81, 386, 1051, 470, 543, 129, 136, 319, 835
168856880, 9883, -9080, -8228, -4541, 2462, -1782, -1741, -1162, 444, 81, 386, 1051, 470, 543, 129, 136, 319, 835
168863033, 9729, -9281, -8162, -4588, 2439, -1873, -1720, -1160, 304, -52, 386, 1051, 470, 543, 129, 136, 319, 835
168879305, 9729, -9281, -8162, -4588, 2439, -1873, -1720, -1160, 304, -52, 463, 1077, 489, 705, 151, 125, 304, 928
168880099, 9729, -9281, -8162, -4588, 2439, -1873, -1720, -1160, 304, -52, 463, 1077, 489, 705, 151, 125, 304, 928
168881028, 9602, -9429, -8126, -4617, 2467, -1953, -1730, -813, 281, -219, 463, 1077, 489, 705, 151, 125, 304, 928
168901755, 9602, -9429, -8126, -4617, 2467, -1953, -1730, -813, 281, -219, 595, 1063, 437, 748, 166, 143, 342, 936
168902563, 9602, -9429, -8126, -4617, 2467, -1953, -1730, -813, 281, -219, 595, 1063, 437, 748, 166, 143, 342, 936
168903513, 9508, -9549, -8118, -4578, 2731, -2060, -1858, -383, 124, -92, 595, 1063, 437, 748, 166, 143, 342, 936
168916085, 9508, -9549, -8118, -4578, 2731, -2060, -1858, -383, 124, -92, 614, 1247, 428, 786, 180, 147, 389, 893
168916908, 9508, -9549, -8118, -4578, 2731, -2060, -1858, -383, 124, -92, 614, 1247, 428, 786, 180, 147, 389, 893
168923063, 9459, -9614, -8131, -4520, 2660, -1953, -1875, 33, 206, -128, 614, 1247, 428, 786, 180, 147, 389, 893
168939223, 9459, -9614, -8131, -4520, 2660, -1953, -1875, 33, 206, -128, 643, 1189, 422, 796, 211, 160, 363, 886
168940061, 9459, -9614, -8131, -4520, 2660, -1953, -1875, 33, 206, -128, 643, 1189, 422, 796, 211, 160, 363, 886
168940982, 9403, -9671, -8166, -4452, 2575, -1791, -1885, 110, 78, -133, 643, 1189, 422, 796, 211, 160, 363, 886
168961754, 9403, -9671, -8166, -4452, 2575, -1791, -1885, 110, 78, -133, 654, 1090, 384, 827, 240, 177, 423, 851
168962657, 9403, -9671, -8166, -4452, 2575, -1791, -1885, 110, 78, -133, 654, 1090, 384, 827, 240, 177, 423, 851
168963515, 9327, -9728, -8218, -4392, 2698, -1689, -1910, 53, -29, -163, 654, 1090, 384, 827, 240, 177, 423, 851
168976025, 9327, -9728, -8218, -4392, 2698, -1689, -1910, 53, -29, -163, 612, 1125, 336, 719, 227, 173, 499, 803
168976860, 9327, -9728, -8218, -4392, 2698, -1689, -1910, 53, -29, -163, 612, 1125, 336, 719, 227, 173, 499, 803
168983066, 9258, -9789, -8267, -4309, 2829, -1777, -2006, 120, -69, -59, 612, 1125, 336, 719, 227, 173, 499, 803
168999247, 9258, -9789, -8267, -4309, 2829, -1777, -2006, 120, -69, -59, 535, 1124, 334, 632, 217, 170, 577, 890
169000054, 9258, -9789, -8267, -4309, 2829, -1777, -2006, 120, -69, -59, 535, 1124, 334, 632, 217, 170, 577, 890
169001008, 9223, -9828, -8315, -4203, 2773, -1702, -2027, 380, -31, 43, 535, 1124, 334, 632, 217, 170, 577, 890
169022173, 9223, -9828, -8315, -4203, 2773, -1702, -2027, 380, -31, 43, 537, 964, 324, 573, 196, 165, 583, 888
169022643, 9223, -9828, -8315, -4203, 2773, -1702, -2027, 380, -31, 43, 537, 964, 324, 573, 196, 165, 583, 888
169023522, 9181, -9866, -8362, -4111, 2740, -1603, -2020, 318, -16, 38, 537, 964, 324, 573, 196, 165, 583, 888
169036051, 9181, -9866, -8362, -4111, 2740, -1603, -2020, 318, -16, 38, 503, 988, 320, 577, 165, 146, 567, 827
169036864, 9181, -9866, -8362, -4111, 2740, -1603, -2020, 318, -16, 38, 503, 988, 320, 577, 165, 146, 567, 827
169043325, 9147, -9909, -8400, -4003, 2695, -1636, -2018, 356, -46, 135, 503, 988, 320, 577, 165, 146, 567, 827
169059276, 9147, -9909, -8400, -4003, 2695, -1636, -2018, 356, -46, 135, 476, 999, 293, 474, 144, 131, 531, 780
169060075, 9147, -9909, -8400, -4003, 2695, -1636, -2018, 356, -46, 135, 476, 999, 293, 474, 144, 131, 531, 780
169060994, 9108, -9947, -8447, -3897, 2737, -1607, -2056, 370, -91, 114, 476, 999, 293, 474, 144, 131, 531, 780
169081719, 9108, -9947, -8447, -3897, 2737, -1607, -2056, 370, -91, 114, 599, 919, 262, 396, 143, 159, 587, 797
169082515, 9108, -9947, -8447, -3897, 2737, -1607, -2056, 370, -91, 114, 599, 919, 262, 396, 143, 159, 587, 797
169083467, 9067, -9985, -8493, -3797, 2656, -1596, -2044, 342, -87, 94, 599, 919, 262, 396, 143, 159, 587, 797
169096049, 9067, -9985, -8493, -3797, 2656, -1596, -2044, 342, -87, 94, 566, 853, 253, 374, 144, 149, 510, 747
169096865, 9067, -9985, -8493, -3797, 2656, -1596, -2044, 342, -87, 94, 566, 853, 253, 374, 144, 149, 510, 747
169103020, 9026, -10014, -8545, -3700, 2739, -1578, -2058, 365, -115, 77, 566, 853, 253, 374, 144, 149, 510, 747
169119265, 9026, -10014, -8545, -3700, 2739, -1578, -2058, 365, -115, 77, 552, 798, 268, 331, 139, 146, 479, 708
169120086, 9026, -10014, -8545, -3700, 2739, -1578, -2058, 365, -115, 77, 552, 798, 268, 331, 139, 146, 479, 708
169121040, 8988, -10041, -8591, -3610, 2648, -1520, -2008, 347, -92, 85, 552, 798, 268, 331, 139, 146, 479, 708
169141729, 8988, -10041, -8591, -3610, 2648, -1520, -2008, 347, -92, 85, 554, 772, 269, 296, 131, 145, 493, 687
169142577, 8988, -10041, -8591, -3610, 2648, -1520, -2008, 347, -92, 85, 554, 772, 269, 296, 131, 145, 493, 687
169143480, 8943, -10072, -8636, -3526, 2671, -1538, -2019, 285, -112, 86, 554, 772, 269, 296, 131, 145, 493, 687
169156084, 8943, -10072, -8636, -3526, 2671, -1538, -2019, 285, -112, 86, 545, 691, 270, 334, 101, 149, 495, 706
169156878, 8943, -10072, -8636, -3526, 2671, -1538, -2019, 285, -112, 86, 545, 691, 270, 334, 101, 149, 495, 706
169163032, 8901, -10098, -8680, -3451, 2658, -1587, -1991, 262, -94, 22, 545, 691, 270, 334, 101, 149, 495, 706
169179225, 8901, -10098, -8680, -3451, 2658, -1587, -1991, 262, -94, 22, 395, 655, 266, 325, 110, 143, 348, 606
169180036, 8901, -10098, -8680, -3451, 2658, -1587, -1991, 262, -94, 22, 395, 655, 266, 325, 110, 143, 348, 606
169180984, 8867, -10114, -8725, -3377, 2689, -1643, -1965, 302, -94, -8, 395, 655, 266, 325, 110, 143, 348, 606
169201764, 8867, -10114, -8725, -3377, 2689, -1643, -1965, 302, -94, -8, 374, 665, 244, 326, 109, 150, 308, 514
169202554, 8867, -10114, -8725, -3377, 2689, -1643, -1965, 302, -94, -8, 374, 665, 244, 326, 109, 150, 308, 514
169203501, 8832, -10123, -8775, -3310, 2625, -1514, -1918, 302, -105, -23, 374, 665, 244, 326, 109, 150, 308, 514