Timestamp, Orientation x, Orientation y, Orientation z, Orientation w, Acceleration x, Acceleration y, Acceleration z, Rotation x, Rotation y, Rotation z, EMG 0, EMG 1, EMG 2, EMG 3, EMG 4, EMG 5, EMG 6, EMG 7
182658096, 9929, 2585, -11323, 5912, 3980, 694, -2098, -125, -62, 4, 0, 0, 0, 0, 0, 0, 0, 0
182658880, 9924, 2580, -11335, 5900, 4054, 752, -2115, -83, -55, -3, 0, 0, 0, 0, 0, 0, 0, 0
182672393, 9923, 2587, -11337, 5893, 4035, 753, -2123, -6, -35, -46, 0, 0, 0, 0, 0, 0, 0, 0
182694869, 9927, 2605, -11335, 5884, 4020, 770, -2218, 26, -20, -115, 0, 0, 0, 0, 0, 0, 0, 0
182709846, 9934, 2630, -11325, 5880, 4078, 738, -2319, 81, 7, -129, 0, 0, 0, 0, 0, 0, 0, 0
182725495, 9934, 2630, -11325, 5880, 4078, 738, -2319, 81, 7, -129, 27, 29, 41, 83, 189, 75, 114, 27
182726289, 9934, 2630, -11325, 5880, 4078, 738, -2319, 81, 7, -129, 27, 29, 41, 83, 189, 75, 114, 27
182732449, 9936, 2672, -11306, 5893, 4019, 678, -2438, 230, -4, -143, 27, 29, 41, 83, 189, 75, 114, 27
182747977, 9936, 2672, -11306, 5893, 4019, 678, -2438, 230, -4, -143, 27, 28, 50, 83, 195, 70, 134, 24
182748792, 9936, 2672, -11306, 5893, 4019, 678, -2438, 230, -4, -143, 27, 28, 50, 83, 195, 70, 134, 24
182754915, 9923, 2743, -11295, 5905, 3949, 893, -2454, 320, -143, -219, 27, 28, 50, 83, 195, 70, 134, 24
182770517, 9923, 2743, -11295, 5905, 3949, 893, -2454, 320, -143, -219, 26, 33, 47, 77, 161, 83, 148, 25
182771304, 9923, 2743, -11295, 5905, 3949, 893, -2454, 320, -143, -219, 26, 33, 47, 77, 161, 83, 148, 25
182777442, 9908, 2810, -11307, 5876, 3907, 987, -2626, 106, -264, -315, 26, 33, 47, 77, 161, 83, 148, 25
182785467, 9908, 2810, -11307, 5876, 3907, 987, -2626, 106, -264, -315, 33, 35, 47, 51, 108, 89, 142, 68
182786275, 9908, 2810, -11307, 5876, 3907, 987, -2626, 106, -264, -315, 33, 35, 47, 51, 108, 89, 142, 68
182792415, 9872, 2892, -11340, 5832, 4012, 998, -2672, 71, -458, -359, 33, 35, 47, 51, 108, 89, 142, 68
182808039, 9872, 2892, -11340, 5832, 4012, 998, -2672, 71, -458, -359, 41, 37, 45, 48, 98, 90, 157, 102
182808813, 9872, 2892, -11340, 5832, 4012, 998, -2672, 71, -458, -359, 41, 37, 45, 48, 98, 90, 157, 102
182815005, 9827, 3014, -11369, 5789, 4008, 945, -2513, 233, -556, -497, 41, 37, 45, 48, 98, 90, 157, 102
182830487, 9827, 3014, -11369, 5789, 4008, 945, -2513, 233, -556, -497, 41, 37, 46, 43, 93, 91, 161, 110
182831363, 9827, 3014, -11369, 5789, 4008, 945, -2513, 233, -556, -497, 41, 37, 46, 43, 93, 91, 161, 110
182837469, 9774, 3191, -11372, 5779, 3989, 960, -2513, 604, -577, -615, 41, 37, 46, 43, 93, 91, 161, 110
182845439, 9774, 3191, -11372, 5779, 3989, 960, -2513, 604, -577, -615, 49, 47, 89, 54, 77, 92, 171, 125
182846304, 9774, 3191, -11372, 5779, 3989, 960, -2513, 604, -577, -615, 49, 47, 89, 54, 77, 92, 171, 125
182852419, 9708, 3419, -11358, 5787, 3980, 1085, -2747, 892, -649, -743, 49, 47, 89, 54, 77, 92, 171, 125
182867986, 9708, 3419, -11358, 5787, 3980, 1085, -2747, 892, -649, -743, 52, 45, 99, 56, 55, 87, 174, 141
182868839, 9708, 3419, -11358, 5787, 3980, 1085, -2747, 892, -649, -743, 52, 45, 99, 56, 55, 87, 174, 141
182874966, 9624, 3691, -11344, 5789, 3918, 1386, -2867, 1035, -817, -902, 52, 45, 99, 56, 55, 87, 174, 141
182890526, 9624, 3691, -11344, 5789, 3918, 1386, -2867, 1035, -817, -902, 49, 46, 103, 60, 52, 97, 236, 131
182891317, 9624, 3691, -11344, 5789, 3918, 1386, -2867, 1035, -817, -902, 49, 46, 103, 60, 52, 97, 236, 131
182897484, 9517, 4046, -11326, 5763, 3855, 1593, -2819, 1236, -1091, -1275, 49, 46, 103, 60, 52, 97, 236, 131
182905516, 9517, 4046, -11326, 5763, 3855, 1593, -2819, 1236, -1091, -1275, 46, 50, 110, 62, 50, 100, 246, 114
182906313, 9517, 4046, -11326, 5763, 3855, 1593, -2819, 1236, -1091, -1275, 46, 50, 110, 62, 50, 100, 246, 114
182912477, 9413, 4445, -11311, 5666, 3884, 1809, -2915, 1095, -1273, -1676, 46, 50, 110, 62, 50, 100, 246, 114
182927990, 9413, 4445, -11311, 5666, 3884, 1809, -2915, 1095, -1273, -1676, 47, 51, 111, 61, 79, 134, 249, 113
182928842, 9413, 4445, -11311, 5666, 3884, 1809, -2915, 1095, -1273, -1676, 47, 51, 111, 61, 79, 134, 249, 113
182934967, 9315, 4849, -11313, 5492, 3876, 1783, -2818, 770, -1433, -1929, 47, 51, 111, 61, 79, 134, 249, 113
182950529, 9315, 4849, -11313, 5492, 3876, 1783, -2818, 770, -1433, -1929, 43, 49, 84, 51, 80, 143, 248, 101
182951289, 9315, 4849, -11313, 5492, 3876, 1783, -2818, 770, -1433, -1929, 43, 49, 84, 51, 80, 143, 248, 101
182957457, 9216, 5266, -11312, 5272, 3868, 1705, -2898, 643, -1529, -2127, 43, 49, 84, 51, 80, 143, 248, 101
182965489, 9216, 5266, -11312, 5272, 3868, 1705, -2898, 643, -1529, -2127, 41, 58, 94, 48, 85, 137, 292, 82
182966343, 9216, 5266, -11312, 5272, 3868, 1705, -2898, 643, -1529, -2127, 41, 58, 94, 48, 85, 137, 292, 82
182972492, 9093, 5707, -11302, 5045, 3856, 1878, -2956, 750, -1646, -2215, 41, 58, 94, 48, 85, 137, 292, 82
182988019, 9093, 5707, -11302, 5045, 3856, 1878, -2956, 750, -1646, -2215, 44, 66, 111, 44, 84, 127, 255, 105
182988800, 9093, 5707, -11302, 5045, 3856, 1878, -2956, 750, -1646, -2215, 44, 66, 111, 44, 84, 127, 255, 105
182994964, 8947, 6193, -11264, 4811, 3873, 1865, -3074, 955, -1735, -2426, 44, 66, 111, 44, 84, 127, 255, 105
183010496, 8947, 6193, -11264, 4811, 3873, 1865, -3074, 955, -1735, -2426, 45, 66, 128, 44, 97, 128, 291, 160
183011288, 8947, 6193, -11264, 4811, 3873, 1865, -3074, 955, -1735, -2426, 45, 66, 128, 44, 97, 128, 291, 160
183017467, 8762, 6735, -11186, 4600, 3891, 1745, -3079, 1367, -1816, -2592, 45, 66, 128, 44, 97, 128, 291, 160
183025488, 8762, 6735, -11186, 4600, 3891, 1745, -3079, 1367, -1816, -2592, 51, 77, 146, 51, 152, 94, 380, 270
183026297, 8762, 6735, -11186, 4600, 3891, 1745, -3079, 1367, -1816, -2592, 51, 77, 146, 51, 152, 94, 380, 270
183032441, 8528, 7321, -11064, 4437, 3842, 1748, -3134, 1861, -1826, -2647, 51, 77, 146, 51, 152, 94, 380, 270
183047973, 8528, 7321, -11064, 4437, 3842, 1748, -3134, 1861, -1826, -2647, 49, 77, 142, 56, 228, 114, 398, 282
183048827, 8528, 7321, -11064, 4437, 3842, 1748, -3134, 1861, -1826, -2647, 49, 77, 142, 56, 228, 114, 398, 282
183054983, 8231, 7928, -10916, 4320, 3745, 1909, -3319, 2294, -1908, -2553, 49, 77, 142, 56, 228, 114, 398, 282
183070465, 8231, 7928, -10916, 4320, 3745, 1909, -3319, 2294, -1908, -2553, 48, 70, 135, 61, 261, 116, 368, 298
183071291, 8231, 7928, -10916, 4320, 3745, 1909, -3319, 2294, -1908, -2553, 48, 70, 135, 61, 261, 116, 368, 298
183077404, 7905, 8495, -10776, 4202, 3625, 2105, -3501, 2248, -1976, -2348, 48, 70, 135, 61, 261, 116, 368, 298
183085475, 7905, 8495, -10776, 4202, 3625, 2105, -3501, 2248, -1976, -2348, 50, 62, 121, 66, 271, 125, 376, 341
183086288, 7905, 8495, -10776, 4202, 3625, 2105, -3501, 2248, -1976, -2348, 50, 62, 121, 66, 271, 125, 376, 341
183092463, 7596, 8997, -10654, 4036, 3615, 2220, -3588, 1812, -2013, -2207, 50, 62, 121, 66, 271, 125, 376, 341
183107966, 7596, 8997, -10654, 4036, 3615, 2220, -3588, 1812, -2013, -2207, 60, 67, 97, 67, 319, 189, 367, 365
183108816, 7596, 8997, -10654, 4036, 3615, 2220, -3588, 1812, -2013, -2207, 60, 67, 97, 67, 319, 189, 367, 365
183114962, 7290, 9467, -10530, 3844, 3532, 2114, -3531, 1634, -2031, -2167, 60, 67, 97, 67, 319, 189, 367, 365
183130464, 7290, 9467, -10530, 3844, 3532, 2114, -3531, 1634, -2031, -2167, 55, 54, 72, 62, 320, 211, 300, 313
183131256, 7290, 9467, -10530, 3844, 3532, 2114, -3531, 1634, -2031, -2167, 55, 54, 72, 62, 320, 211, 300, 313
183137426, 6964, 9910, -10408, 3661, 3433, 1872, -3469, 1658, -2043, -2018, 55, 54, 72, 62, 320, 211, 300, 313
183145454, 6964, 9910, -10408, 3661, 3433, 1872, -3469, 1658, -2043, -2018, 59, 54, 76, 66, 277, 205, 323, 336
183146273, 6964, 9910, -10408, 3661, 3433, 1872, -3469, 1658, -2043, -2018, 59, 54, 76, 66, 277, 205, 323, 336
183152449, 6632, 10291, -10311, 3496, 3416, 1755, -3503, 1567, -1988, -1664, 59, 54, 76, 66, 277, 205, 323, 336
183167941, 6632, 10291, -10311, 3496, 3416, 1755, -3503, 1567, -1988, -1664, 59, 53, 64, 63, 261, 212, 392, 333
183168791, 6632, 10291, -10311, 3496, 3416, 1755, -3503, 1567, -1988, -1664, 59, 53, 64, 63, 261, 212, 392, 333
183174932, 6284, 10639, -10218, 3368, 3516, 1621, -3423, 1673, -1879, -1424, 59, 53, 64, 63, 261, 212, 392, 333
183190457, 6284, 10639, -10218, 3368, 3516, 1621, -3423, 1673, -1879, -1424, 54, 51, 59, 56, 267, 276, 380, 285
183191262, 6284, 10639, -10218, 3368, 3516, 1621, -3423, 1673, -1879, -1424, 54, 51, 59, 56, 267, 276, 380, 285
183197441, 5921, 10966, -10117, 3280, 3454, 1569, -3404, 1858, -1729, -1241, 54, 51, 59, 56, 267, 276, 380, 285
183205463, 5921, 10966, -10117, 3280, 3454, 1569, -3404, 1858, -1729, -1241, 45, 45, 60, 53, 235, 297, 352, 242
183206254, 5921, 10966, -10117, 3280, 3454, 1569, -3404, 1858, -1729, -1241, 45, 45, 60, 53, 235, 297, 352, 242
183212426, 5595, 11235, -10038, 3187, 3316, 1562, -3333, 1576, -1618, -1004, 45, 45, 60, 53, 235, 297, 352, 242
183227978, 5595, 11235, -10038, 3187, 3316, 1562, -3333, 1576, -1618, -1004, 45, 41, 53, 53, 195, 307, 352, 221
183228788, 5595, 11235, -10038, 3187, 3316, 1562, -3333, 1576, -1618, -1004, 45, 41, 53, 53, 195, 307, 352, 221
183234916, 5315, 11462, -9961, 3094, 3186, 1354, -3193, 1417, -1524, -846, 45, 41, 53, 53, 195, 307, 352, 221
183250450, 5315, 11462, -9961, 3094, 3186, 1354, -3193, 1417, -1524, -846, 39, 36, 101, 44, 243, 381, 301, 180
183251238, 5315, 11462, -9961, 3094, 3186, 1354, -3193, 1417, -1524, -846, 39, 36, 101, 44, 243, 381, 301, 180
183257477, 5081, 11636, -9904, 3020, 3112, 1326, -2994, 1224, -1396, -607, 39, 36, 101, 44, 243, 381, 301, 180
183265438, 5081, 11636, -9904, 3020, 3112, 1326, -2994, 1224, -1396, -607, 40, 36, 152, 52, 271, 388, 222, 182
183266275, 5081, 11636, -9904, 3020, 3112, 1326, -2994, 1224, -1396, -607, 40, 36, 152, 52, 271, 388, 222, 182
183272415, 4868, 11750, -9885, 2991, 3051, 1023, -3060, 1046, -1155, -291, 40, 36, 152, 52, 271, 388, 222, 182
183287968, 4868, 11750, -9885, 2991, 3051, 1023, -3060, 1046, -1155, -291, 46, 49, 171, 59, 263, 432, 220, 204
183288764, 4868, 11750, -9885, 2991, 3051, 1023, -3060, 1046, -1155, -291, 46, 49, 171, 59, 263, 432, 220, 204
183294941, 4642, 11835, -9890, 3000, 2954, 661, -3146, 1025, -1032, -114, 46, 49, 171, 59, 263, 432, 220, 204
183310495, 4642, 11835, -9890, 3000, 2954, 661, -3146, 1025, -1032, -114, 42, 45, 175, 56, 247, 515, 247, 191
183311311, 4642, 11835, -9890, 3000, 2954, 661, -3146, 1025, -1032, -114, 42, 45, 175, 56, 247, 515, 247, 191
183317440, 4456, 11909, -9889, 2991, 2990, 752, -3088, 871, -1030, -123, 42, 45, 175, 56, 247, 515, 247, 191
183324775, 4456, 11909, -9889, 2991, 2990, 752, -3088, 871, -1030, -123, 44, 48, 187, 56, 271, 533, 233, 191
183333010, 4456, 11909, -9889, 2991, 2990, 752, -3088, 871, -1030, -123, 44, 48, 187, 56, 271, 533, 233, 191
183333981, 4362, 11967, -9871, 2961, 2945, 942, -2943, 524, -819, -193, 44, 48, 187, 56, 271, 533, 233, 191
183347980, 4362, 11967, -9871, 2961, 2945, 942, -2943, 524, -819, -193, 52, 58, 180, 58, 224, 572, 252, 219
183348790, 4362, 11967, -9871, 2961, 2945, 942, -2943, 524, -819, -193, 52, 58, 180, 58, 224, 572, 252, 219
183354969, 4321, 11997, -9863, 2923, 2831, 657, -3022, 94, -599, -209, 52, 58, 180, 58, 224, 572, 252, 219
183370485, 4321, 11997, -9863, 2923, 2831, 657, -3022, 94, -599, -209, 56, 62, 156, 53, 174, 615, 285, 241
183371301, 4321, 11997, -9863, 2923, 2831, 657, -3022, 94, -599, -209, 56, 62, 156, 53, 174, 615, 285, 241
183377471, 4311, 12003, -9871, 2886, 2835, 415, -3072, -198, -485, -173, 56, 62, 156, 53, 174, 615, 285, 241
183384794, 4311, 12003, -9871, 2886, 2835, 415, -3072, -198, -485, -173, 52, 59, 139, 48, 168, 616, 300, 221
183393002, 4311, 12003, -9871, 2886, 2835, 415, -3072, -198, -485, -173, 52, 59, 139, 48, 168, 616, 300, 221
183393927, 4282, 12020, -9864, 2881, 2665, 409, -3194, 11, -298, -192, 52, 59, 139, 48, 168, 616, 300, 221
183407982, 4282, 12020, -9864, 2881, 2665, 409, -3194, 11, -298, -192, 53, 59, 132, 49, 194, 650, 292, 231
183408780, 4282, 12020, -9864, 2881, 2665, 409, -3194, 11, -298, -192, 53, 59, 132, 49, 194, 650, 292, 231
183414985, 4215, 12062, -9834, 2909, 2537, 386, -3337, 320, -188, -274, 53, 59, 132, 49, 194, 650, 292, 231
183430488, 4215, 12062, -9834, 2909, 2537, 386, -3337, 320, -188, -274, 54, 61, 116, 49, 170, 651, 288, 249
183431288, 4215, 12062, -9834, 2909, 2537, 386, -3337, 320, -188, -274, 54, 61, 116, 49, 170, 651, 288, 249
183437444, 4159, 12108, -9795, 2929, 2431, 678, -3412, 405, -111, -236, 54, 61, 116, 49, 170, 651, 288, 249
183453680, 4159, 12108, -9795, 2929, 2431, 678, -3412, 405, -111, -236, 47, 54, 92, 52, 181, 643, 297, 222
183454493, 4159, 12108, -9795, 2929, 2431, 678, -3412, 405, -111, -236, 47, 54, 92, 52, 181, 643, 297, 222
183455456, 4120, 12152, -9754, 2939, 2338, 884, -3533, 380, -13, -191, 47, 54, 92, 52, 181, 643, 297, 222
183467969, 4120, 12152, -9754, 2939, 2338, 884, -3533, 380, -13, -191, 44, 50, 60, 47, 191, 625, 246, 182
183468763, 4120, 12152, -9754, 2939, 2338, 884, -3533, 380, -13, -191, 44, 50, 60, 47, 191, 625, 246, 182
183474956, 4088, 12193, -9719, 2929, 2287, 888, -3724, 263, -10, -189, 44, 50, 60, 47, 191, 625, 246, 182
183490453, 4088, 12193, -9719, 2929, 2287, 888, -3724, 263, -10, -189, 47, 42, 55, 44, 188, 621, 230, 186
183491264, 4088, 12193, -9719, 2929, 2287, 888, -3724, 263, -10, -189, 47, 42, 55, 44, 188, 621, 230, 186
183497457, 4072, 12227, -9693, 2899, 2269, 952, -3852, 130, -5, -154, 47, 42, 55, 44, 188, 621, 230, 186
183513712, 4072, 12227, -9693, 2899, 2269, 952, -3852, 130, -5, -154, 48, 46, 52, 45, 143, 493, 238, 200
183514500, 4072, 12227, -9693, 2899, 2269, 952, -3852, 130, -5, -154, 48, 46, 52, 45, 143, 493, 238, 200
183515393, 4079, 12252, -9675, 2844, 2254, 1051, -3792, -32, -57, -126, 48, 46, 52, 45, 143, 493, 238, 200
183527958, 4079, 12252, -9675, 2844, 2254, 1051, -3792, -32, -57, -126, 45, 42, 48, 45, 127, 464, 227, 191
183528785, 4079, 12252, -9675, 2844, 2254, 1051, -3792, -32, -57, -126, 45, 42, 48, 45, 127, 464, 227, 191
183534943, 4116, 12266, -9667, 2756, 2248, 1155, -3750, -262, -124, -106, 45, 42, 48, 45, 127, 464, 227, 191
183550491, 4116, 12266, -9667, 2756, 2248, 1155, -3750, -262, -124, -106, 45, 38, 43, 33, 105, 361, 217, 186
183551288, 4116, 12266, -9667, 2756, 2248, 1155, -3750, -262, -124, -106, 45, 38, 43, 33, 105, 361, 217, 186
183557468, 4195, 12262, -9675, 2622, 2244, 1222, -3750, -636, -199, -89, 45, 38, 43, 33, 105, 361, 217, 186
183573688, 4195, 12262, -9675, 2622, 2244, 1222, -3750, -636, -199, -89, 49, 37, 41, 30, 71, 323, 258, 189
183574441, 4195, 12262, -9675, 2622, 2244, 1222, -3750, -636, -199, -89, 49, 37, 41, 30, 71, 323, 258, 189
183575393, 4324, 12233, -9706, 2423, 2198, 1262, -3742, -1144, -308, -68, 49, 37, 41, 30, 71, 323, 258, 189
183587955, 4324, 12233, -9706, 2423, 2198, 1262, -3742, -1144, -308, -68, 64, 42, 42, 43, 69, 253, 300, 220
183588766, 4324, 12233, -9706, 2423, 2198, 1262, -3742, -1144, -308, -68, 64, 42, 42, 43, 69, 253, 300, 220
183594959, 4510, 12171, -9768, 2130, 2153, 1471, -3770, -1861, -622, -96, 64, 42, 42, 43, 69, 253, 300, 220
183610449, 4510, 12171, -9768, 2130, 2153, 1471, -3770, -1861, -622, -96, 67, 48, 43, 44, 81, 296, 299, 205
183611265, 4510, 12171, -9768, 2130, 2153, 1471, -3770, -1861, -622, -96, 67, 48, 43, 44, 81, 296, 299, 205
183617418, 4792, 12066, -9853, 1677, 2088, 1721, -3630, -2872, -975, -167, 67, 48, 43, 44, 81, 296, 299, 205
183633663, 4792, 12066, -9853, 1677, 2088, 1721, -3630, -2872, -975, -167, 81, 52, 48, 59, 85, 341, 424, 220
183634489, 4792, 12066, -9853, 1677, 2088, 1721, -3630, -2872, -975, -167, 81, 52, 48, 59, 85, 341, 424, 220
183635367, 5224, 11871, -9955, 1059, 2054, 1951, -3534, -4217, -1142, -165, 81, 52, 48, 59, 85, 341, 424, 220
183656156, 5224, 11871, -9955, 1059, 2054, 1951, -3534, -4217, -1142, -165, 104, 62, 57, 65, 93, 352, 533, 275
183656939, 5224, 11871, -9955, 1059, 2054, 1951, -3534, -4217, -1142, -165, 104, 62, 57, 65, 93, 352, 533, 275
183657906, 5766, 11565, -10067, 302, 1909, 2233, -3524, -5367, -1293, -36, 104, 62, 57, 65, 93, 352, 533, 275
183670453, 5766, 11565, -10067, 302, 1909, 2233, -3524, -5367, -1293, -36, 109, 91, 66, 66, 91, 352, 552, 297
183671263, 5766, 11565, -10067, 302, 1909, 2233, -3524, -5367, -1293, -36, 109, 91, 66, 66, 91, 352, 552, 297
183677430, 6385, 11138, -10164, -557, 1822, 2527, -3549, -6300, -1374, 104, 109, 91, 66, 66, 91, 352, 552, 297
183693724, 6385, 11138, -10164, -557, 1822, 2527, -3549, -6300, -1374, 104, 107, 110, 67, 70, 98, 350, 566, 287
183694480, 6385, 11138, -10164, -557, 1822, 2527, -3549, -6300, -1374, 104, 107, 110, 67, 70, 98, 350, 566, 287
183695415, 7039, 10627, -10184, -1494, 1736, 2455, -3539, -6992, -1389, -98, 107, 110, 67, 70, 98, 350, 566, 287
183716125, 7039, 10627, -10184, -1494, 1736, 2455, -3539, -6992, -1389, -98, 106, 111, 79, 75, 104, 304, 785, 288
183716938, 7039, 10627, -10184, -1494, 1736, 2455, -3539, -6992, -1389, -98, 106, 111, 79, 75, 104, 304, 785, 288
183717932, 7742, 9997, -10116, -2494, 1927, 2434, -3672, -7818, -1286, -183, 106, 111, 79, 75, 104, 304, 785, 288
183730464, 7742, 9997, -10116, -2494, 1927, 2434, -3672, -7818, -1286, -183, 100, 113, 81, 80, 195, 244, 840, 272
183731261, 7742, 9997, -10116, -2494, 1927, 2434, -3672, -7818, -1286, -183, 100, 113, 81, 80, 195, 244, 840, 272
183737411, 8411, 9305, -9958, -3455, 2333, 2106, -3263, -7858, -1112, -282, 100, 113, 81, 80, 195, 244, 840, 272
183753664, 8411, 9305, -9958, -3455, 2333, 2106, -3263, -7858, -1112, -282, 82, 111, 83, 88, 198, 270, 811, 235
183754444, 8411, 9305, -9958, -3455, 2333, 2106, -3263, -7858, -1112, -282, 82, 111, 83, 88, 198, 270, 811, 235
183755365, 8847, 8767, -9804, -4147, 2245, 890, -2822, -5775, -865, -363, 82, 111, 83, 88, 198, 270, 811, 235
183776170, 8847, 8767, -9804, -4147, 2245, 890, -2822, -5775, -865, -363, 87, 104, 89, 96, 229, 278, 816, 223
183776973, 8847, 8767, -9804, -4147, 2245, 890, -2822, -5775, -865, -363, 87, 104, 89, 96, 229, 278, 816, 223
183777890, 9033, 8453, -9748, -4512, 1857, 1583, -2330, -3039, -694, -104, 87, 104, 89, 96, 229, 278, 816, 223
183789766, 9033, 8453, -9748, -4512, 1857, 1583, -2330, -3039, -694, -104, 78, 93, 91, 99, 233, 242, 834, 217
183797963, 9033, 8453, -9748, -4512, 1857, 1583, -2330, -3039, -694, -104, 78, 93, 91, 99, 233, 242, 834, 217
183798955, 9021, 8318, -9813, -4642, 1841, 2705, -2182, -1459, -614, -156, 78, 93, 91, 99, 233, 242, 834, 217
183813685, 9021, 8318, -9813, -4642, 1841, 2705, -2182, -1459, -614, -156, 82, 94, 83, 101, 257, 231, 666, 227
183814481, 9021, 8318, -9813, -4642, 1841, 2705, -2182, -1459, -614, -156, 82, 94, 83, 101, 257, 231, 666, 227
183815365, 9089, 8150, -9793, -4848, 1929, 2681, -2083, -1613, -520, -125, 82, 94, 83, 101, 257, 231, 666, 227
183836165, 9089, 8150, -9793, -4848, 1929, 2681, -2083, -1613, -520, -125, 120, 93, 80, 91, 208, 233, 568, 240
183836962, 9089, 8150, -9793, -4848, 1929, 2681, -2083, -1613, -520, -125, 120, 93, 80, 91, 208, 233, 568, 240
183837956, 9126, 7988, -9848, -4934, 1982, 2118, -1986, -1568, -364, -74, 120, 93, 80, 91, 208, 233, 568, 240
183849807, 9126, 7988, -9848, -4934, 1982, 2118, -1986, -1568, -364, -74, 124, 97, 81, 84, 232, 199, 522, 246
183858011, 9126, 7988, -9848, -4934, 1982, 2118, -1986, -1568, -364, -74, 124, 97, 81, 84, 232, 199, 522, 246
183858916, 9120, 7894, -9927, -4941, 1982, 2113, -1862, -865, -267, -48, 124, 97, 81, 84, 232, 199, 522, 246
183873670, 9120, 7894, -9927, -4941, 1982, 2113, -1862, -865, -267, -48, 114, 88, 74, 84, 233, 163, 511, 232
183874456, 9120, 7894, -9927, -4941, 1982, 2113, -1862, -865, -267, -48, 114, 88, 74, 84, 233, 163, 511, 232
183875393, 9068, 7863, -10028, -4881, 1914, 2289, -1840, -235, -204, 17, 114, 88, 74, 84, 233, 163, 511, 232
183896167, 9068, 7863, -10028, -4881, 1914, 2289, -1840, -235, -204, 17, 116, 87, 70, 77, 229, 145, 480, 260
183896943, 9068, 7863, -10028, -4881, 1914, 2289, -1840, -235, -204, 17, 116, 87, 70, 77, 229, 145, 480, 260
183897890, 9021, 7840, -10120, -4814, 1840, 2519, -1735, -112, -151, 100, 116, 87, 70, 77, 229, 145, 480, 260
183918694, 9021, 7840, -10120, -4814, 1840, 2519, -1735, -112, -151, 100, 114, 89, 79, 84, 197, 149, 460, 274
183919442, 9021, 7840, -10120, -4814, 1840, 2519, -1735, -112, -151, 100, 114, 89, 79, 84, 197, 149, 460, 274
183920432, 8984, 7808, -10196, -4775, 1802, 2579, -1721, -266, -150, 60, 114, 89, 79, 84, 197, 149, 460, 274
183933663, 8984, 7808, -10196, -4775, 1802, 2579, -1721, -266, -150, 60, 72, 91, 85, 88, 188, 146, 412, 258
183934453, 8984, 7808, -10196, -4775, 1802, 2579, -1721, -266, -150, 60, 72, 91, 85, 88, 188, 146, 412, 258
183935364, 8950, 7775, -10276, -4721, 1879, 2329, -1784, -262, -113, 50, 72, 91, 85, 88, 188, 146, 412, 258
183956165, 8950, 7775, -10276, -4721, 1879, 2329, -1784, -262, -113, 50, 59, 111, 77, 87, 174, 118, 397, 238
183956963, 8950, 7775, -10276, -4721, 1879, 2329, -1784, -262, -113, 50, 59, 111, 77, 87, 174, 118, 397, 238
183957945, 8900, 7765, -10365, -4635, 1909, 2291, -1821, -17, -78, 59, 59, 111, 77, 87, 174, 118, 397, 238
183978661, 8900, 7765, -10365, -4635, 1909, 2291, -1821, -17, -78, 59, 66, 106, 73, 93, 212, 181, 368, 241
183979425, 8900, 7765, -10365, -4635, 1909, 2291, -1821, -17, -78, 59, 66, 106, 73, 93, 212, 181, 368, 241
183980341, 8844, 7767, -10451, -4544, 1909, 2527, -1770, 126, -76, 86, 66, 106, 73, 93, 212, 181, 368, 241
183993693, 8844, 7767, -10451, -4544, 1909, 2527, -1770, 126, -76, 86, 62, 101, 70, 93, 216, 191, 310, 192
183994434, 8844, 7767, -10451, -4544, 1909, 2527, -1770, 126, -76, 86, 62, 101, 70, 93, 216, 191, 310, 192
183995402, 8792, 7764, -10535, -4458, 1851, 2452, -1740, 106, -79, 115, 62, 101, 70, 93, 216, 191, 310, 192
184016138, 8792, 7764, -10535, -4458, 1851, 2452, -1740, 106, -79, 115, 56, 98, 55, 77, 218, 194, 247, 151
184016992, 8792, 7764, -10535, -4458, 1851, 2452, -1740, 106, -79, 115, 56, 98, 55, 77, 218, 194, 247, 151
184017912, 8728, 7766, -10628, -4357, 1863, 2340, -1784, 212, -107, 133, 56, 98, 55, 77, 218, 194, 247, 151
184038666, 8728, 7766, -10628, -4357, 1863, 2340, -1784, 212, -107, 133, 58, 98, 51, 78, 222, 194, 248, 165
184039469, 8728, 7766, -10628, -4357, 1863, 2340, -1784, 212, -107, 133, 58, 98, 51, 78, 222, 194, 248, 165
184040365, 8666, 7768, -10720, -4252, 1941, 2387, -1822, 244, -94, 138, 58, 98, 51, 78, 222, 194, 248, 165
