Timestamp, Orientation x, Orientation y, Orientation z, Orientation w, Acceleration x, Acceleration y, Acceleration z, Rotation x, Rotation y, Rotation z, EMG 0, EMG 1, EMG 2, EMG 3, EMG 4, EMG 5, EMG 6, EMG 7
420699769, 6429, 10826, -9099, 5207, 4005, 796, -2312, 42, -12, 13, 0, 0, 0, 0, 0, 0, 0, 0
420707263, 6425, 10830, -9097, 5204, 3981, 788, -2329, 17, -8, -14, 0, 0, 0, 0, 0, 0, 0, 0
420714710, 6425, 10831, -9097, 5202, 3992, 811, -2342, 3, -10, -8, 0, 0, 0, 0, 0, 0, 0, 0
420737309, 6424, 10834, -9099, 5194, 4026, 846, -2337, -7, -32, 10, 0, 0, 0, 0, 0, 0, 0, 0
420759725, 6417, 10839, -9104, 5184, 4034, 835, -2399, 7, -47, 17, 0, 0, 0, 0, 0, 0, 0, 0
420776104, 6417, 10839, -9104, 5184, 4034, 835, -2399, 7, -47, 17, 35, 29, 28, 26, 31, 36, 73, 99
420776894, 6417, 10839, -9104, 5184, 4034, 835, -2399, 7, -47, 17, 35, 29, 28, 26, 31, 36, 73, 99
420777842, 6425, 10868, -9106, 5112, 4027, 1021, -2622, -164, -171, -158, 35, 29, 28, 26, 31, 36, 73, 99
420790390, 6425, 10868, -9106, 5112, 4027, 1021, -2622, -164, -171, -158, 42, 32, 31, 26, 34, 41, 132, 130
420791191, 6425, 10868, -9106, 5112, 4027, 1021, -2622, -164, -171, -158, 42, 32, 31, 26, 34, 41, 132, 130
420797316, 6487, 10916, -9102, 4932, 3878, 1369, -2878, -602, -286, -441, 42, 32, 31, 26, 34, 41, 132, 130
420813574, 6487, 10916, -9102, 4932, 3878, 1369, -2878, -602, -286, -441, 74, 36, 32, 32, 44, 48, 144, 185
420814368, 6487, 10916, -9102, 4932, 3878, 1369, -2878, -602, -286, -441, 74, 36, 32, 32, 44, 48, 144, 185
420815291, 6536, 10960, -9137, 4699, 3690, 1348, -3010, -835, -530, -422, 74, 36, 32, 32, 44, 48, 144, 185
420836063, 6536, 10960, -9137, 4699, 3690, 1348, -3010, -835, -530, -422, 86, 44, 65, 36, 49, 50, 183, 230
420836838, 6536, 10960, -9137, 4699, 3690, 1348, -3010, -835, -530, -422, 86, 44, 65, 36, 49, 50, 183, 230
420837817, 6548, 11017, -9176, 4471, 3792, 1387, -3207, -691, -997, -560, 86, 44, 65, 36, 49, 50, 183, 230
420850363, 6548, 11017, -9176, 4471, 3792, 1387, -3207, -691, -997, -560, 92, 52, 79, 38, 58, 70, 243, 289
420851215, 6548, 11017, -9176, 4471, 3792, 1387, -3207, -691, -997, -560, 92, 52, 79, 38, 58, 70, 243, 289
420857340, 6540, 11093, -9216, 4202, 3771, 1526, -3583, -708, -1244, -681, 92, 52, 79, 38, 58, 70, 243, 289
420873569, 6540, 11093, -9216, 4202, 3771, 1526, -3583, -708, -1244, -681, 92, 56, 134, 46, 63, 73, 256, 310
420874395, 6540, 11093, -9216, 4202, 3771, 1526, -3583, -708, -1244, -681, 92, 56, 134, 46, 63, 73, 256, 310
420875315, 6497, 11225, -9236, 3861, 3612, 1738, -3534, -646, -1662, -1038, 92, 56, 134, 46, 63, 73, 256, 310
420896095, 6497, 11225, -9236, 3861, 3612, 1738, -3534, -646, -1662, -1038, 97, 69, 227, 53, 129, 76, 249, 352
420896876, 6497, 11225, -9236, 3861, 3612, 1738, -3534, -646, -1662, -1038, 97, 69, 227, 53, 129, 76, 249, 352
420897827, 6460, 11407, -9209, 3430, 3769, 2121, -3718, -777, -1950, -1584, 97, 69, 227, 53, 129, 76, 249, 352
420910360, 6460, 11407, -9209, 3430, 3769, 2121, -3718, -777, -1950, -1584, 78, 69, 243, 54, 128, 84, 257, 351
420911180, 6460, 11407, -9209, 3430, 3769, 2121, -3718, -777, -1950, -1584, 78, 69, 243, 54, 128, 84, 257, 351
420917312, 6433, 11637, -9128, 2883, 3859, 2293, -3608, -1014, -2308, -2216, 78, 69, 243, 54, 128, 84, 257, 351
420933547, 6433, 11637, -9128, 2883, 3859, 2293, -3608, -1014, -2308, -2216, 71, 74, 250, 55, 132, 122, 258, 363
420934368, 6433, 11637, -9128, 2883, 3859, 2293, -3608, -1014, -2308, -2216, 71, 74, 250, 55, 132, 122, 258, 363
420935291, 6410, 11898, -8980, 2267, 3890, 2402, -3427, -1110, -2455, -2739, 71, 74, 250, 55, 132, 122, 258, 363
420956062, 6410, 11898, -8980, 2267, 3890, 2402, -3427, -1110, -2455, -2739, 66, 72, 248, 59, 132, 161, 223, 346
420956914, 6410, 11898, -8980, 2267, 3890, 2402, -3427, -1110, -2455, -2739, 66, 72, 248, 59, 132, 161, 223, 346
420957817, 6358, 12189, -8764, 1621, 3950, 2471, -3373, -965, -2537, -3146, 66, 72, 248, 59, 132, 161, 223, 346
420970361, 6358, 12189, -8764, 1621, 3950, 2471, -3373, -965, -2537, -3146, 65, 71, 227, 59, 131, 183, 244, 330
420971176, 6358, 12189, -8764, 1621, 3950, 2471, -3373, -965, -2537, -3146, 65, 71, 227, 59, 131, 183, 244, 330
420977321, 6226, 12517, -8485, 988, 3963, 2480, -3155, -480, -2613, -3447, 65, 71, 227, 59, 131, 183, 244, 330
420993564, 6226, 12517, -8485, 988, 3963, 2480, -3155, -480, -2613, -3447, 55, 59, 141, 55, 138, 249, 303, 295
420994368, 6226, 12517, -8485, 988, 3963, 2480, -3155, -480, -2613, -3447, 55, 59, 141, 55, 138, 249, 303, 295
420995356, 6052, 12838, -8177, 358, 3980, 2777, -3009, -296, -2656, -3530, 55, 59, 141, 55, 138, 249, 303, 295
421016013, 6052, 12838, -8177, 358, 3980, 2777, -3009, -296, -2656, -3530, 54, 56, 111, 63, 151, 276, 326, 284
421016879, 6052, 12838, -8177, 358, 3980, 2777, -3009, -296, -2656, -3530, 54, 56, 111, 63, 151, 276, 326, 284
421017765, 5872, 13127, -7845, -279, 3999, 2812, -3001, -354, -2645, -3567, 54, 56, 111, 63, 151, 276, 326, 284
421030374, 5872, 13127, -7845, -279, 3999, 2812, -3001, -354, -2645, -3567, 56, 51, 90, 61, 155, 294, 379, 313
421031163, 5872, 13127, -7845, -279, 3999, 2812, -3001, -354, -2645, -3567, 56, 51, 90, 61, 155, 294, 379, 313
421037369, 5725, 13353, -7516, -926, 4021, 2672, -2875, -652, -2619, -3396, 56, 51, 90, 61, 155, 294, 379, 313
421053563, 5725, 13353, -7516, -926, 4021, 2672, -2875, -652, -2619, -3396, 56, 51, 227, 57, 176, 301, 437, 315
421054429, 5725, 13353, -7516, -926, 4021, 2672, -2875, -652, -2619, -3396, 56, 51, 227, 57, 176, 301, 437, 315
421055315, 5611, 13517, -7202, -1536, 3871, 2489, -2956, -827, -2410, -3084, 56, 51, 227, 57, 176, 301, 437, 315
421076064, 5611, 13517, -7202, -1536, 3871, 2489, -2956, -827, -2410, -3084, 71, 55, 374, 79, 221, 299, 454, 335
421076841, 5611, 13517, -7202, -1536, 3871, 2489, -2956, -827, -2410, -3084, 71, 55, 374, 79, 221, 299, 454, 335
421077828, 5526, 13617, -6941, -2072, 3646, 2191, -3068, -873, -2134, -2524, 71, 55, 374, 79, 221, 299, 454, 335
421090370, 5526, 13617, -6941, -2072, 3646, 2191, -3068, -873, -2134, -2524, 83, 63, 462, 95, 208, 272, 467, 355
421091219, 5526, 13617, -6941, -2072, 3646, 2191, -3068, -873, -2134, -2524, 83, 63, 462, 95, 208, 272, 467, 355
421097344, 5421, 13679, -6744, -2540, 3592, 1660, -2994, -643, -2009, -2024, 83, 63, 462, 95, 208, 272, 467, 355
421113595, 5421, 13679, -6744, -2540, 3592, 1660, -2994, -643, -2009, -2024, 108, 87, 487, 88, 206, 286, 459, 348
421114388, 5421, 13679, -6744, -2540, 3592, 1660, -2994, -643, -2009, -2024, 108, 87, 487, 88, 206, 286, 459, 348
421115356, 5329, 13707, -6587, -2957, 3813, 1303, -2957, -616, -1849, -1650, 108, 87, 487, 88, 206, 286, 459, 348
421136052, 5329, 13707, -6587, -2957, 3813, 1303, -2957, -616, -1849, -1650, 154, 150, 527, 92, 231, 266, 506, 317
421136896, 5329, 13707, -6587, -2957, 3813, 1303, -2957, -616, -1849, -1650, 154, 150, 527, 92, 231, 266, 506, 317
421137791, 5309, 13701, -6434, -3335, 3873, 868, -2809, -923, -1540, -1413, 154, 150, 527, 92, 231, 266, 506, 317
421150390, 5309, 13701, -6434, -3335, 3873, 868, -2809, -923, -1540, -1413, 179, 188, 490, 97, 221, 272, 540, 300
421151188, 5309, 13701, -6434, -3335, 3873, 868, -2809, -923, -1540, -1413, 179, 188, 490, 97, 221, 272, 540, 300
421157393, 5358, 13681, -6254, -3665, 3644, 727, -2753, -1192, -1136, -1341, 179, 188, 490, 97, 221, 272, 540, 300
421173549, 5358, 13681, -6254, -3665, 3644, 727, -2753, -1192, -1136, -1341, 237, 207, 424, 90, 194, 315, 550, 266
421174366, 5358, 13681, -6254, -3665, 3644, 727, -2753, -1192, -1136, -1341, 237, 207, 424, 90, 194, 315, 550, 266
421175294, 5366, 13682, -6081, -3930, 3185, 738, -2521, -821, -904, -1290, 237, 207, 424, 90, 194, 315, 550, 266
421196077, 5366, 13682, -6081, -3930, 3185, 738, -2521, -821, -904, -1290, 253, 237, 453, 101, 239, 308, 580, 268
421196855, 5366, 13682, -6081, -3930, 3185, 738, -2521, -821, -904, -1290, 253, 237, 453, 101, 239, 308, 580, 268
421197856, 5325, 13697, -5959, -4117, 2946, 608, -2466, -334, -711, -997, 253, 237, 453, 101, 239, 308, 580, 268
421210336, 5325, 13697, -5959, -4117, 2946, 608, -2466, -334, -711, -997, 257, 238, 435, 104, 238, 296, 733, 296
421211138, 5325, 13697, -5959, -4117, 2946, 608, -2466, -334, -711, -997, 257, 238, 435, 104, 238, 296, 733, 296
421217302, 5207, 13741, -5892, -4216, 2658, 1026, -2497, 339, -524, -748, 257, 238, 435, 104, 238, 296, 733, 296
421233537, 5207, 13741, -5892, -4216, 2658, 1026, -2497, 339, -524, -748, 288, 378, 448, 112, 211, 297, 784, 300
421234361, 5207, 13741, -5892, -4216, 2658, 1026, -2497, 339, -524, -748, 288, 378, 448, 112, 211, 297, 784, 300
421235297, 5124, 13767, -5850, -4290, 2466, 1511, -2638, 223, -402, -500, 288, 378, 448, 112, 211, 297, 784, 300
421256063, 5124, 13767, -5850, -4290, 2466, 1511, -2638, 223, -402, -500, 310, 418, 446, 109, 211, 297, 784, 305
421256928, 5124, 13767, -5850, -4290, 2466, 1511, -2638, 223, -402, -500, 310, 418, 446, 109, 211, 297, 784, 305
421257816, 5088, 13777, -5816, -4346, 2405, 1188, -2619, 23, -263, -330, 310, 418, 446, 109, 211, 297, 784, 305
421270371, 5088, 13777, -5816, -4346, 2405, 1188, -2619, 23, -263, -330, 271, 415, 443, 116, 197, 248, 870, 359
421271137, 5088, 13777, -5816, -4346, 2405, 1188, -2619, 23, -263, -330, 271, 415, 443, 116, 197, 248, 870, 359
421277327, 5064, 13815, -5916, -4114, 2225, 1455, -2583, 336, -193, -270, 271, 415, 443, 116, 197, 248, 870, 359
421293536, 5064, 13815, -5916, -4114, 2225, 1455, -2583, 336, -193, -270, 258, 398, 316, 92, 107, 258, 854, 336
421294379, 5064, 13815, -5916, -4114, 2225, 1455, -2583, 336, -193, -270, 258, 398, 316, 92, 107, 258, 854, 336
421295288, 5059, 13843, -6010, -3884, 2142, 1796, -2605, 355, -120, -224, 258, 398, 316, 92, 107, 258, 854, 336
421316024, 5059, 13843, -6010, -3884, 2142, 1796, -2605, 355, -120, -224, 252, 399, 307, 89, 96, 251, 745, 313
421316840, 5059, 13843, -6010, -3884, 2142, 1796, -2605, 355, -120, -224, 252, 399, 307, 89, 96, 251, 745, 313
421317767, 5085, 13855, -6101, -3661, 2123, 2057, -2644, 272, -83, -165, 252, 399, 307, 89, 96, 251, 745, 313
421330335, 5085, 13855, -6101, -3661, 2123, 2057, -2644, 272, -83, -165, 190, 243, 209, 81, 96, 281, 644, 335
421331168, 5085, 13855, -6101, -3661, 2123, 2057, -2644, 272, -83, -165, 190, 243, 209, 81, 96, 281, 644, 335
421337314, 5154, 13843, -6187, -3456, 2042, 2297, -2620, 86, -37, -70, 190, 243, 209, 81, 96, 281, 644, 335
421353574, 5154, 13843, -6187, -3456, 2042, 2297, -2620, 86, -37, -70, 129, 132, 210, 82, 78, 260, 628, 364
421354363, 5154, 13843, -6187, -3456, 2042, 2297, -2620, 86, -37, -70, 129, 132, 210, 82, 78, 260, 628, 364
421355356, 5268, 13812, -6259, -3277, 1990, 2445, -2538, -143, 0, -38, 129, 132, 210, 82, 78, 260, 628, 364
421376073, 5268, 13812, -6259, -3277, 1990, 2445, -2538, -143, 0, -38, 162, 135, 141, 58, 73, 257, 510, 333
421376840, 5268, 13812, -6259, -3277, 1990, 2445, -2538, -143, 0, -38, 162, 135, 141, 58, 73, 257, 510, 333
421377796, 5412, 13769, -6317, -3107, 2033, 2488, -2364, -265, 62, -51, 162, 135, 141, 58, 73, 257, 510, 333
421390386, 5412, 13769, -6317, -3107, 2033, 2488, -2364, -265, 62, -51, 155, 138, 134, 62, 74, 231, 493, 357
421391155, 5412, 13769, -6317, -3107, 2033, 2488, -2364, -265, 62, -51, 155, 138, 134, 62, 74, 231, 493, 357
421397316, 5608, 13705, -6350, -2969, 2058, 2896, -2075, -405, 90, -122, 155, 138, 134, 62, 74, 231, 493, 357
421413514, 5608, 13705, -6350, -2969, 2058, 2896, -2075, -405, 90, -122, 153, 152, 159, 72, 72, 204, 518, 370
421414327, 5608, 13705, -6350, -2969, 2058, 2896, -2075, -405, 90, -122, 153, 152, 159, 72, 72, 204, 518, 370
421415262, 5890, 13622, -6326, -2854, 2206, 3125, -1805, -810, 247, -345, 153, 152, 159, 72, 72, 204, 518, 370
421436066, 5890, 13622, -6326, -2854, 2206, 3125, -1805, -810, 247, -345, 156, 163, 446, 119, 82, 151, 547, 339
421436862, 5890, 13622, -6326, -2854, 2206, 3125, -1805, -810, 247, -345, 156, 163, 446, 119, 82, 151, 547, 339
421437831, 6247, 13539, -6220, -2720, 2350, 3150, -1594, -1179, 662, -659, 156, 163, 446, 119, 82, 151, 547, 339
421450363, 6247, 13539, -6220, -2720, 2350, 3150, -1594, -1179, 662, -659, 194, 168, 518, 147, 81, 154, 515, 389
421451230, 6247, 13539, -6220, -2720, 2350, 3150, -1594, -1179, 662, -659, 194, 168, 518, 147, 81, 154, 515, 389
421457348, 6635, 13469, -6039, -2553, 2694, 2797, -1646, -1520, 996, -1071, 194, 168, 518, 147, 81, 154, 515, 389
421473522, 6635, 13469, -6039, -2553, 2694, 2797, -1646, -1520, 996, -1071, 163, 196, 779, 228, 139, 145, 525, 375
421474344, 6635, 13469, -6039, -2553, 2694, 2797, -1646, -1520, 996, -1071, 163, 196, 779, 228, 139, 145, 525, 375
421475294, 6864, 13537, -5646, -2488, 3089, 2217, -1499, -1112, 1725, -1603, 163, 196, 779, 228, 139, 145, 525, 375
421496053, 6864, 13537, -5646, -2488, 3089, 2217, -1499, -1112, 1725, -1603, 171, 229, 849, 313, 161, 151, 521, 348
421496886, 6864, 13537, -5646, -2488, 3089, 2217, -1499, -1112, 1725, -1603, 171, 229, 849, 313, 161, 151, 521, 348
421497789, 6941, 13735, -5152, -2246, 3120, 2062, -1626, 156, 2590, -2033, 171, 229, 849, 313, 161, 151, 521, 348
421510321, 6941, 13735, -5152, -2246, 3120, 2062, -1626, 156, 2590, -2033, 176, 278, 1040, 487, 197, 169, 516, 333
421511138, 6941, 13735, -5152, -2246, 3120, 2062, -1626, 156, 2590, -2033, 176, 278, 1040, 487, 197, 169, 516, 333
421517342, 6870, 14035, -4555, -1870, 3058, 2063, -1979, 1249, 3289, -2495, 176, 278, 1040, 487, 197, 169, 516, 333
421533549, 6870, 14035, -4555, -1870, 3058, 2063, -1979, 1249, 3289, -2495, 172, 312, 1148, 559, 317, 173, 508, 317
421534345, 6870, 14035, -4555, -1870, 3058, 2063, -1979, 1249, 3289, -2495, 172, 312, 1148, 559, 317, 173, 508, 317
421535299, 6642, 14404, -3881, -1334, 2652, 2158, -2244, 2309, 3827, -2957, 172, 312, 1148, 559, 317, 173, 508, 317
421556088, 6348, 14760, -3104, -790, 2451, 2099, -2846, 2533, 4019, -3424, 172, 312, 1148, 559, 317, 173, 508, 317
421556888, 6348, 14760, -3104, -790, 2451, 2099, -2846, 2533, 4019, -3424, 133, 355, 1263, 726, 498, 194, 576, 196
421557735, 6348, 14760, -3104, -790, 2451, 2099, -2846, 2533, 4019, -3424, 133, 355, 1263, 726, 498, 194, 576, 196
421578548, 5977, 15081, -2278, -266, 2446, 2165, -3180, 2810, 3929, -3683, 133, 355, 1263, 726, 498, 194, 576, 196
421579367, 5977, 15081, -2278, -266, 2446, 2165, -3180, 2810, 3929, -3683, 129, 343, 1225, 740, 526, 228, 670, 179
421580214, 5977, 15081, -2278, -266, 2446, 2165, -3180, 2810, 3929, -3683, 129, 343, 1225, 740, 526, 228, 670, 179
421593543, 5649, 15310, -1435, 225, 2411, 2493, -3245, 2428, 3818, -3740, 129, 343, 1225, 740, 526, 228, 670, 179
421594384, 5649, 15310, -1435, 225, 2411, 2493, -3245, 2428, 3818, -3740, 131, 324, 1263, 736, 573, 301, 755, 202
421595185, 5649, 15310, -1435, 225, 2411, 2493, -3245, 2428, 3818, -3740, 131, 324, 1263, 736, 573, 301, 755, 202
421616072, 5409, 15437, -591, 706, 2324, 2006, -3630, 1696, 3834, -3706, 131, 324, 1263, 736, 573, 301, 755, 202
421616888, 5409, 15437, -591, 706, 2324, 2006, -3630, 1696, 3834, -3706, 138, 270, 1143, 666, 619, 419, 821, 349
421617687, 5409, 15437, -591, 706, 2324, 2006, -3630, 1696, 3834, -3706, 138, 270, 1143, 666, 619, 419, 821, 349
421638570, 5204, 15493, 199, 1121, 2061, 1643, -3555, 1331, 3442, -3503, 138, 270, 1143, 666, 619, 419, 821, 349
421639344, 5204, 15493, 199, 1121, 2061, 1643, -3555, 1331, 3442, -3503, 194, 243, 961, 618, 575, 439, 838, 445
421640174, 5204, 15493, 199, 1121, 2061, 1643, -3555, 1331, 3442, -3503, 194, 243, 961, 618, 575, 439, 838, 445
421653540, 4952, 15515, 865, 1556, 2336, 1729, -3555, 1495, 3323, -2806, 194, 243, 961, 618, 575, 439, 838, 445
421654385, 4952, 15515, 865, 1556, 2336, 1729, -3555, 1495, 3323, -2806, 197, 234, 839, 430, 433, 453, 823, 524
421655170, 4952, 15515, 865, 1556, 2336, 1729, -3555, 1495, 3323, -2806, 197, 234, 839, 430, 433, 453, 823, 524
421674781, 4793, 15483, 1376, 1957, 2288, 1349, -3994, 940, 3052, -1957, 197, 234, 839, 430, 433, 453, 823, 524
421682854, 4793, 15483, 1376, 1957, 2288, 1349, -3994, 940, 3052, -1957, 213, 230, 705, 374, 405, 446, 765, 546
421683669, 4793, 15483, 1376, 1957, 2288, 1349, -3994, 940, 3052, -1957, 213, 230, 705, 374, 405, 446, 765, 546
421699930, 4838, 15392, 1695, 2282, 2733, 720, -4363, -325, 2281, -1229, 213, 230, 705, 374, 405, 446, 765, 546
421700713, 4838, 15392, 1695, 2282, 2733, 720, -4363, -325, 2281, -1229, 155, 138, 134, 62, 74, 231, 493, 357
421701582, 4838, 15392, 1695, 2282, 2733, 720, -4363, -325, 2281, -1229, 155, 138, 134, 62, 74, 231, 493, 357
421702472, 5608, 13705, -6350, -2969, 2058, 2896, -2075, -405, 90, -122, 155, 138, 134, 62, 74, 231, 493, 357
421707454, 5608, 13705, -6350, -2969, 2058, 2896, -2075, -405, 90, -122, 153, 152, 159, 72, 72, 204, 518, 370
421708238, 5608, 13705, -6350, -2969, 2058, 2896, -2075, -405, 90, -122, 153, 152, 159, 72, 72, 204, 518, 370
421709104, 5608, 13705, -6350, -2969, 2058, 2896, -2075, -405, 90, -122, 153, 152, 159, 72, 72, 204, 518, 370
421709870, 5608, 13705, -6350, -2969, 2058, 2896, -2075, -405, 90, -122, 153, 152, 159, 72, 72, 204, 518, 370
421714813, 5608, 13705, -6350, -2969, 2058, 2896, -2075, -405, 90, -122, 153, 152, 159, 72, 72, 204, 518, 370
421715667, 5608, 13705, -6350, -2969, 2058, 2896, -2075, -405, 90, -122, 153, 152, 159, 72, 72, 204, 518, 370
421716426, 5608, 13705, -6350, -2969, 2058, 2896, -2075, -405, 90, -122, 153, 152, 159, 72, 72, 204, 518, 370
421717251, 5608, 13705, -6350, -2969, 2058, 2896, -2075, -405, 90, -122, 153, 152, 159, 72, 72, 204, 518, 370
421722375, 5608, 13705, -6350, -2969, 2058, 2896, -2075, -405, 90, -122, 153, 152, 159, 72, 72, 204, 518, 370
421723274, 5890, 13622, -6326, -2854, 2206, 3125, -1805, -810, 247, -345, 153, 152, 159, 72, 72, 204, 518, 370
421724102, 5890, 13622, -6326, -2854, 2206, 3125, -1805, -810, 247, -345, 156, 163, 446, 119, 82, 151, 547, 339
421724899, 5890, 13622, -6326, -2854, 2206, 3125, -1805, -810, 247, -345, 153, 152, 159, 72, 72, 204, 518, 370
421729914, 5890, 13622, -6326, -2854, 2206, 3125, -1805, -810, 247, -345, 156, 163, 446, 119, 82, 151, 547, 339
421730741, 5890, 13622, -6326, -2854, 2206, 3125, -1805, -810, 247, -345, 156, 163, 446, 119, 82, 151, 547, 339
421731540, 5890, 13622, -6326, -2854, 2206, 3125, -1805, -810, 247, -345, 156, 163, 446, 119, 82, 151, 547, 339
421732383, 5890, 13622, -6326, -2854, 2206, 3125, -1805, -810, 247, -345, 156, 163, 446, 119, 82, 151, 547, 339
421737363, 5890, 13622, -6326, -2854, 2206, 3125, -1805, -810, 247, -345, 156, 163, 446, 119, 82, 151, 547, 339
421738203, 5890, 13622, -6326, -2854, 2206, 3125, -1805, -810, 247, -345, 156, 163, 446, 119, 82, 151, 547, 339
421738990, 5890, 13622, -6326, -2854, 2206, 3125, -1805, -810, 247, -345, 156, 163, 446, 119, 82, 151, 547, 339
421739816, 5890, 13622, -6326, -2854, 2206, 3125, -1805, -810, 247, -345, 156, 163, 446, 119, 82, 151, 547, 339
421744942, 6247, 13539, -6220, -2720, 2350, 3150, -1594, -1179, 662, -659, 156, 163, 446, 119, 82, 151, 547, 339
421745759, 6247, 13539, -6220, -2720, 2350, 3150, -1594, -1179, 662, -659, 194, 168, 518, 147, 81, 154, 515, 389
421746592, 6247, 13539, -6220, -2720, 2350, 3150, -1594, -1179, 662, -659, 194, 168, 518, 147, 81, 154, 515, 389
421747389, 6247, 13539, -6220, -2720, 2350, 3150, -1594, -1179, 662, -659, 194, 168, 518, 147, 81, 154, 515, 389
421752342, 6247, 13539, -6220, -2720, 2350, 3150, -1594, -1179, 662, -659, 194, 168, 518, 147, 81, 154, 515, 389
421753137, 6247, 13539, -6220, -2720, 2350, 3150, -1594, -1179, 662, -659, 194, 168, 518, 147, 81, 154, 515, 389
421754004, 6247, 13539, -6220, -2720, 2350, 3150, -1594, -1179, 662, -659, 194, 168, 518, 147, 81, 154, 515, 389
421754763, 6247, 13539, -6220, -2720, 2350, 3150, -1594, -1179, 662, -659, 194, 168, 518, 147, 81, 154, 515, 389
421759878, 6247, 13539, -6220, -2720, 2350, 3150, -1594, -1179, 662, -659, 194, 168, 518, 147, 81, 154, 515, 389
421760765, 6635, 13469, -6039, -2553, 2694, 2797, -1646, -1520, 996, -1071, 194, 168, 518, 147, 81, 154, 515, 389
421761689, 6635, 13469, -6039, -2553, 2694, 2797, -1646, -1520, 996, -1071, 163, 196, 779, 228, 139, 145, 525, 375
421762340, 6635, 13469, -6039, -2553, 2694, 2797, -1646, -1520, 996, -1071, 163, 196, 779, 228, 139, 145, 525, 375
421767455, 6635, 13469, -6039, -2553, 2694, 2797, -1646, -1520, 996, -1071, 163, 196, 779, 228, 139, 145, 525, 375
421768213, 6635, 13469, -6039, -2553, 2694, 2797, -1646, -1520, 996, -1071, 163, 196, 779, 228, 139, 145, 525, 375
421769067, 6635, 13469, -6039, -2553, 2694, 2797, -1646, -1520, 996, -1071, 163, 196, 779, 228, 139, 145, 525, 375
421769862, 6635, 13469, -6039, -2553, 2694, 2797, -1646, -1520, 996, -1071, 163, 196, 779, 228, 139, 145, 525, 375
421774794, 6635, 13469, -6039, -2553, 2694, 2797, -1646, -1520, 996, -1071, 163, 196, 779, 228, 139, 145, 525, 375
421775663, 6635, 13469, -6039, -2553, 2694, 2797, -1646, -1520, 996, -1071, 163, 196, 779, 228, 139, 145, 525, 375
421776463, 6635, 13469, -6039, -2553, 2694, 2797, -1646, -1520, 996, -1071, 163, 196, 779, 228, 139, 145, 525, 375
421777253, 6635, 13469, -6039, -2553, 2694, 2797, -1646, -1520, 996, -1071, 163, 196, 779, 228, 139, 145, 525, 375
421782351, 6635, 13469, -6039, -2553, 2694, 2797, -1646, -1520, 996, -1071, 163, 196, 779, 228, 139, 145, 525, 375
421783241, 6864, 13537, -5646, -2488, 3089, 2217, -1499, -1112, 1725, -1603, 163, 196, 779, 228, 139, 145, 525, 375
421784071, 6864, 13537, -5646, -2488, 3089, 2217, -1499, -1112, 1725, -1603, 171, 229, 849, 313, 161, 151, 521, 348
421784912, 6864, 13537, -5646, -2488, 3089, 2217, -1499, -1112, 1725, -1603, 171, 229, 849, 313, 161, 151, 521, 348
421789961, 6864, 13537, -5646, -2488, 3089, 2217, -1499, -1112, 1725, -1603, 171, 229, 849, 313, 161, 151, 521, 348
421790763, 6864, 13537, -5646, -2488, 3089, 2217, -1499, -1112, 1725, -1603, 171, 229, 849, 313, 161, 151, 521, 348
421791592, 6864, 13537, -5646, -2488, 3089, 2217, -1499, -1112, 1725, -1603, 171, 229, 849, 313, 161, 151, 521, 348
421792393, 6864, 13537, -5646, -2488, 3089, 2217, -1499, -1112, 1725, -1603, 171, 229, 849, 313, 161, 151, 521, 348
421797336, 6864, 13537, -5646, -2488, 3089, 2217, -1499, -1112, 1725, -1603, 171, 229, 849, 313, 161, 151, 521, 348
421798136, 6864, 13537, -5646, -2488, 3089, 2217, -1499, -1112, 1725, -1603, 171, 229, 849, 313, 161, 151, 521, 348
421799002, 6864, 13537, -5646, -2488, 3089, 2217, -1499, -1112, 1725, -1603, 171, 229, 849, 313, 161, 151, 521, 348
421799788, 6864, 13537, -5646, -2488, 3089, 2217, -1499, -1112, 1725, -1603, 171, 229, 849, 313, 161, 151, 521, 348
421805006, 6941, 13735, -5152, -2246, 3120, 2062, -1626, 156, 2590, -2033, 171, 229, 849, 313, 161, 151, 521, 348
421805788, 6941, 13735, -5152, -2246, 3120, 2062, -1626, 156, 2590, -2033, 176, 278, 1040, 487, 197, 169, 516, 333
421806703, 6941, 13735, -5152, -2246, 3120, 2062, -1626, 156, 2590, -2033, 176, 278, 1040, 487, 197, 169, 516, 333
421807366, 6941, 13735, -5152, -2246, 3120, 2062, -1626, 156, 2590, -2033, 176, 278, 1040, 487, 197, 169, 516, 333
421812340, 6941, 13735, -5152, -2246, 3120, 2062, -1626, 156, 2590, -2033, 176, 278, 1040, 487, 197, 169, 516, 333
421813113, 6941, 13735, -5152, -2246, 3120, 2062, -1626, 156, 2590, -2033, 176, 278, 1040, 487, 197, 169, 516, 333
421813967, 6941, 13735, -5152, -2246, 3120, 2062, -1626, 156, 2590, -2033, 176, 278, 1040, 487, 197, 169, 516, 333
421814737, 6941, 13735, -5152, -2246, 3120, 2062, -1626, 156, 2590, -2033, 176, 278, 1040, 487, 197, 169, 516, 333
421819841, 6941, 13735, -5152, -2246, 3120, 2062, -1626, 156, 2590, -2033, 176, 278, 1040, 487, 197, 169, 516, 333
421820765, 6870, 14035, -4555, -1870, 3058, 2063, -1979, 1249, 3289, -2495, 176, 278, 1040, 487, 197, 169, 516, 333
421821594, 6870, 14035, -4555, -1870, 3058, 2063, -1979, 1249, 3289, -2495, 172, 312, 1148, 559, 317, 173, 508, 317
421822388, 6870, 14035, -4555, -1870, 3058, 2063, -1979, 1249, 3289, -2495, 172, 312, 1148, 559, 317, 173, 508, 317
421827417, 6870, 14035, -4555, -1870, 3058, 2063, -1979, 1249, 3289, -2495, 172, 312, 1148, 559, 317, 173, 508, 317
421828226, 6870, 14035, -4555, -1870, 3058, 2063, -1979, 1249, 3289, -2495, 172, 312, 1148, 559, 317, 173, 508, 317
421829053, 6870, 14035, -4555, -1870, 3058, 2063, -1979, 1249, 3289, -2495, 172, 312, 1148, 559, 317, 173, 508, 317
421829838, 6870, 14035, -4555, -1870, 3058, 2063, -1979, 1249, 3289, -2495, 172, 312, 1148, 559, 317, 173, 508, 317
421834703, 6870, 14035, -4555, -1870, 3058, 2063, -1979, 1249, 3289, -2495, 172, 312, 1148, 559, 317, 173, 508, 317
421835422, 6870, 14035, -4555, -1870, 3058, 2063, -1979, 1249, 3289, -2495, 172, 312, 1148, 559, 317, 173, 508, 317
421836276, 6870, 14035, -4555, -1870, 3058, 2063, -1979, 1249, 3289, -2495, 172, 312, 1148, 559, 317, 173, 508, 317
421837038, 6870, 14035, -4555, -1870, 3058, 2063, -1979, 1249, 3289, -2495, 172, 312, 1148, 559, 317, 173, 508, 317
421842349, 6870, 14035, -4555, -1870, 3058, 2063, -1979, 1249, 3289, -2495, 172, 312, 1148, 559, 317, 173, 508, 317
421843276, 6642, 14404, -3881, -1334, 2652, 2158, -2244, 2309, 3827, -2957, 172, 312, 1148, 559, 317, 173, 508, 317
421844090, 6348, 14760, -3104, -790, 2451, 2099, -2846, 2533, 4019, -3424, 172, 312, 1148, 559, 317, 173, 508, 317
421844932, 6348, 14760, -3104, -790, 2451, 2099, -2846, 2533, 4019, -3424, 133, 355, 1263, 726, 498, 194, 576, 196
421849929, 6348, 14760, -3104, -790, 2451, 2099, -2846, 2533, 4019, -3424, 133, 355, 1263, 726, 498, 194, 576, 196
421850737, 6348, 14760, -3104, -790, 2451, 2099, -2846, 2533, 4019, -3424, 133, 355, 1263, 726, 498, 194, 576, 196
421851540, 6348, 14760, -3104, -790, 2451, 2099, -2846, 2533, 4019, -3424, 133, 355, 1263, 726, 498, 194, 576, 196
421852362, 6348, 14760, -3104, -790, 2451, 2099, -2846, 2533, 4019, -3424, 133, 355, 1263, 726, 498, 194, 576, 196
421857330, 6348, 14760, -3104, -790, 2451, 2099, -2846, 2533, 4019, -3424, 133, 355, 1263, 726, 498, 194, 576, 196
421858134, 6348, 14760, -3104, -790, 2451, 2099, -2846, 2533, 4019, -3424, 133, 355, 1263, 726, 498, 194, 576, 196
421858961, 6348, 14760, -3104, -790, 2451, 2099, -2846, 2533, 4019, -3424, 133, 355, 1263, 726, 498, 194, 576, 196
421859815, 6348, 14760, -3104, -790, 2451, 2099, -2846, 2533, 4019, -3424, 133, 355, 1263, 726, 498, 194, 576, 196
421864838, 6348, 14760, -3104, -790, 2451, 2099, -2846, 2533, 4019, -3424, 133, 355, 1263, 726, 498, 194, 576, 196
421865788, 5977, 15081, -2278, -266, 2446, 2165, -3180, 2810, 3929, -3683, 133, 355, 1263, 726, 498, 194, 576, 196
421866660, 5977, 15081, -2278, -266, 2446, 2165, -3180, 2810, 3929, -3683, 129, 343, 1225, 740, 526, 228, 670, 179
421867405, 5977, 15081, -2278, -266, 2446, 2165, -3180, 2810, 3929, -3683, 129, 343, 1225, 740, 526, 228, 670, 179
421872413, 5977, 15081, -2278, -266, 2446, 2165, -3180, 2810, 3929, -3683, 129, 343, 1225, 740, 526, 228, 670, 179
421873250, 5977, 15081, -2278, -266, 2446, 2165, -3180, 2810, 3929, -3683, 129, 343, 1225, 740, 526, 228, 670, 179
421874037, 5977, 15081, -2278, -266, 2446, 2165, -3180, 2810, 3929, -3683, 129, 343, 1225, 740, 526, 228, 670, 179
421874854, 5977, 15081, -2278, -266, 2446, 2165, -3180, 2810, 3929, -3683, 129, 343, 1225, 740, 526, 228, 670, 179
421879807, 5977, 15081, -2278, -266, 2446, 2165, -3180, 2810, 3929, -3683, 129, 343, 1225, 740, 526, 228, 670, 179
421880663, 5977, 15081, -2278, -266, 2446, 2165, -3180, 2810, 3929, -3683, 129, 343, 1225, 740, 526, 228, 670, 179
421881470, 5977, 15081, -2278, -266, 2446, 2165, -3180, 2810, 3929, -3683, 129, 343, 1225, 740, 526, 228, 670, 179
421882264, 5977, 15081, -2278, -266, 2446, 2165, -3180, 2810, 3929, -3683, 102, 112, 313, 103, 135, 181, 381, 127
421884666, 5977, 15081, -2278, -266, 2446, 2165, -3180, 2810, 3929, -3683, 102, 112, 313, 103, 135, 181, 381, 127
421892346, 4412, 15280, 1660, 3563, 2350, 1660, -3354, 56, -221, 637, 102, 112, 313, 103, 135, 181, 381, 127
421900324, 4412, 15280, 1660, 3563, 2350, 1660, -3354, 56, -221, 637, 96, 99, 289, 95, 121, 148, 362, 123
421901145, 4412, 15280, 1660, 3563, 2350, 1660, -3354, 56, -221, 637, 96, 99, 289, 95, 121, 148, 362, 123
421914700, 4318, 15306, 1524, 3631, 2307, 1736, -3324, 76, -138, 598, 96, 99, 289, 95, 121, 148, 362, 123
421922890, 4318, 15306, 1524, 3631, 2307, 1736, -3324, 76, -138, 598, 78, 87, 246, 70, 70, 157, 304, 101
421923663, 4318, 15306, 1524, 3631, 2307, 1736, -3324, 76, -138, 598, 78, 87, 246, 70, 70, 157, 304, 101
421938568, 4238, 15324, 1400, 3695, 2226, 1677, -3297, 10, -93, 552, 78, 87, 246, 70, 70, 157, 304, 101
421939365, 4238, 15324, 1400, 3695, 2226, 1677, -3297, 10, -93, 552, 75, 82, 230, 65, 75, 157, 301, 115
421940179, 4238, 15324, 1400, 3695, 2226, 1677, -3297, 10, -93, 552, 75, 82, 230, 65, 75, 157, 301, 115
421952165, 4159, 15346, 1275, 3739, 2244, 1582, -3301, -4, -191, 527, 75, 82, 230, 65, 75, 157, 301, 115
421960378, 4159, 15346, 1275, 3739, 2244, 1582, -3301, -4, -191, 527, 51, 72, 171, 49, 63, 142, 283, 107
421961146, 4159, 15346, 1275, 3739, 2244, 1582, -3301, -4, -191, 527, 51, 72, 171, 49, 63, 142, 283, 107
421974735, 4087, 15365, 1139, 3785, 2313, 1522, -3248, -40, -219, 564, 51, 72, 171, 49, 63, 142, 283, 107
421982826, 4087, 15365, 1139, 3785, 2313, 1522, -3248, -40, -219, 564, 46, 47, 146, 34, 63, 133, 263, 101
421983672, 4087, 15365, 1139, 3785, 2313, 1522, -3248, -40, -219, 564, 46, 47, 146, 34, 63, 133, 263, 101
421998567, 4028, 15378, 997, 3835, 2351, 1554, -3243, -98, -203, 607, 46, 47, 146, 34, 63, 133, 263, 101
421999344, 4028, 15378, 997, 3835, 2351, 1554, -3243, -98, -203, 607, 39, 37, 98, 34, 64, 127, 234, 93
422000160, 4028, 15378, 997, 3835, 2351, 1554, -3243, -98, -203, 607, 39, 37, 98, 34, 64, 127, 234, 93
422012188, 3975, 15388, 850, 3887, 2377, 1467, -3200, -144, -200, 622, 39, 37, 98, 34, 64, 127, 234, 93
422020338, 3975, 15388, 850, 3887, 2377, 1467, -3200, -144, -200, 622, 38, 34, 89, 28, 62, 99, 260, 90
422021112, 3975, 15388, 850, 3887, 2377, 1467, -3200, -144, -200, 622, 38, 34, 89, 28, 62, 99, 260, 90
422034698, 3935, 15391, 679, 3948, 2477, 1427, -3234, -270, -194, 720, 38, 34, 89, 28, 62, 99, 260, 90
422042890, 3935, 15391, 679, 3948, 2477, 1427, -3234, -270, -194, 720, 42, 29, 78, 33, 49, 76, 249, 53
422043684, 3935, 15391, 679, 3948, 2477, 1427, -3234, -270, -194, 720, 42, 29, 78, 33, 49, 76, 249, 53
