Timestamp, Orientation x, Orientation y, Orientation z, Orientation w, Acceleration x, Acceleration y, Acceleration z, Rotation x, Rotation y, Rotation z, EMG 0, EMG 1, EMG 2, EMG 3, EMG 4, EMG 5, EMG 6, EMG 7
367639679, 5766, 5922, -11532, 8193, 4010, 781, -2310, 31, -5, -12, 0, 0, 0, 0, 0, 0, 0, 0
367640487, 5766, 5927, -11527, 8197, 3990, 764, -2326, 39, 2, -21, 0, 0, 0, 0, 0, 0, 0, 0
367661440, 5765, 5934, -11520, 8202, 3981, 772, -2322, 55, 1, -29, 0, 0, 0, 0, 0, 0, 0, 0
367683985, 5764, 5940, -11515, 8206, 3969, 792, -2324, 45, -5, -27, 0, 0, 0, 0, 0, 0, 0, 0
367698967, 5763, 5946, -11510, 8209, 4005, 832, -2363, 37, -6, -24, 0, 0, 0, 0, 0, 0, 0, 0
367707055, 5763, 5946, -11510, 8209, 4005, 832, -2363, 37, -6, -24, 22, 24, 20, 27, 30, 32, 44, 33
367707864, 5763, 5946, -11510, 8209, 4005, 832, -2363, 37, -6, -24, 22, 24, 20, 27, 30, 32, 44, 33
367721428, 5764, 5951, -11507, 8208, 4077, 902, -2473, 11, -5, -30, 22, 24, 20, 27, 30, 32, 44, 33
367729589, 5764, 5951, -11507, 8208, 4077, 902, -2473, 11, -5, -30, 24, 31, 25, 28, 31, 31, 45, 42
367730454, 5764, 5951, -11507, 8208, 4077, 902, -2473, 11, -5, -30, 24, 31, 25, 28, 31, 31, 45, 42
367743915, 5783, 5968, -11513, 8174, 4097, 976, -2561, -154, -57, -177, 24, 31, 25, 28, 31, 31, 45, 42
367752129, 5783, 5968, -11513, 8174, 4097, 976, -2561, -154, -57, -177, 26, 27, 24, 22, 32, 28, 51, 44
367752889, 5783, 5968, -11513, 8174, 4097, 976, -2561, -154, -57, -177, 26, 27, 24, 22, 32, 28, 51, 44
367767813, 5814, 5985, -11525, 8122, 3998, 986, -2564, -270, -55, -235, 26, 27, 24, 22, 32, 28, 51, 44
367768663, 5814, 5985, -11525, 8122, 3998, 986, -2564, -270, -55, -235, 29, 28, 22, 26, 30, 31, 49, 45
367769393, 5814, 5985, -11525, 8122, 3998, 986, -2564, -270, -55, -235, 29, 28, 22, 26, 30, 31, 49, 45
367781473, 5834, 6012, -11530, 8081, 3968, 862, -2530, -158, -87, -232, 29, 28, 22, 26, 30, 31, 49, 45
367789608, 5834, 6012, -11530, 8081, 3968, 862, -2530, -158, -87, -232, 42, 32, 32, 26, 33, 32, 49, 59
367790392, 5834, 6012, -11530, 8081, 3968, 862, -2530, -158, -87, -232, 42, 32, 32, 26, 33, 32, 49, 59
367803941, 5826, 6070, -11534, 8038, 3917, 1075, -2551, -48, -292, -283, 42, 32, 32, 26, 33, 32, 49, 59
367812067, 5826, 6070, -11534, 8038, 3917, 1075, -2551, -48, -292, -283, 55, 47, 84, 33, 30, 32, 56, 87
367812863, 5826, 6070, -11534, 8038, 3917, 1075, -2551, -48, -292, -283, 55, 47, 84, 33, 30, 32, 56, 87
367827772, 5830, 6145, -11557, 7944, 4018, 1337, -2900, -296, -428, -446, 55, 47, 84, 33, 30, 32, 56, 87
367828551, 5830, 6145, -11557, 7944, 4018, 1337, -2900, -296, -428, -446, 76, 72, 99, 38, 37, 34, 61, 127
367829364, 5830, 6145, -11557, 7944, 4018, 1337, -2900, -296, -428, -446, 76, 72, 99, 38, 37, 34, 61, 127
367841533, 5838, 6247, -11577, 7830, 3853, 1412, -3032, -319, -528, -612, 76, 72, 99, 38, 37, 34, 61, 127
367849563, 5838, 6247, -11577, 7830, 3853, 1412, -3032, -319, -528, -612, 113, 130, 105, 40, 37, 39, 57, 135
367850354, 5838, 6247, -11577, 7830, 3853, 1412, -3032, -319, -528, -612, 113, 130, 105, 40, 37, 39, 57, 135
367863938, 5846, 6438, -11564, 7685, 3797, 1397, -3271, -173, -763, -1092, 113, 130, 105, 40, 37, 39, 57, 135
367872065, 5846, 6438, -11564, 7685, 3797, 1397, -3271, -173, -763, -1092, 134, 156, 122, 42, 43, 54, 60, 161
367872867, 5846, 6438, -11564, 7685, 3797, 1397, -3271, -173, -763, -1092, 134, 156, 122, 42, 43, 54, 60, 161
367889238, 5851, 6708, -11523, 7510, 3742, 1668, -3530, -57, -993, -1520, 134, 156, 122, 42, 43, 54, 60, 161
367890012, 5851, 6708, -11523, 7510, 3742, 1668, -3530, -57, -993, -1520, 134, 156, 122, 42, 43, 54, 60, 161
367890857, 5766, 5922, -11532, 8193, 4010, 781, -2310, 31, -5, -12, 134, 156, 122, 42, 43, 54, 60, 161
367891677, 5766, 5927, -11527, 8197, 3990, 764, -2326, 39, 2, -21, 134, 156, 122, 42, 43, 54, 60, 161
367896671, 5765, 5934, -11520, 8202, 3981, 772, -2322, 55, 1, -29, 134, 156, 122, 42, 43, 54, 60, 161
367897468, 5764, 5940, -11515, 8206, 3969, 792, -2324, 45, -5, -27, 134, 156, 122, 42, 43, 54, 60, 161
367898312, 5763, 5946, -11510, 8209, 4005, 832, -2363, 37, -6, -24, 134, 156, 122, 42, 43, 54, 60, 161
367899129, 5763, 5946, -11510, 8209, 4005, 832, -2363, 37, -6, -24, 22, 24, 20, 27, 30, 32, 44, 33
367904151, 5763, 5946, -11510, 8209, 4005, 832, -2363, 37, -6, -24, 24, 31, 25, 28, 31, 31, 45, 42
367904962, 5763, 5946, -11510, 8209, 4005, 832, -2363, 37, -6, -24, 24, 31, 25, 28, 31, 31, 45, 42
367905788, 5763, 5946, -11510, 8209, 4005, 832, -2363, 37, -6, -24, 24, 31, 25, 28, 31, 31, 45, 42
367906672, 5763, 5946, -11510, 8209, 4005, 832, -2363, 37, -6, -24, 24, 31, 25, 28, 31, 31, 45, 42
367911518, 5763, 5946, -11510, 8209, 4005, 832, -2363, 37, -6, -24, 24, 31, 25, 28, 31, 31, 45, 42
367912344, 5763, 5946, -11510, 8209, 4005, 832, -2363, 37, -6, -24, 24, 31, 25, 28, 31, 31, 45, 42
367913162, 5763, 5946, -11510, 8209, 4005, 832, -2363, 37, -6, -24, 24, 31, 25, 28, 31, 31, 45, 42
367913962, 5763, 5946, -11510, 8209, 4005, 832, -2363, 37, -6, -24, 24, 31, 25, 28, 31, 31, 45, 42
367919063, 5763, 5946, -11510, 8209, 4005, 832, -2363, 37, -6, -24, 24, 31, 25, 28, 31, 31, 45, 42
367920031, 5783, 5968, -11513, 8174, 4097, 976, -2561, -154, -57, -177, 24, 31, 25, 28, 31, 31, 45, 42
367920813, 5783, 5968, -11513, 8174, 4097, 976, -2561, -154, -57, -177, 26, 27, 24, 22, 32, 28, 51, 44
367921676, 5783, 5968, -11513, 8174, 4097, 976, -2561, -154, -57, -177, 26, 27, 24, 22, 32, 28, 51, 44
367926663, 5783, 5968, -11513, 8174, 4097, 976, -2561, -154, -57, -177, 26, 27, 24, 22, 32, 28, 51, 44
367927481, 5783, 5968, -11513, 8174, 4097, 976, -2561, -154, -57, -177, 26, 27, 24, 22, 32, 28, 51, 44
367928263, 5783, 5968, -11513, 8174, 4097, 976, -2561, -154, -57, -177, 26, 27, 24, 22, 32, 28, 51, 44
367929116, 5783, 5968, -11513, 8174, 4097, 976, -2561, -154, -57, -177, 26, 27, 24, 22, 32, 28, 51, 44
367934038, 5783, 5968, -11513, 8174, 4097, 976, -2561, -154, -57, -177, 26, 27, 24, 22, 32, 28, 51, 44
367934850, 5783, 5968, -11513, 8174, 4097, 976, -2561, -154, -57, -177, 26, 27, 24, 22, 32, 28, 51, 44
367935662, 5783, 5968, -11513, 8174, 4097, 976, -2561, -154, -57, -177, 26, 27, 24, 22, 32, 28, 51, 44
367936463, 5783, 5968, -11513, 8174, 4097, 976, -2561, -154, -57, -177, 26, 27, 24, 22, 32, 28, 51, 44
367941537, 5783, 5968, -11513, 8174, 4097, 976, -2561, -154, -57, -177, 26, 27, 24, 22, 32, 28, 51, 44
367942498, 5814, 5985, -11525, 8122, 3998, 986, -2564, -270, -55, -235, 26, 27, 24, 22, 32, 28, 51, 44
367943287, 5814, 5985, -11525, 8122, 3998, 986, -2564, -270, -55, -235, 29, 28, 22, 26, 30, 31, 49, 45
367944104, 5814, 5985, -11525, 8122, 3998, 986, -2564, -270, -55, -235, 29, 28, 22, 26, 30, 31, 49, 45
367949113, 5814, 5985, -11525, 8122, 3998, 986, -2564, -270, -55, -235, 29, 28, 22, 26, 30, 31, 49, 45
367949940, 5814, 5985, -11525, 8122, 3998, 986, -2564, -270, -55, -235, 29, 28, 22, 26, 30, 31, 49, 45
367950737, 5814, 5985, -11525, 8122, 3998, 986, -2564, -270, -55, -235, 29, 28, 22, 26, 30, 31, 49, 45
367951594, 5814, 5985, -11525, 8122, 3998, 986, -2564, -270, -55, -235, 29, 28, 22, 26, 30, 31, 49, 45
367956587, 5814, 5985, -11525, 8122, 3998, 986, -2564, -270, -55, -235, 29, 28, 22, 26, 30, 31, 49, 45
367957365, 5814, 5985, -11525, 8122, 3998, 986, -2564, -270, -55, -235, 29, 28, 22, 26, 30, 31, 49, 45
367958188, 5814, 5985, -11525, 8122, 3998, 986, -2564, -270, -55, -235, 29, 28, 22, 26, 30, 31, 49, 45
367959040, 5814, 5985, -11525, 8122, 3998, 986, -2564, -270, -55, -235, 29, 28, 22, 26, 30, 31, 49, 45
367964091, 5814, 5985, -11525, 8122, 3998, 986, -2564, -270, -55, -235, 29, 28, 22, 26, 30, 31, 49, 45
367965012, 5834, 6012, -11530, 8081, 3968, 862, -2530, -158, -87, -232, 29, 28, 22, 26, 30, 31, 49, 45
367965829, 5834, 6012, -11530, 8081, 3968, 862, -2530, -158, -87, -232, 42, 32, 32, 26, 33, 32, 49, 59
367966663, 5834, 6012, -11530, 8081, 3968, 862, -2530, -158, -87, -232, 42, 32, 32, 26, 33, 32, 49, 59
367971669, 5834, 6012, -11530, 8081, 3968, 862, -2530, -158, -87, -232, 42, 32, 32, 26, 33, 32, 49, 59
367972465, 5834, 6012, -11530, 8081, 3968, 862, -2530, -158, -87, -232, 42, 32, 32, 26, 33, 32, 49, 59
367973313, 5834, 6012, -11530, 8081, 3968, 862, -2530, -158, -87, -232, 42, 32, 32, 26, 33, 32, 49, 59
367974089, 5834, 6012, -11530, 8081, 3968, 862, -2530, -158, -87, -232, 42, 32, 32, 26, 33, 32, 49, 59
367979065, 5834, 6012, -11530, 8081, 3968, 862, -2530, -158, -87, -232, 42, 32, 32, 26, 33, 32, 49, 59
367979885, 5834, 6012, -11530, 8081, 3968, 862, -2530, -158, -87, -232, 42, 32, 32, 26, 33, 32, 49, 59
367980662, 5834, 6012, -11530, 8081, 3968, 862, -2530, -158, -87, -232, 42, 32, 32, 26, 33, 32, 49, 59
367981521, 5834, 6012, -11530, 8081, 3968, 862, -2530, -158, -87, -232, 42, 32, 32, 26, 33, 32, 49, 59
367986558, 5834, 6012, -11530, 8081, 3968, 862, -2530, -158, -87, -232, 42, 32, 32, 26, 33, 32, 49, 59
367987465, 5826, 6070, -11534, 8038, 3917, 1075, -2551, -48, -292, -283, 42, 32, 32, 26, 33, 32, 49, 59
367988292, 5826, 6070, -11534, 8038, 3917, 1075, -2551, -48, -292, -283, 55, 47, 84, 33, 30, 32, 56, 87
367989084, 5826, 6070, -11534, 8038, 3917, 1075, -2551, -48, -292, -283, 55, 47, 84, 33, 30, 32, 56, 87
367994107, 5826, 6070, -11534, 8038, 3917, 1075, -2551, -48, -292, -283, 55, 47, 84, 33, 30, 32, 56, 87
367994956, 5826, 6070, -11534, 8038, 3917, 1075, -2551, -48, -292, -283, 55, 47, 84, 33, 30, 32, 56, 87
367995785, 5826, 6070, -11534, 8038, 3917, 1075, -2551, -48, -292, -283, 55, 47, 84, 33, 30, 32, 56, 87
367996596, 5826, 6070, -11534, 8038, 3917, 1075, -2551, -48, -292, -283, 55, 47, 84, 33, 30, 32, 56, 87
368001513, 5826, 6070, -11534, 8038, 3917, 1075, -2551, -48, -292, -283, 55, 47, 84, 33, 30, 32, 56, 87
368002385, 5826, 6070, -11534, 8038, 3917, 1075, -2551, -48, -292, -283, 55, 47, 84, 33, 30, 32, 56, 87
368003140, 5826, 6070, -11534, 8038, 3917, 1075, -2551, -48, -292, -283, 55, 47, 84, 33, 30, 32, 56, 87
368003965, 5826, 6070, -11534, 8038, 3917, 1075, -2551, -48, -292, -283, 55, 47, 84, 33, 30, 32, 56, 87
368009107, 5826, 6070, -11534, 8038, 3917, 1075, -2551, -48, -292, -283, 55, 47, 84, 33, 30, 32, 56, 87
368010067, 5830, 6145, -11557, 7944, 4018, 1337, -2900, -296, -428, -446, 55, 47, 84, 33, 30, 32, 56, 87
368010837, 5830, 6145, -11557, 7944, 4018, 1337, -2900, -296, -428, -446, 76, 72, 99, 38, 37, 34, 61, 127
368011692, 5830, 6145, -11557, 7944, 4018, 1337, -2900, -296, -428, -446, 76, 72, 99, 38, 37, 34, 61, 127
368016685, 5830, 6145, -11557, 7944, 4018, 1337, -2900, -296, -428, -446, 76, 72, 99, 38, 37, 34, 61, 127
368017489, 5830, 6145, -11557, 7944, 4018, 1337, -2900, -296, -428, -446, 76, 72, 99, 38, 37, 34, 61, 127
368018289, 5830, 6145, -11557, 7944, 4018, 1337, -2900, -296, -428, -446, 76, 72, 99, 38, 37, 34, 61, 127
368019135, 5830, 6145, -11557, 7944, 4018, 1337, -2900, -296, -428, -446, 76, 72, 99, 38, 37, 34, 61, 127
368024062, 5830, 6145, -11557, 7944, 4018, 1337, -2900, -296, -428, -446, 76, 72, 99, 38, 37, 34, 61, 127
368024871, 5830, 6145, -11557, 7944, 4018, 1337, -2900, -296, -428, -446, 76, 72, 99, 38, 37, 34, 61, 127
368025686, 5830, 6145, -11557, 7944, 4018, 1337, -2900, -296, -428, -446, 76, 72, 99, 38, 37, 34, 61, 127
368026516, 5830, 6145, -11557, 7944, 4018, 1337, -2900, -296, -428, -446, 76, 72, 99, 38, 37, 34, 61, 127
368031564, 5830, 6145, -11557, 7944, 4018, 1337, -2900, -296, -428, -446, 76, 72, 99, 38, 37, 34, 61, 127
368032517, 5838, 6247, -11577, 7830, 3853, 1412, -3032, -319, -528, -612, 76, 72, 99, 38, 37, 34, 61, 127
368033313, 5838, 6247, -11577, 7830, 3853, 1412, -3032, -319, -528, -612, 113, 130, 105, 40, 37, 39, 57, 135
368034179, 5838, 6247, -11577, 7830, 3853, 1412, -3032, -319, -528, -612, 113, 130, 105, 40, 37, 39, 57, 135
368039137, 5838, 6247, -11577, 7830, 3853, 1412, -3032, -319, -528, -612, 113, 130, 105, 40, 37, 39, 57, 135
368040004, 5838, 6247, -11577, 7830, 3853, 1412, -3032, -319, -528, -612, 113, 130, 105, 40, 37, 39, 57, 135
368040784, 5838, 6247, -11577, 7830, 3853, 1412, -3032, -319, -528, -612, 113, 130, 105, 40, 37, 39, 57, 135
368041685, 5838, 6247, -11577, 7830, 3853, 1412, -3032, -319, -528, -612, 113, 130, 105, 40, 37, 39, 57, 135
368046538, 5838, 6247, -11577, 7830, 3853, 1412, -3032, -319, -528, -612, 113, 130, 105, 40, 37, 39, 57, 135
368047355, 5838, 6247, -11577, 7830, 3853, 1412, -3032, -319, -528, -612, 113, 130, 105, 40, 37, 39, 57, 135
368048162, 5838, 6247, -11577, 7830, 3853, 1412, -3032, -319, -528, -612, 113, 130, 105, 40, 37, 39, 57, 135
368049017, 5838, 6247, -11577, 7830, 3853, 1412, -3032, -319, -528, -612, 113, 130, 105, 40, 37, 39, 57, 135
368054038, 5838, 6247, -11577, 7830, 3853, 1412, -3032, -319, -528, -612, 113, 130, 105, 40, 37, 39, 57, 135
368055031, 5846, 6438, -11564, 7685, 3797, 1397, -3271, -173, -763, -1092, 113, 130, 105, 40, 37, 39, 57, 135
368055787, 5846, 6438, -11564, 7685, 3797, 1397, -3271, -173, -763, -1092, 134, 156, 122, 42, 43, 54, 60, 161
368056704, 5846, 6438, -11564, 7685, 3797, 1397, -3271, -173, -763, -1092, 134, 156, 122, 42, 43, 54, 60, 161
368061665, 5846, 6438, -11564, 7685, 3797, 1397, -3271, -173, -763, -1092, 134, 156, 122, 42, 43, 54, 60, 161
368062471, 5846, 6438, -11564, 7685, 3797, 1397, -3271, -173, -763, -1092, 134, 156, 122, 42, 43, 54, 60, 161
368063260, 5846, 6438, -11564, 7685, 3797, 1397, -3271, -173, -763, -1092, 134, 156, 122, 42, 43, 54, 60, 161
368064103, 5846, 6438, -11564, 7685, 3797, 1397, -3271, -173, -763, -1092, 134, 156, 122, 42, 43, 54, 60, 161
368069013, 5846, 6438, -11564, 7685, 3797, 1397, -3271, -173, -763, -1092, 134, 156, 122, 42, 43, 54, 60, 161
368069860, 5846, 6438, -11564, 7685, 3797, 1397, -3271, -173, -763, -1092, 134, 156, 122, 42, 43, 54, 60, 161
368070665, 5846, 6438, -11564, 7685, 3797, 1397, -3271, -173, -763, -1092, 134, 156, 122, 42, 43, 54, 60, 161
368071468, 5846, 6438, -11564, 7685, 3797, 1397, -3271, -173, -763, -1092, 134, 156, 122, 42, 43, 54, 60, 161
368076589, 5846, 6438, -11564, 7685, 3797, 1397, -3271, -173, -763, -1092, 134, 156, 122, 42, 43, 54, 60, 161
368077513, 5851, 6708, -11523, 7510, 3742, 1668, -3530, -57, -993, -1520, 134, 156, 122, 42, 43, 54, 60, 161
368078335, 5851, 6708, -11523, 7510, 3742, 1668, -3530, -57, -993, -1520, 139, 168, 136, 52, 42, 58, 64, 168
368079148, 5851, 6708, -11523, 7510, 3742, 1668, -3530, -57, -993, -1520, 139, 168, 136, 52, 42, 58, 64, 168
368084169, 5851, 6708, -11523, 7510, 3742, 1668, -3530, -57, -993, -1520, 139, 168, 136, 52, 42, 58, 64, 168
368084963, 5851, 6708, -11523, 7510, 3742, 1668, -3530, -57, -993, -1520, 139, 168, 136, 52, 42, 58, 64, 168
368085817, 5851, 6708, -11523, 7510, 3742, 1668, -3530, -57, -993, -1520, 139, 168, 136, 52, 42, 58, 64, 168
368086662, 5851, 6708, -11523, 7510, 3742, 1668, -3530, -57, -993, -1520, 139, 168, 136, 52, 42, 58, 64, 168
368091530, 5851, 6708, -11523, 7510, 3742, 1668, -3530, -57, -993, -1520, 139, 168, 136, 52, 42, 58, 64, 168
368092360, 5851, 6708, -11523, 7510, 3742, 1668, -3530, -57, -993, -1520, 139, 168, 136, 52, 42, 58, 64, 168
368093166, 5851, 6708, -11523, 7510, 3742, 1668, -3530, -57, -993, -1520, 139, 168, 136, 52, 42, 58, 64, 168
368093964, 5851, 6708, -11523, 7510, 3742, 1668, -3530, -57, -993, -1520, 139, 168, 136, 52, 42, 58, 64, 168
368099064, 5851, 6708, -11523, 7510, 3742, 1668, -3530, -57, -993, -1520, 139, 168, 136, 52, 42, 58, 64, 168
368100031, 5824, 7071, -11444, 7318, 3610, 1906, -3408, 231, -1318, -1928, 139, 168, 136, 52, 42, 58, 64, 168
368100835, 5824, 7071, -11444, 7318, 3610, 1906, -3408, 231, -1318, -1928, 158, 189, 118, 51, 43, 59, 65, 167
368101690, 5824, 7071, -11444, 7318, 3610, 1906, -3408, 231, -1318, -1928, 158, 189, 118, 51, 43, 59, 65, 167
368106664, 5824, 7071, -11444, 7318, 3610, 1906, -3408, 231, -1318, -1928, 158, 189, 118, 51, 43, 59, 65, 167
368107482, 5824, 7071, -11444, 7318, 3610, 1906, -3408, 231, -1318, -1928, 158, 189, 118, 51, 43, 59, 65, 167
368108285, 5824, 7071, -11444, 7318, 3610, 1906, -3408, 231, -1318, -1928, 158, 189, 118, 51, 43, 59, 65, 167
368109127, 5824, 7071, -11444, 7318, 3610, 1906, -3408, 231, -1318, -1928, 158, 189, 118, 51, 43, 59, 65, 167
368114055, 5824, 7071, -11444, 7318, 3610, 1906, -3408, 231, -1318, -1928, 158, 189, 118, 51, 43, 59, 65, 167
368114879, 5824, 7071, -11444, 7318, 3610, 1906, -3408, 231, -1318, -1928, 158, 189, 118, 51, 43, 59, 65, 167
368115663, 5824, 7071, -11444, 7318, 3610, 1906, -3408, 231, -1318, -1928, 158, 189, 118, 51, 43, 59, 65, 167
368116507, 5824, 7071, -11444, 7318, 3610, 1906, -3408, 231, -1318, -1928, 158, 189, 118, 51, 43, 59, 65, 167
368121538, 5824, 7071, -11444, 7318, 3610, 1906, -3408, 231, -1318, -1928, 158, 189, 118, 51, 43, 59, 65, 167
368122493, 5796, 7504, -11326, 7088, 3575, 2183, -3369, 327, -1517, -2364, 158, 189, 118, 51, 43, 59, 65, 167
368123431, 5796, 7504, -11326, 7088, 3575, 2183, -3369, 327, -1517, -2364, 153, 183, 128, 52, 49, 75, 79, 153
368124130, 5796, 7504, -11326, 7088, 3575, 2183, -3369, 327, -1517, -2364, 153, 183, 128, 52, 49, 75, 79, 153
368129135, 5796, 7504, -11326, 7088, 3575, 2183, -3369, 327, -1517, -2364, 153, 183, 128, 52, 49, 75, 79, 153
368129927, 5796, 7504, -11326, 7088, 3575, 2183, -3369, 327, -1517, -2364, 153, 183, 128, 52, 49, 75, 79, 153
368130738, 5796, 7504, -11326, 7088, 3575, 2183, -3369, 327, -1517, -2364, 153, 183, 128, 52, 49, 75, 79, 153
368131583, 5796, 7504, -11326, 7088, 3575, 2183, -3369, 327, -1517, -2364, 153, 183, 128, 52, 49, 75, 79, 153
368136564, 5796, 7504, -11326, 7088, 3575, 2183, -3369, 327, -1517, -2364, 153, 183, 128, 52, 49, 75, 79, 153
368137392, 5796, 7504, -11326, 7088, 3575, 2183, -3369, 327, -1517, -2364, 153, 183, 128, 52, 49, 75, 79, 153
368138210, 5796, 7504, -11326, 7088, 3575, 2183, -3369, 327, -1517, -2364, 153, 183, 128, 52, 49, 75, 79, 153
368139040, 5796, 7504, -11326, 7088, 3575, 2183, -3369, 327, -1517, -2364, 153, 183, 128, 52, 49, 75, 79, 153
368144099, 5796, 7504, -11326, 7088, 3575, 2183, -3369, 327, -1517, -2364, 153, 183, 128, 52, 49, 75, 79, 153
368145051, 5767, 8004, -11163, 6818, 3611, 2424, -3265, 411, -1691, -2820, 153, 183, 128, 52, 49, 75, 79, 153
368145827, 5767, 8004, -11163, 6818, 3611, 2424, -3265, 411, -1691, -2820, 132, 157, 143, 59, 56, 78, 92, 160
368146688, 5767, 8004, -11163, 6818, 3611, 2424, -3265, 411, -1691, -2820, 132, 157, 143, 59, 56, 78, 92, 160
368151663, 5767, 8004, -11163, 6818, 3611, 2424, -3265, 411, -1691, -2820, 132, 157, 143, 59, 56, 78, 92, 160
368152493, 5767, 8004, -11163, 6818, 3611, 2424, -3265, 411, -1691, -2820, 132, 157, 143, 59, 56, 78, 92, 160
368153262, 5767, 8004, -11163, 6818, 3611, 2424, -3265, 411, -1691, -2820, 132, 157, 143, 59, 56, 78, 92, 160
368154128, 5767, 8004, -11163, 6818, 3611, 2424, -3265, 411, -1691, -2820, 132, 157, 143, 59, 56, 78, 92, 160
368159039, 5767, 8004, -11163, 6818, 3611, 2424, -3265, 411, -1691, -2820, 132, 157, 143, 59, 56, 78, 92, 160
368159869, 5767, 8004, -11163, 6818, 3611, 2424, -3265, 411, -1691, -2820, 132, 157, 143, 59, 56, 78, 92, 160
368160661, 5767, 8004, -11163, 6818, 3611, 2424, -3265, 411, -1691, -2820, 132, 157, 143, 59, 56, 78, 92, 160
368161518, 5767, 8004, -11163, 6818, 3611, 2424, -3265, 411, -1691, -2820, 132, 157, 143, 59, 56, 78, 92, 160
368166540, 5767, 8004, -11163, 6818, 3611, 2424, -3265, 411, -1691, -2820, 132, 157, 143, 59, 56, 78, 92, 160
368167493, 5727, 8571, -10934, 6527, 3695, 2550, -3189, 653, -1817, -3269, 132, 157, 143, 59, 56, 78, 92, 160
368168288, 5727, 8571, -10934, 6527, 3695, 2550, -3189, 653, -1817, -3269, 114, 137, 165, 56, 59, 83, 108, 164
368169145, 5727, 8571, -10934, 6527, 3695, 2550, -3189, 653, -1817, -3269, 132, 157, 143, 59, 56, 78, 92, 160
368174113, 5727, 8571, -10934, 6527, 3695, 2550, -3189, 653, -1817, -3269, 114, 137, 165, 56, 59, 83, 108, 164
368174967, 5727, 8571, -10934, 6527, 3695, 2550, -3189, 653, -1817, -3269, 114, 137, 165, 56, 59, 83, 108, 164
368175762, 5727, 8571, -10934, 6527, 3695, 2550, -3189, 653, -1817, -3269, 114, 137, 165, 56, 59, 83, 108, 164
368176607, 5727, 8571, -10934, 6527, 3695, 2550, -3189, 653, -1817, -3269, 114, 137, 165, 56, 59, 83, 108, 164
368181514, 5727, 8571, -10934, 6527, 3695, 2550, -3189, 653, -1817, -3269, 114, 137, 165, 56, 59, 83, 108, 164
368182360, 5727, 8571, -10934, 6527, 3695, 2550, -3189, 653, -1817, -3269, 114, 137, 165, 56, 59, 83, 108, 164
368183139, 5727, 8571, -10934, 6527, 3695, 2550, -3189, 653, -1817, -3269, 114, 137, 165, 56, 59, 83, 108, 164
368183968, 5727, 8571, -10934, 6527, 3695, 2550, -3189, 653, -1817, -3269, 114, 137, 165, 56, 59, 83, 108, 164
368189087, 5727, 8571, -10934, 6527, 3695, 2550, -3189, 653, -1817, -3269, 114, 137, 165, 56, 59, 83, 108, 164
368190006, 5666, 9190, -10635, 6226, 3659, 2722, -3015, 932, -1906, -3643, 114, 137, 165, 56, 59, 83, 108, 164
368190814, 5666, 9190, -10635, 6226, 3659, 2722, -3015, 932, -1906, -3643, 106, 123, 162, 50, 63, 110, 116, 220
368191637, 5666, 9190, -10635, 6226, 3659, 2722, -3015, 932, -1906, -3643, 106, 123, 162, 50, 63, 110, 116, 220
368196638, 5666, 9190, -10635, 6226, 3659, 2722, -3015, 932, -1906, -3643, 106, 123, 162, 50, 63, 110, 116, 220
368197440, 5666, 9190, -10635, 6226, 3659, 2722, -3015, 932, -1906, -3643, 106, 123, 162, 50, 63, 110, 116, 220
368198262, 5666, 9190, -10635, 6226, 3659, 2722, -3015, 932, -1906, -3643, 106, 123, 162, 50, 63, 110, 116, 220
368199087, 5666, 9190, -10635, 6226, 3659, 2722, -3015, 932, -1906, -3643, 106, 123, 162, 50, 63, 110, 116, 220
368204056, 5666, 9190, -10635, 6226, 3659, 2722, -3015, 932, -1906, -3643, 106, 123, 162, 50, 63, 110, 116, 220
368204853, 5666, 9190, -10635, 6226, 3659, 2722, -3015, 932, -1906, -3643, 106, 123, 162, 50, 63, 110, 116, 220
368205662, 5666, 9190, -10635, 6226, 3659, 2722, -3015, 932, -1906, -3643, 106, 123, 162, 50, 63, 110, 116, 220
368206465, 5666, 9190, -10635, 6226, 3659, 2722, -3015, 932, -1906, -3643, 106, 123, 162, 50, 63, 110, 116, 220
368211560, 5666, 9190, -10635, 6226, 3659, 2722, -3015, 932, -1906, -3643, 106, 123, 162, 50, 63, 110, 116, 220
368212479, 5581, 9832, -10273, 5923, 3701, 2643, -2955, 1178, -1929, -3879, 106, 123, 162, 50, 63, 110, 116, 220
368213309, 5581, 9832, -10273, 5923, 3701, 2643, -2955, 1178, -1929, -3879, 68, 82, 162, 49, 62, 169, 116, 220
368214135, 5581, 9832, -10273, 5923, 3701, 2643, -2955, 1178, -1929, -3879, 68, 82, 162, 49, 62, 169, 116, 220
368219146, 5581, 9832, -10273, 5923, 3701, 2643, -2955, 1178, -1929, -3879, 68, 82, 162, 49, 62, 169, 116, 220
368220000, 5581, 9832, -10273, 5923, 3701, 2643, -2955, 1178, -1929, -3879, 68, 82, 162, 49, 62, 169, 116, 220
368220786, 5581, 9832, -10273, 5923, 3701, 2643, -2955, 1178, -1929, -3879, 68, 82, 162, 49, 62, 169, 116, 220
368221693, 5581, 9832, -10273, 5923, 3701, 2643, -2955, 1178, -1929, -3879, 68, 82, 162, 49, 62, 169, 116, 220
368226539, 5581, 9832, -10273, 5923, 3701, 2643, -2955, 1178, -1929, -3879, 68, 82, 162, 49, 62, 169, 116, 220
368227385, 5581, 9832, -10273, 5923, 3701, 2643, -2955, 1178, -1929, -3879, 68, 82, 162, 49, 62, 169, 116, 220
368228163, 5581, 9832, -10273, 5923, 3701, 2643, -2955, 1178, -1929, -3879, 68, 82, 162, 49, 62, 169, 116, 220
368229003, 5581, 9832, -10273, 5923, 3701, 2643, -2955, 1178, -1929, -3879, 68, 82, 162, 49, 62, 169, 116, 220
368234038, 5581, 9832, -10273, 5923, 3701, 2643, -2955, 1178, -1929, -3879, 68, 82, 162, 49, 62, 169, 116, 220
368234992, 5474, 10467, -9867, 5616, 3720, 2531, -2891, 1315, -1922, -3966, 68, 82, 162, 49, 62, 169, 116, 220
368235788, 5474, 10467, -9867, 5616, 3720, 2531, -2891, 1315, -1922, -3966, 62, 76, 147, 50, 56, 204, 121, 226
368236654, 5474, 10467, -9867, 5616, 3720, 2531, -2891, 1315, -1922, -3966, 62, 76, 147, 50, 56, 204, 121, 226
368241637, 5474, 10467, -9867, 5616, 3720, 2531, -2891, 1315, -1922, -3966, 62, 76, 147, 50, 56, 204, 121, 226
368242390, 5474, 10467, -9867, 5616, 3720, 2531, -2891, 1315, -1922, -3966, 62, 76, 147, 50, 56, 204, 121, 226
368243212, 5474, 10467, -9867, 5616, 3720, 2531, -2891, 1315, -1922, -3966, 62, 76, 147, 50, 56, 204, 121, 226
368244048, 5474, 10467, -9867, 5616, 3720, 2531, -2891, 1315, -1922, -3966, 62, 76, 147, 50, 56, 204, 121, 226
368249006, 5474, 10467, -9867, 5616, 3720, 2531, -2891, 1315, -1922, -3966, 62, 76, 147, 50, 56, 204, 121, 226
368249809, 5474, 10467, -9867, 5616, 3720, 2531, -2891, 1315, -1922, -3966, 62, 76, 147, 50, 56, 204, 121, 226
368250660, 5474, 10467, -9867, 5616, 3720, 2531, -2891, 1315, -1922, -3966, 62, 76, 147, 50, 56, 204, 121, 226
368251469, 5474, 10467, -9867, 5616, 3720, 2531, -2891, 1315, -1922, -3966, 62, 76, 147, 50, 56, 204, 121, 226
368256588, 5474, 10467, -9867, 5616, 3720, 2531, -2891, 1315, -1922, -3966, 62, 76, 147, 50, 56, 204, 121, 226
368257556, 5360, 11065, -9438, 5309, 3731, 2545, -2734, 1319, -1828, -3911, 62, 76, 147, 50, 56, 204, 121, 226
368258343, 5360, 11065, -9438, 5309, 3731, 2545, -2734, 1319, -1828, -3911, 54, 53, 133, 41, 48, 219, 117, 219
368259166, 5360, 11065, -9438, 5309, 3731, 2545, -2734, 1319, -1828, -3911, 54, 53, 133, 41, 48, 219, 117, 219
368264138, 5360, 11065, -9438, 5309, 3731, 2545, -2734, 1319, -1828, -3911, 54, 53, 133, 41, 48, 219, 117, 219
368265003, 5360, 11065, -9438, 5309, 3731, 2545, -2734, 1319, -1828, -3911, 54, 53, 133, 41, 48, 219, 117, 219
368265790, 5360, 11065, -9438, 5309, 3731, 2545, -2734, 1319, -1828, -3911, 54, 53, 133, 41, 48, 219, 117, 219
368266674, 5360, 11065, -9438, 5309, 3731, 2545, -2734, 1319, -1828, -3911, 54, 53, 133, 41, 48, 219, 117, 219
368271539, 5360, 11065, -9438, 5309, 3731, 2545, -2734, 1319, -1828, -3911, 54, 53, 133, 41, 48, 219, 117, 219
368272335, 5360, 11065, -9438, 5309, 3731, 2545, -2734, 1319, -1828, -3911, 54, 53, 133, 41, 48, 219, 117, 219
368273138, 5360, 11065, -9438, 5309, 3731, 2545, -2734, 1319, -1828, -3911, 54, 53, 133, 41, 48, 219, 117, 219
368273962, 5360, 11065, -9438, 5309, 3731, 2545, -2734, 1319, -1828, -3911, 54, 53, 133, 41, 48, 219, 117, 219
368279059, 5360, 11065, -9438, 5309, 3731, 2545, -2734, 1319, -1828, -3911, 54, 53, 133, 41, 48, 219, 117, 219
368279988, 5237, 11620, -8987, 5022, 3708, 2451, -2642, 1374, -1662, -3797, 54, 53, 133, 41, 48, 219, 117, 219
368280813, 5237, 11620, -8987, 5022, 3708, 2451, -2642, 1374, -1662, -3797, 48, 38, 102, 44, 44, 222, 117, 206
368281702, 5237, 11620, -8987, 5022, 3708, 2451, -2642, 1374, -1662, -3797, 48, 38, 102, 44, 44, 222, 117, 206
368286689, 5237, 11620, -8987, 5022, 3708, 2451, -2642, 1374, -1662, -3797, 48, 38, 102, 44, 44, 222, 117, 206
368287470, 5237, 11620, -8987, 5022, 3708, 2451, -2642, 1374, -1662, -3797, 48, 38, 102, 44, 44, 222, 117, 206
368288290, 5237, 11620, -8987, 5022, 3708, 2451, -2642, 1374, -1662, -3797, 48, 38, 102, 44, 44, 222, 117, 206
368289090, 5237, 11620, -8987, 5022, 3708, 2451, -2642, 1374, -1662, -3797, 48, 38, 102, 44, 44, 222, 117, 206
368294013, 5237, 11620, -8987, 5022, 3708, 2451, -2642, 1374, -1662, -3797, 48, 38, 102, 44, 44, 222, 117, 206
368294864, 5237, 11620, -8987, 5022, 3708, 2451, -2642, 1374, -1662, -3797, 48, 38, 102, 44, 44, 222, 117, 206
368295665, 5237, 11620, -8987, 5022, 3708, 2451, -2642, 1374, -1662, -3797, 48, 38, 102, 44, 44, 222, 117, 206
368296468, 5237, 11620, -8987, 5022, 3708, 2451, -2642, 1374, -1662, -3797, 48, 38, 102, 44, 44, 222, 117, 206
368301540, 5237, 11620, -8987, 5022, 3708, 2451, -2642, 1374, -1662, -3797, 48, 38, 102, 44, 44, 222, 117, 206
368302461, 5106, 12123, -8525, 4766, 3645, 2141, -2612, 1424, -1453, -3614, 48, 38, 102, 44, 44, 222, 117, 206
368303263, 5106, 12123, -8525, 4766, 3645, 2141, -2612, 1424, -1453, -3614, 50, 32, 107, 45, 47, 222, 124, 145
368304088, 5106, 12123, -8525, 4766, 3645, 2141, -2612, 1424, -1453, -3614, 50, 32, 107, 45, 47, 222, 124, 145
368309087, 5106, 12123, -8525, 4766, 3645, 2141, -2612, 1424, -1453, -3614, 50, 32, 107, 45, 47, 222, 124, 145
368309887, 5106, 12123, -8525, 4766, 3645, 2141, -2612, 1424, -1453, -3614, 50, 32, 107, 45, 47, 222, 124, 145
368310712, 5106, 12123, -8525, 4766, 3645, 2141, -2612, 1424, -1453, -3614, 50, 32, 107, 45, 47, 222, 124, 145
368311547, 5106, 12123, -8525, 4766, 3645, 2141, -2612, 1424, -1453, -3614, 50, 32, 107, 45, 47, 222, 124, 145
368316539, 5106, 12123, -8525, 4766, 3645, 2141, -2612, 1424, -1453, -3614, 50, 32, 107, 45, 47, 222, 124, 145
368317319, 5106, 12123, -8525, 4766, 3645, 2141, -2612, 1424, -1453, -3614, 50, 32, 107, 45, 47, 222, 124, 145
368318148, 5106, 12123, -8525, 4766, 3645, 2141, -2612, 1424, -1453, -3614, 50, 32, 107, 45, 47, 222, 124, 145
368318939, 5106, 12123, -8525, 4766, 3645, 2141, -2612, 1424, -1453, -3614, 50, 32, 107, 45, 47, 222, 124, 145
368324062, 5106, 12123, -8525, 4766, 3645, 2141, -2612, 1424, -1453, -3614, 50, 32, 107, 45, 47, 222, 124, 145
368325040, 4985, 12575, -8049, 4544, 3460, 1838, -2638, 1513, -1240, -3393, 50, 32, 107, 45, 47, 222, 124, 145
368325820, 4985, 12575, -8049, 4544, 3460, 1838, -2638, 1513, -1240, -3393, 48, 31, 137, 48, 54, 190, 142, 157
368326683, 4985, 12575, -8049, 4544, 3460, 1838, -2638, 1513, -1240, -3393, 48, 31, 137, 48, 54, 190, 142, 157
368331673, 4985, 12575, -8049, 4544, 3460, 1838, -2638, 1513, -1240, -3393, 48, 31, 137, 48, 54, 190, 142, 157
368332465, 4985, 12575, -8049, 4544, 3460, 1838, -2638, 1513, -1240, -3393, 48, 31, 137, 48, 54, 190, 142, 157
368333302, 4985, 12575, -8049, 4544, 3460, 1838, -2638, 1513, -1240, -3393, 48, 31, 137, 48, 54, 190, 142, 157
368334163, 4985, 12575, -8049, 4544, 3460, 1838, -2638, 1513, -1240, -3393, 48, 31, 137, 48, 54, 190, 142, 157
368339045, 4985, 12575, -8049, 4544, 3460, 1838, -2638, 1513, -1240, -3393, 48, 31, 137, 48, 54, 190, 142, 157
368339862, 4985, 12575, -8049, 4544, 3460, 1838, -2638, 1513, -1240, -3393, 48, 31, 137, 48, 54, 190, 142, 157
368340664, 4985, 12575, -8049, 4544, 3460, 1838, -2638, 1513, -1240, -3393, 48, 31, 137, 48, 54, 190, 142, 157
368341529, 4985, 12575, -8049, 4544, 3460, 1838, -2638, 1513, -1240, -3393, 48, 31, 137, 48, 54, 190, 142, 157
368346545, 4985, 12575, -8049, 4544, 3460, 1838, -2638, 1513, -1240, -3393, 48, 31, 137, 48, 54, 190, 142, 157
368347537, 4833, 12975, -7584, 4380, 3331, 1664, -2718, 1676, -1006, -3084, 48, 31, 137, 48, 54, 190, 142, 157
368348311, 4833, 12975, -7584, 4380, 3331, 1664, -2718, 1676, -1006, -3084, 44, 31, 138, 46, 58, 154, 141, 134
368349135, 4833, 12975, -7584, 4380, 3331, 1664, -2718, 1676, -1006, -3084, 44, 31, 138, 46, 58, 154, 141, 134
368354113, 4833, 12975, -7584, 4380, 3331, 1664, -2718, 1676, -1006, -3084, 44, 31, 138, 46, 58, 154, 141, 134
368354979, 4833, 12975, -7584, 4380, 3331, 1664, -2718, 1676, -1006, -3084, 44, 31, 138, 46, 58, 154, 141, 134
368355763, 4833, 12975, -7584, 4380, 3331, 1664, -2718, 1676, -1006, -3084, 44, 31, 138, 46, 58, 154, 141, 134
368356594, 4833, 12975, -7584, 4380, 3331, 1664, -2718, 1676, -1006, -3084, 44, 31, 138, 46, 58, 154, 141, 134
368361516, 4833, 12975, -7584, 4380, 3331, 1664, -2718, 1676, -1006, -3084, 44, 31, 138, 46, 58, 154, 141, 134
368362309, 4833, 12975, -7584, 4380, 3331, 1664, -2718, 1676, -1006, -3084, 44, 31, 138, 46, 58, 154, 141, 134
368363113, 4833, 12975, -7584, 4380, 3331, 1664, -2718, 1676, -1006, -3084, 44, 31, 138, 46, 58, 154, 141, 134
368363937, 4833, 12975, -7584, 4380, 3331, 1664, -2718, 1676, -1006, -3084, 44, 31, 138, 46, 58, 154, 141, 134
368369031, 4833, 12975, -7584, 4380, 3331, 1664, -2718, 1676, -1006, -3084, 44, 31, 138, 46, 58, 154, 141, 134
368369972, 4676, 13317, -7148, 4258, 3225, 1555, -2750, 1655, -801, -2749, 44, 31, 138, 46, 58, 154, 141, 134
368370781, 4676, 13317, -7148, 4258, 3225, 1555, -2750, 1655, -801, -2749, 46, 32, 135, 46, 60, 154, 144, 150
368371677, 4676, 13317, -7148, 4258, 3225, 1555, -2750, 1655, -801, -2749, 46, 32, 135, 46, 60, 154, 144, 150
368376636, 4676, 13317, -7148, 4258, 3225, 1555, -2750, 1655, -801, -2749, 46, 32, 135, 46, 60, 154, 144, 150
368377419, 4676, 13317, -7148, 4258, 3225, 1555, -2750, 1655, -801, -2749, 46, 32, 135, 46, 60, 154, 144, 150
368378238, 4676, 13317, -7148, 4258, 3225, 1555, -2750, 1655, -801, -2749, 46, 32, 135, 46, 60, 154, 144, 150
368379037, 4676, 13317, -7148, 4258, 3225, 1555, -2750, 1655, -801, -2749, 46, 32, 135, 46, 60, 154, 144, 150
368384079, 4676, 13317, -7148, 4258, 3225, 1555, -2750, 1655, -801, -2749, 46, 32, 135, 46, 60, 154, 144, 150
368384870, 4676, 13317, -7148, 4258, 3225, 1555, -2750, 1655, -801, -2749, 46, 32, 135, 46, 60, 154, 144, 150
368385679, 4676, 13317, -7148, 4258, 3225, 1555, -2750, 1655, -801, -2749, 46, 32, 135, 46, 60, 154, 144, 150
368386490, 4676, 13317, -7148, 4258, 3225, 1555, -2750, 1655, -801, -2749, 46, 32, 135, 46, 60, 154, 144, 150
368391563, 4676, 13317, -7148, 4258, 3225, 1555, -2750, 1655, -801, -2749, 46, 32, 135, 46, 60, 154, 144, 150
368392488, 4509, 13608, -6743, 4177, 3159, 1490, -2761, 1664, -621, -2414, 46, 32, 135, 46, 60, 154, 144, 150
368393344, 4509, 13608, -6743, 4177, 3159, 1490, -2761, 1664, -621, -2414, 46, 31, 124, 42, 58, 148, 139, 139
368394151, 4509, 13608, -6743, 4177, 3159, 1490, -2761, 1664, -621, -2414, 46, 31, 124, 42, 58, 148, 139, 139
368399150, 4509, 13608, -6743, 4177, 3159, 1490, -2761, 1664, -621, -2414, 46, 31, 124, 42, 58, 148, 139, 139
368399959, 4509, 13608, -6743, 4177, 3159, 1490, -2761, 1664, -621, -2414, 46, 31, 124, 42, 58, 148, 139, 139
368400790, 4509, 13608, -6743, 4177, 3159, 1490, -2761, 1664, -621, -2414, 46, 31, 124, 42, 58, 148, 139, 139
368401684, 4509, 13608, -6743, 4177, 3159, 1490, -2761, 1664, -621, -2414, 46, 31, 124, 42, 58, 148, 139, 139
368406566, 4509, 13608, -6743, 4177, 3159, 1490, -2761, 1664, -621, -2414, 46, 31, 124, 42, 58, 148, 139, 139
368407377, 4509, 13608, -6743, 4177, 3159, 1490, -2761, 1664, -621, -2414, 46, 31, 124, 42, 58, 148, 139, 139
368408163, 4509, 13608, -6743, 4177, 3159, 1490, -2761, 1664, -621, -2414, 46, 31, 124, 42, 58, 148, 139, 139
368408974, 4509, 13608, -6743, 4177, 3159, 1490, -2761, 1664, -621, -2414, 46, 31, 124, 42, 58, 148, 139, 139
368414040, 4509, 13608, -6743, 4177, 3159, 1490, -2761, 1664, -621, -2414, 46, 31, 124, 42, 58, 148, 139, 139
368415006, 4337, 13851, -6376, 4136, 3055, 1399, -2842, 1644, -428, -2068, 46, 31, 124, 42, 58, 148, 139, 139
368415793, 4337, 13851, -6376, 4136, 3055, 1399, -2842, 1644, -428, -2068, 36, 31, 111, 41, 49, 136, 165, 138
368416684, 4337, 13851, -6376, 4136, 3055, 1399, -2842, 1644, -428, -2068, 36, 31, 111, 41, 49, 136, 165, 138
368421663, 4337, 13851, -6376, 4136, 3055, 1399, -2842, 1644, -428, -2068, 36, 31, 111, 41, 49, 136, 165, 138
368422442, 4337, 13851, -6376, 4136, 3055, 1399, -2842, 1644, -428, -2068, 36, 31, 111, 41, 49, 136, 165, 138
368423238, 4337, 13851, -6376, 4136, 3055, 1399, -2842, 1644, -428, -2068, 36, 31, 111, 41, 49, 136, 165, 138
368424090, 4337, 13851, -6376, 4136, 3055, 1399, -2842, 1644, -428, -2068, 36, 31, 111, 41, 49, 136, 165, 138
368429012, 4337, 13851, -6376, 4136, 3055, 1399, -2842, 1644, -428, -2068, 36, 31, 111, 41, 49, 136, 165, 138
368429804, 4337, 13851, -6376, 4136, 3055, 1399, -2842, 1644, -428, -2068, 36, 31, 111, 41, 49, 136, 165, 138
368430639, 4337, 13851, -6376, 4136, 3055, 1399, -2842, 1644, -428, -2068, 36, 31, 111, 41, 49, 136, 165, 138
368431416, 4337, 13851, -6376, 4136, 3055, 1399, -2842, 1644, -428, -2068, 36, 31, 111, 41, 49, 136, 165, 138
368436556, 4337, 13851, -6376, 4136, 3055, 1399, -2842, 1644, -428, -2068, 36, 31, 111, 41, 49, 136, 165, 138
368437549, 4145, 14045, -6067, 4144, 3017, 1185, -3051, 1669, -248, -1604, 36, 31, 111, 41, 49, 136, 165, 138
368438367, 4145, 14045, -6067, 4144, 3017, 1185, -3051, 1669, -248, -1604, 42, 33, 59, 43, 58, 159, 223, 134
368439137, 4145, 14045, -6067, 4144, 3017, 1185, -3051, 1669, -248, -1604, 42, 33, 59, 43, 58, 159, 223, 134
368444178, 4145, 14045, -6067, 4144, 3017, 1185, -3051, 1669, -248, -1604, 42, 33, 59, 43, 58, 159, 223, 134
368444963, 4145, 14045, -6067, 4144, 3017, 1185, -3051, 1669, -248, -1604, 42, 33, 59, 43, 58, 159, 223, 134
368445828, 4145, 14045, -6067, 4144, 3017, 1185, -3051, 1669, -248, -1604, 42, 33, 59, 43, 58, 159, 223, 134
368446685, 4145, 14045, -6067, 4144, 3017, 1185, -3051, 1669, -248, -1604, 42, 33, 59, 43, 58, 159, 223, 134
368451578, 4145, 14045, -6067, 4144, 3017, 1185, -3051, 1669, -248, -1604, 42, 33, 59, 43, 58, 159, 223, 134
368452344, 4145, 14045, -6067, 4144, 3017, 1185, -3051, 1669, -248, -1604, 42, 33, 59, 43, 58, 159, 223, 134
368453192, 4145, 14045, -6067, 4144, 3017, 1185, -3051, 1669, -248, -1604, 42, 33, 59, 43, 58, 159, 223, 134
368453988, 4145, 14045, -6067, 4144, 3017, 1185, -3051, 1669, -248, -1604, 42, 33, 59, 43, 58, 159, 223, 134
368459086, 4145, 14045, -6067, 4144, 3017, 1185, -3051, 1669, -248, -1604, 42, 33, 59, 43, 58, 159, 223, 134
368459990, 3940, 14189, -5825, 4200, 2976, 871, -3262, 1584, -144, -1184, 42, 33, 59, 43, 58, 159, 223, 134
368460841, 3940, 14189, -5825, 4200, 2976, 871, -3262, 1584, -144, -1184, 45, 34, 52, 42, 51, 153, 224, 134
368461684, 3940, 14189, -5825, 4200, 2976, 871, -3262, 1584, -144, -1184, 45, 34, 52, 42, 51, 153, 224, 134
368466691, 3940, 14189, -5825, 4200, 2976, 871, -3262, 1584, -144, -1184, 45, 34, 52, 42, 51, 153, 224, 134
368467441, 3940, 14189, -5825, 4200, 2976, 871, -3262, 1584, -144, -1184, 45, 34, 52, 42, 51, 153, 224, 134
368468291, 3940, 14189, -5825, 4200, 2976, 871, -3262, 1584, -144, -1184, 45, 34, 52, 42, 51, 153, 224, 134
368469072, 3940, 14189, -5825, 4200, 2976, 871, -3262, 1584, -144, -1184, 45, 34, 52, 42, 51, 153, 224, 134
368474017, 3940, 14189, -5825, 4200, 2976, 871, -3262, 1584, -144, -1184, 45, 34, 52, 42, 51, 153, 224, 134
368474854, 3940, 14189, -5825, 4200, 2976, 871, -3262, 1584, -144, -1184, 45, 34, 52, 42, 51, 153, 224, 134
368475663, 3940, 14189, -5825, 4200, 2976, 871, -3262, 1584, -144, -1184, 45, 34, 52, 42, 51, 153, 224, 134
368476506, 3940, 14189, -5825, 4200, 2976, 871, -3262, 1584, -144, -1184, 45, 34, 52, 42, 51, 153, 224, 134
368481537, 3940, 14189, -5825, 4200, 2976, 871, -3262, 1584, -144, -1184, 45, 34, 52, 42, 51, 153, 224, 134
368482504, 3714, 14307, -5648, 4247, 2852, 814, -3378, 1535, -218, -780, 45, 34, 52, 42, 51, 153, 224, 134
368483291, 3714, 14307, -5648, 4247, 2852, 814, -3378, 1535, -218, -780, 44, 37, 48, 41, 51, 132, 242, 129
368484074, 3714, 14307, -5648, 4247, 2852, 814, -3378, 1535, -218, -780, 44, 37, 48, 41, 51, 132, 242, 129
368489114, 3714, 14307, -5648, 4247, 2852, 814, -3378, 1535, -218, -780, 44, 37, 48, 41, 51, 132, 242, 129
368489925, 3714, 14307, -5648, 4247, 2852, 814, -3378, 1535, -218, -780, 44, 37, 48, 41, 51, 132, 242, 129
368490762, 3714, 14307, -5648, 4247, 2852, 814, -3378, 1535, -218, -780, 44, 37, 48, 41, 51, 132, 242, 129
368491572, 3714, 14307, -5648, 4247, 2852, 814, -3378, 1535, -218, -780, 44, 37, 48, 41, 51, 132, 242, 129
368496488, 3714, 14307, -5648, 4247, 2852, 814, -3378, 1535, -218, -780, 44, 37, 48, 41, 51, 132, 242, 129
368497353, 3714, 14307, -5648, 4247, 2852, 814, -3378, 1535, -218, -780, 44, 37, 48, 41, 51, 132, 242, 129
368498160, 3714, 14307, -5648, 4247, 2852, 814, -3378, 1535, -218, -780, 44, 37, 48, 41, 51, 132, 242, 129
368498960, 3714, 14307, -5648, 4247, 2852, 814, -3378, 1535, -218, -780, 44, 37, 48, 41, 51, 132, 242, 129
368504062, 3714, 14307, -5648, 4247, 2852, 814, -3378, 1535, -218, -780, 44, 37, 48, 41, 51, 132, 242, 129
368505041, 3454, 14384, -5587, 4285, 3010, 692, -3839, 1415, -365, -113, 44, 37, 48, 41, 51, 132, 242, 129
368505814, 3454, 14384, -5587, 4285, 3010, 692, -3839, 1415, -365, -113, 52, 38, 44, 41, 52, 138, 261, 144
368506689, 3454, 14384, -5587, 4285, 3010, 692, -3839, 1415, -365, -113, 52, 38, 44, 41, 52, 138, 261, 144
368511663, 3454, 14384, -5587, 4285, 3010, 692, -3839, 1415, -365, -113, 52, 38, 44, 41, 52, 138, 261, 144
368512505, 3454, 14384, -5587, 4285, 3010, 692, -3839, 1415, -365, -113, 52, 38, 44, 41, 52, 138, 261, 144
368513262, 3454, 14384, -5587, 4285, 3010, 692, -3839, 1415, -365, -113, 52, 38, 44, 41, 52, 138, 261, 144
368514086, 3454, 14384, -5587, 4285, 3010, 692, -3839, 1415, -365, -113, 52, 38, 44, 41, 52, 138, 261, 144
368519036, 3454, 14384, -5587, 4285, 3010, 692, -3839, 1415, -365, -113, 52, 38, 44, 41, 52, 138, 261, 144
368519867, 3454, 14384, -5587, 4285, 3010, 692, -3839, 1415, -365, -113, 52, 38, 44, 41, 52, 138, 261, 144
368520684, 3454, 14384, -5587, 4285, 3010, 692, -3839, 1415, -365, -113, 52, 38, 44, 41, 52, 138, 261, 144
368521493, 3454, 14384, -5587, 4285, 3010, 692, -3839, 1415, -365, -113, 52, 38, 44, 41, 52, 138, 261, 144
368526538, 3454, 14384, -5587, 4285, 3010, 692, -3839, 1415, -365, -113, 52, 38, 44, 41, 52, 138, 261, 144
368527497, 3198, 14431, -5619, 4284, 3259, 333, -4119, 1268, -598, 441, 52, 38, 44, 41, 52, 138, 261, 144
368528287, 3198, 14431, -5619, 4284, 3259, 333, -4119, 1268, -598, 441, 61, 41, 33, 38, 58, 146, 280, 144
368529105, 3198, 14431, -5619, 4284, 3259, 333, -4119, 1268, -598, 441, 61, 41, 33, 38, 58, 146, 280, 144
368534103, 3198, 14431, -5619, 4284, 3259, 333, -4119, 1268, -598, 441, 61, 41, 33, 38, 58, 146, 280, 144
368534916, 3198, 14431, -5619, 4284, 3259, 333, -4119, 1268, -598, 441, 61, 41, 33, 38, 58, 146, 280, 144
368535713, 3198, 14431, -5619, 4284, 3259, 333, -4119, 1268, -598, 441, 61, 41, 33, 38, 58, 146, 280, 144
368536560, 3198, 14431, -5619, 4284, 3259, 333, -4119, 1268, -598, 441, 61, 41, 33, 38, 58, 146, 280, 144
368541518, 3198, 14431, -5619, 4284, 3259, 333, -4119, 1268, -598, 441, 61, 41, 33, 38, 58, 146, 280, 144
368542310, 3198, 14431, -5619, 4284, 3259, 333, -4119, 1268, -598, 441, 61, 41, 33, 38, 58, 146, 280, 144
368543165, 3198, 14431, -5619, 4284, 3259, 333, -4119, 1268, -598, 441, 61, 41, 33, 38, 58, 146, 280, 144
368543942, 3198, 14431, -5619, 4284, 3259, 333, -4119, 1268, -598, 441, 61, 41, 33, 38, 58, 146, 280, 144
368549012, 3198, 14431, -5619, 4284, 3259, 333, -4119, 1268, -598, 441, 61, 41, 33, 38, 58, 146, 280, 144
368549975, 2949, 14460, -5719, 4233, 3267, 102, -4188, 1011, -882, 744, 61, 41, 33, 38, 58, 146, 280, 144
368550762, 2949, 14460, -5719, 4233, 3267, 102, -4188, 1011, -882, 744, 69, 43, 35, 32, 49, 110, 278, 170
368551674, 2949, 14460, -5719, 4233, 3267, 102, -4188, 1011, -882, 744, 69, 43, 35, 32, 49, 110, 278, 170
368556588, 2949, 14460, -5719, 4233, 3267, 102, -4188, 1011, -882, 744, 69, 43, 35, 32, 49, 110, 278, 170
368557453, 2949, 14460, -5719, 4233, 3267, 102, -4188, 1011, -882, 744, 69, 43, 35, 32, 49, 110, 278, 170
368558259, 2949, 14460, -5719, 4233, 3267, 102, -4188, 1011, -882, 744, 69, 43, 35, 32, 49, 110, 278, 170
368559065, 2949, 14460, -5719, 4233, 3267, 102, -4188, 1011, -882, 744, 69, 43, 35, 32, 49, 110, 278, 170
368564038, 2949, 14460, -5719, 4233, 3267, 102, -4188, 1011, -882, 744, 69, 43, 35, 32, 49, 110, 278, 170
368564889, 2949, 14460, -5719, 4233, 3267, 102, -4188, 1011, -882, 744, 69, 43, 35, 32, 49, 110, 278, 170
368565688, 2949, 14460, -5719, 4233, 3267, 102, -4188, 1011, -882, 744, 69, 43, 35, 32, 49, 110, 278, 170
368566531, 2949, 14460, -5719, 4233, 3267, 102, -4188, 1011, -882, 744, 69, 43, 35, 32, 49, 110, 278, 170
368571584, 2949, 14460, -5719, 4233, 3267, 102, -4188, 1011, -882, 744, 69, 43, 35, 32, 49, 110, 278, 170
368572513, 2747, 14450, -5932, 4109, 3056, 197, -4208, 436, -1207, 1240, 69, 43, 35, 32, 49, 110, 278, 170
368573313, 2747, 14450, -5932, 4109, 3056, 197, -4208, 436, -1207, 1240, 77, 48, 36, 28, 54, 116, 305, 203
368574179, 2747, 14450, -5932, 4109, 3056, 197, -4208, 436, -1207, 1240, 77, 48, 36, 28, 54, 116, 305, 203
368579138, 2747, 14450, -5932, 4109, 3056, 197, -4208, 436, -1207, 1240, 77, 48, 36, 28, 54, 116, 305, 203
368579960, 2747, 14450, -5932, 4109, 3056, 197, -4208, 436, -1207, 1240, 77, 48, 36, 28, 54, 116, 305, 203
368580792, 2747, 14450, -5932, 4109, 3056, 197, -4208, 436, -1207, 1240, 77, 48, 36, 28, 54, 116, 305, 203
368581689, 2747, 14450, -5932, 4109, 3056, 197, -4208, 436, -1207, 1240, 77, 48, 36, 28, 54, 116, 305, 203
368586552, 2747, 14450, -5932, 4109, 3056, 197, -4208, 436, -1207, 1240, 77, 48, 36, 28, 54, 116, 305, 203
368587371, 2747, 14450, -5932, 4109, 3056, 197, -4208, 436, -1207, 1240, 77, 48, 36, 28, 54, 116, 305, 203
368588162, 2747, 14450, -5932, 4109, 3056, 197, -4208, 436, -1207, 1240, 77, 48, 36, 28, 54, 116, 305, 203
368588989, 2747, 14450, -5932, 4109, 3056, 197, -4208, 436, -1207, 1240, 77, 48, 36, 28, 54, 116, 305, 203
368594039, 2747, 14450, -5932, 4109, 3056, 197, -4208, 436, -1207, 1240, 77, 48, 36, 28, 54, 116, 305, 203
368595035, 2531, 14380, -6311, 3925, 2854, 276, -4335, 99, -1605, 2140, 77, 48, 36, 28, 54, 116, 305, 203
368595789, 2531, 14380, -6311, 3925, 2854, 276, -4335, 99, -1605, 2140, 98, 48, 37, 27, 53, 125, 312, 238
368596703, 2531, 14380, -6311, 3925, 2854, 276, -4335, 99, -1605, 2140, 98, 48, 37, 27, 53, 125, 312, 238
368601663, 2531, 14380, -6311, 3925, 2854, 276, -4335, 99, -1605, 2140, 98, 48, 37, 27, 53, 125, 312, 238
368602438, 2531, 14380, -6311, 3925, 2854, 276, -4335, 99, -1605, 2140, 98, 48, 37, 27, 53, 125, 312, 238
368603236, 2531, 14380, -6311, 3925, 2854, 276, -4335, 99, -1605, 2140, 98, 48, 37, 27, 53, 125, 312, 238
368604091, 2531, 14380, -6311, 3925, 2854, 276, -4335, 99, -1605, 2140, 98, 48, 37, 27, 53, 125, 312, 238
368609013, 2531, 14380, -6311, 3925, 2854, 276, -4335, 99, -1605, 2140, 98, 48, 37, 27, 53, 125, 312, 238
368609826, 2531, 14380, -6311, 3925, 2854, 276, -4335, 99, -1605, 2140, 98, 48, 37, 27, 53, 125, 312, 238
368610663, 2531, 14380, -6311, 3925, 2854, 276, -4335, 99, -1605, 2140, 98, 48, 37, 27, 53, 125, 312, 238
368611481, 2531, 14380, -6311, 3925, 2854, 276, -4335, 99, -1605, 2140, 98, 48, 37, 27, 53, 125, 312, 238
368616514, 2531, 14380, -6311, 3925, 2854, 276, -4335, 99, -1605, 2140, 98, 48, 37, 27, 53, 125, 312, 238
368617456, 2403, 14221, -6908, 3562, 2639, 485, -4232, -1079, -2384, 3146, 98, 48, 37, 27, 53, 125, 312, 238
368618262, 2403, 14221, -6908, 3562, 2639, 485, -4232, -1079, -2384, 3146, 144, 73, 47, 33, 63, 178, 509, 403
368619115, 2403, 14221, -6908, 3562, 2639, 485, -4232, -1079, -2384, 3146, 144, 73, 47, 33, 63, 178, 509, 403
368624096, 2403, 14221, -6908, 3562, 2639, 485, -4232, -1079, -2384, 3146, 144, 73, 47, 33, 63, 178, 509, 403
368624916, 2403, 14221, -6908, 3562, 2639, 485, -4232, -1079, -2384, 3146, 144, 73, 47, 33, 63, 178, 509, 403
368625742, 2403, 14221, -6908, 3562, 2639, 485, -4232, -1079, -2384, 3146, 144, 73, 47, 33, 63, 178, 509, 403
368626541, 2403, 14221, -6908, 3562, 2639, 485, -4232, -1079, -2384, 3146, 144, 73, 47, 33, 63, 178, 509, 403
368631564, 2403, 14221, -6908, 3562, 2639, 485, -4232, -1079, -2384, 3146, 144, 73, 47, 33, 63, 178, 509, 403
368632343, 2403, 14221, -6908, 3562, 2639, 485, -4232, -1079, -2384, 3146, 144, 73, 47, 33, 63, 178, 509, 403
368633162, 2403, 14221, -6908, 3562, 2639, 485, -4232, -1079, -2384, 3146, 144, 73, 47, 33, 63, 178, 509, 403
368633985, 2403, 14221, -6908, 3562, 2639, 485, -4232, -1079, -2384, 3146, 144, 73, 47, 33, 63, 178, 509, 403
368639068, 2403, 14221, -6908, 3562, 2639, 485, -4232, -1079, -2384, 3146, 144, 73, 47, 33, 63, 178, 509, 403
368639990, 2357, 13948, -7697, 3012, 2568, 590, -4071, -2228, -3164, 4098, 144, 73, 47, 33, 63, 178, 509, 403
368640819, 2357, 13948, -7697, 3012, 2568, 590, -4071, -2228, -3164, 4098, 180, 82, 51, 33, 73, 213, 543, 489
368641670, 2357, 13948, -7697, 3012, 2568, 590, -4071, -2228, -3164, 4098, 180, 82, 51, 33, 73, 213, 543, 489
368646666, 2357, 13948, -7697, 3012, 2568, 590, -4071, -2228, -3164, 4098, 180, 82, 51, 33, 73, 213, 543, 489
368647480, 2357, 13948, -7697, 3012, 2568, 590, -4071, -2228, -3164, 4098, 180, 82, 51, 33, 73, 213, 543, 489
368648263, 2357, 13948, -7697, 3012, 2568, 590, -4071, -2228, -3164, 4098, 180, 82, 51, 33, 73, 213, 543, 489
368649089, 2357, 13948, -7697, 3012, 2568, 590, -4071, -2228, -3164, 4098, 180, 82, 51, 33, 73, 213, 543, 489
368654013, 2357, 13948, -7697, 3012, 2568, 590, -4071, -2228, -3164, 4098, 180, 82, 51, 33, 73, 213, 543, 489
368654867, 2357, 13948, -7697, 3012, 2568, 590, -4071, -2228, -3164, 4098, 180, 82, 51, 33, 73, 213, 543, 489
368655685, 2357, 13948, -7697, 3012, 2568, 590, -4071, -2228, -3164, 4098, 180, 82, 51, 33, 73, 213, 543, 489
368656506, 2357, 13948, -7697, 3012, 2568, 590, -4071, -2228, -3164, 4098, 180, 82, 51, 33, 73, 213, 543, 489
368661590, 2357, 13948, -7697, 3012, 2568, 590, -4071, -2228, -3164, 4098, 180, 82, 51, 33, 73, 213, 543, 489
368662498, 2463, 13536, -8609, 2243, 2508, 1290, -3940, -3699, -3808, 4756, 180, 82, 51, 33, 73, 213, 543, 489
368663318, 2463, 13536, -8609, 2243, 2508, 1290, -3940, -3699, -3808, 4756, 197, 86, 52, 31, 74, 246, 573, 517
368664088, 2463, 13536, -8609, 2243, 2508, 1290, -3940, -3699, -3808, 4756, 197, 86, 52, 31, 74, 246, 573, 517
368669141, 2463, 13536, -8609, 2243, 2508, 1290, -3940, -3699, -3808, 4756, 197, 86, 52, 31, 74, 246, 573, 517
368669913, 2463, 13536, -8609, 2243, 2508, 1290, -3940, -3699, -3808, 4756, 197, 86, 52, 31, 74, 246, 573, 517
368670765, 2463, 13536, -8609, 2243, 2508, 1290, -3940, -3699, -3808, 4756, 197, 86, 52, 31, 74, 246, 573, 517
368671541, 2463, 13536, -8609, 2243, 2508, 1290, -3940, -3699, -3808, 4756, 197, 86, 52, 31, 74, 246, 573, 517
368676511, 2463, 13536, -8609, 2243, 2508, 1290, -3940, -3699, -3808, 4756, 197, 86, 52, 31, 74, 246, 573, 517
368677329, 2463, 13536, -8609, 2243, 2508, 1290, -3940, -3699, -3808, 4756, 197, 86, 52, 31, 74, 246, 573, 517
368678116, 2463, 13536, -8609, 2243, 2508, 1290, -3940, -3699, -3808, 4756, 197, 86, 52, 31, 74, 246, 573, 517
368678940, 2463, 13536, -8609, 2243, 2508, 1290, -3940, -3699, -3808, 4756, 197, 86, 52, 31, 74, 246, 573, 517
368684063, 2463, 13536, -8609, 2243, 2508, 1290, -3940, -3699, -3808, 4756, 197, 86, 52, 31, 74, 246, 573, 517
368685048, 2584, 12980, -9555, 1407, 2056, 1816, -4818, -4223, -3893, 5228, 197, 86, 52, 31, 74, 246, 573, 517
368685821, 2584, 12980, -9555, 1407, 2056, 1816, -4818, -4223, -3893, 5228, 205, 88, 76, 54, 88, 303, 643, 600
368686664, 2584, 12980, -9555, 1407, 2056, 1816, -4818, -4223, -3893, 5228, 205, 88, 76, 54, 88, 303, 643, 600
368691683, 2584, 12980, -9555, 1407, 2056, 1816, -4818, -4223, -3893, 5228, 205, 88, 76, 54, 88, 303, 643, 600
368692465, 2584, 12980, -9555, 1407, 2056, 1816, -4818, -4223, -3893, 5228, 205, 88, 76, 54, 88, 303, 643, 600
368693263, 2584, 12980, -9555, 1407, 2056, 1816, -4818, -4223, -3893, 5228, 205, 88, 76, 54, 88, 303, 643, 600
368694115, 2584, 12980, -9555, 1407, 2056, 1816, -4818, -4223, -3893, 5228, 205, 88, 76, 54, 88, 303, 643, 600
368699038, 2584, 12980, -9555, 1407, 2056, 1816, -4818, -4223, -3893, 5228, 205, 88, 76, 54, 88, 303, 643, 600
368699862, 2584, 12980, -9555, 1407, 2056, 1816, -4818, -4223, -3893, 5228, 205, 88, 76, 54, 88, 303, 643, 600
368700663, 2584, 12980, -9555, 1407, 2056, 1816, -4818, -4223, -3893, 5228, 205, 88, 76, 54, 88, 303, 643, 600
368701506, 2584, 12980, -9555, 1407, 2056, 1816, -4818, -4223, -3893, 5228, 205, 88, 76, 54, 88, 303, 643, 600
368706560, 2584, 12980, -9555, 1407, 2056, 1816, -4818, -4223, -3893, 5228, 205, 88, 76, 54, 88, 303, 643, 600
368707512, 2828, 12271, -10476, 340, 2310, 2069, -5172, -5657, -4426, 5362, 205, 88, 76, 54, 88, 303, 643, 600
368708311, 2828, 12271, -10476, 340, 2310, 2069, -5172, -5657, -4426, 5362, 210, 189, 272, 114, 98, 347, 741, 675
368709141, 2828, 12271, -10476, 340, 2310, 2069, -5172, -5657, -4426, 5362, 210, 189, 272, 114, 98, 347, 741, 675
368714113, 2828, 12271, -10476, 340, 2310, 2069, -5172, -5657, -4426, 5362, 210, 189, 272, 114, 98, 347, 741, 675
368714977, 2828, 12271, -10476, 340, 2310, 2069, -5172, -5657, -4426, 5362, 210, 189, 272, 114, 98, 347, 741, 675
368715765, 2828, 12271, -10476, 340, 2310, 2069, -5172, -5657, -4426, 5362, 210, 189, 272, 114, 98, 347, 741, 675
368716606, 2828, 12271, -10476, 340, 2310, 2069, -5172, -5657, -4426, 5362, 210, 189, 272, 114, 98, 347, 741, 675
368721514, 2828, 12271, -10476, 340, 2310, 2069, -5172, -5657, -4426, 5362, 210, 189, 272, 114, 98, 347, 741, 675
368722359, 2828, 12271, -10476, 340, 2310, 2069, -5172, -5657, -4426, 5362, 210, 189, 272, 114, 98, 347, 741, 675
368723138, 2828, 12271, -10476, 340, 2310, 2069, -5172, -5657, -4426, 5362, 210, 189, 272, 114, 98, 347, 741, 675
368724004, 2828, 12271, -10476, 340, 2310, 2069, -5172, -5657, -4426, 5362, 210, 189, 272, 114, 98, 347, 741, 675
368729013, 2828, 12271, -10476, 340, 2310, 2069, -5172, -5657, -4426, 5362, 210, 189, 272, 114, 98, 347, 741, 675
368729976, 2961, 11521, -11233, -869, 3388, 3041, -3743, -5726, -5261, 4698, 210, 189, 272, 114, 98, 347, 741, 675
368730762, 2961, 11521, -11233, -869, 3388, 3041, -3743, -5726, -5261, 4698, 199, 220, 342, 148, 107, 342, 716, 702
368731689, 2961, 11521, -11233, -869, 3388, 3041, -3743, -5726, -5261, 4698, 199, 220, 342, 148, 107, 342, 716, 702
368736667, 2961, 11521, -11233, -869, 3388, 3041, -3743, -5726, -5261, 4698, 199, 220, 342, 148, 107, 342, 716, 702
368737343, 2961, 11521, -11233, -869, 3388, 3041, -3743, -5726, -5261, 4698, 199, 220, 342, 148, 107, 342, 716, 702
368738215, 2961, 11521, -11233, -869, 3388, 3041, -3743, -5726, -5261, 4698, 199, 220, 342, 148, 107, 342, 716, 702
368739037, 2961, 11521, -11233, -869, 3388, 3041, -3743, -5726, -5261, 4698, 199, 220, 342, 148, 107, 342, 716, 702
368743985, 2961, 11521, -11233, -869, 3388, 3041, -3743, -5726, -5261, 4698, 199, 220, 342, 148, 107, 342, 716, 702
368744801, 2961, 11521, -11233, -869, 3388, 3041, -3743, -5726, -5261, 4698, 199, 220, 342, 148, 107, 342, 716, 702
368745660, 2961, 11521, -11233, -869, 3388, 3041, -3743, -5726, -5261, 4698, 199, 220, 342, 148, 107, 342, 716, 702
368746440, 2961, 11521, -11233, -869, 3388, 3041, -3743, -5726, -5261, 4698, 199, 220, 342, 148, 107, 342, 716, 702
368751595, 2961, 11521, -11233, -869, 3388, 3041, -3743, -5726, -5261, 4698, 199, 220, 342, 148, 107, 342, 716, 702
368752489, 3141, 10791, -11776, -1854, 3770, 430, -3836, -5083, -3965, 4003, 199, 220, 342, 148, 107, 342, 716, 702
368753334, 3141, 10791, -11776, -1854, 3770, 430, -3836, -5083, -3965, 4003, 176, 229, 357, 156, 109, 350, 707, 670
368754137, 3141, 10791, -11776, -1854, 3770, 430, -3836, -5083, -3965, 4003, 176, 229, 357, 156, 109, 350, 707, 670
368759148, 3141, 10791, -11776, -1854, 3770, 430, -3836, -5083, -3965, 4003, 176, 229, 357, 156, 109, 350, 707, 670
368759937, 3141, 10791, -11776, -1854, 3770, 430, -3836, -5083, -3965, 4003, 176, 229, 357, 156, 109, 350, 707, 670
368760803, 3141, 10791, -11776, -1854, 3770, 430, -3836, -5083, -3965, 4003, 176, 229, 357, 156, 109, 350, 707, 670
368761565, 3141, 10791, -11776, -1854, 3770, 430, -3836, -5083, -3965, 4003, 176, 229, 357, 156, 109, 350, 707, 670
368766531, 3141, 10791, -11776, -1854, 3770, 430, -3836, -5083, -3965, 4003, 176, 229, 357, 156, 109, 350, 707, 670
368767346, 3141, 10791, -11776, -1854, 3770, 430, -3836, -5083, -3965, 4003, 176, 229, 357, 156, 109, 350, 707, 670
368768165, 3141, 10791, -11776, -1854, 3770, 430, -3836, -5083, -3965, 4003, 176, 229, 357, 156, 109, 350, 707, 670
368768953, 3141, 10791, -11776, -1854, 3770, 430, -3836, -5083, -3965, 4003, 176, 229, 357, 156, 109, 350, 707, 670
368774037, 3141, 10791, -11776, -1854, 3770, 430, -3836, -5083, -3965, 4003, 176, 229, 357, 156, 109, 350, 707, 670
368774992, 3120, 10086, -12257, -2597, 4500, -1205, -1950, -3370, -3799, 3809, 176, 229, 357, 156, 109, 350, 707, 670
368775787, 3120, 10086, -12257, -2597, 4500, -1205, -1950, -3370, -3799, 3809, 189, 237, 371, 170, 109, 344, 716, 650
368776703, 3120, 10086, -12257, -2597, 4500, -1205, -1950, -3370, -3799, 3809, 189, 237, 371, 170, 109, 344, 716, 650
368781670, 3120, 10086, -12257, -2597, 4500, -1205, -1950, -3370, -3799, 3809, 189, 237, 371, 170, 109, 344, 716, 650
368782440, 3120, 10086, -12257, -2597, 4500, -1205, -1950, -3370, -3799, 3809, 189, 237, 371, 170, 109, 344, 716, 650
368783239, 3120, 10086, -12257, -2597, 4500, -1205, -1950, -3370, -3799, 3809, 189, 237, 371, 170, 109, 344, 716, 650
368784044, 3120, 10086, -12257, -2597, 4500, -1205, -1950, -3370, -3799, 3809, 189, 237, 371, 170, 109, 344, 716, 650
368788988, 3120, 10086, -12257, -2597, 4500, -1205, -1950, -3370, -3799, 3809, 189, 237, 371, 170, 109, 344, 716, 650
368789830, 3120, 10086, -12257, -2597, 4500, -1205, -1950, -3370, -3799, 3809, 189, 237, 371, 170, 109, 344, 716, 650
368790663, 3120, 10086, -12257, -2597, 4500, -1205, -1950, -3370, -3799, 3809, 189, 237, 371, 170, 109, 344, 716, 650
368791467, 3120, 10086, -12257, -2597, 4500, -1205, -1950, -3370, -3799, 3809, 189, 237, 371, 170, 109, 344, 716, 650
368796526, 3120, 10086, -12257, -2597, 4500, -1205, -1950, -3370, -3799, 3809, 189, 237, 371, 170, 109, 344, 716, 650
368797475, 2619, 9703, -12655, -2702, 4109, -1185, -531, 1233, -3221, 2419, 189, 237, 371, 170, 109, 344, 716, 650
368798285, 2619, 9703, -12655, -2702, 4109, -1185, -531, 1233, -3221, 2419, 504, 240, 376, 168, 101, 339, 683, 574
368799099, 2619, 9703, -12655, -2702, 4109, -1185, -531, 1233, -3221, 2419, 504, 240, 376, 168, 101, 339, 683, 574
368804088, 2619, 9703, -12655, -2702, 4109, -1185, -531, 1233, -3221, 2419, 504, 240, 376, 168, 101, 339, 683, 574
368804915, 2619, 9703, -12655, -2702, 4109, -1185, -531, 1233, -3221, 2419, 504, 240, 376, 168, 101, 339, 683, 574
368805712, 2619, 9703, -12655, -2702, 4109, -1185, -531, 1233, -3221, 2419, 504, 240, 376, 168, 101, 339, 683, 574
368806567, 2619, 9703, -12655, -2702, 4109, -1185, -531, 1233, -3221, 2419, 504, 240, 376, 168, 101, 339, 683, 574
368811538, 2619, 9703, -12655, -2702, 4109, -1185, -531, 1233, -3221, 2419, 504, 240, 376, 168, 101, 339, 683, 574
368812372, 2619, 9703, -12655, -2702, 4109, -1185, -531, 1233, -3221, 2419, 504, 240, 376, 168, 101, 339, 683, 574
368813163, 2619, 9703, -12655, -2702, 4109, -1185, -531, 1233, -3221, 2419, 504, 240, 376, 168, 101, 339, 683, 574
368814028, 2619, 9703, -12655, -2702, 4109, -1185, -531, 1233, -3221, 2419, 504, 240, 376, 168, 101, 339, 683, 574
368819038, 2619, 9703, -12655, -2702, 4109, -1185, -531, 1233, -3221, 2419, 504, 240, 376, 168, 101, 339, 683, 574
368820018, 2124, 9533, -12902, -2569, 3352, 2168, -916, 2292, -2080, 1214, 504, 240, 376, 168, 101, 339, 683, 574
368820788, 2124, 9533, -12902, -2569, 3352, 2168, -916, 2292, -2080, 1214, 564, 175, 273, 136, 92, 318, 656, 484
368821704, 2124, 9533, -12902, -2569, 3352, 2168, -916, 2292, -2080, 1214, 564, 175, 273, 136, 92, 318, 656, 484
368826663, 2124, 9533, -12902, -2569, 3352, 2168, -916, 2292, -2080, 1214, 564, 175, 273, 136, 92, 318, 656, 484
368827469, 2124, 9533, -12902, -2569, 3352, 2168, -916, 2292, -2080, 1214, 564, 175, 273, 136, 92, 318, 656, 484
368828284, 2124, 9533, -12902, -2569, 3352, 2168, -916, 2292, -2080, 1214, 564, 175, 273, 136, 92, 318, 656, 484
368829086, 2124, 9533, -12902, -2569, 3352, 2168, -916, 2292, -2080, 1214, 564, 175, 273, 136, 92, 318, 656, 484
368834012, 2124, 9533, -12902, -2569, 3352, 2168, -916, 2292, -2080, 1214, 564, 175, 273, 136, 92, 318, 656, 484
368834850, 2124, 9533, -12902, -2569, 3352, 2168, -916, 2292, -2080, 1214, 564, 175, 273, 136, 92, 318, 656, 484
368835683, 2124, 9533, -12902, -2569, 3352, 2168, -916, 2292, -2080, 1214, 564, 175, 273, 136, 92, 318, 656, 484
368836478, 2124, 9533, -12902, -2569, 3352, 2168, -916, 2292, -2080, 1214, 564, 175, 273, 136, 92, 318, 656, 484
368841538, 2124, 9533, -12902, -2569, 3352, 2168, -916, 2292, -2080, 1214, 564, 175, 273, 136, 92, 318, 656, 484
368842510, 1765, 9473, -13012, -2505, 2587, 3453, -1222, 1504, -1507, 354, 564, 175, 273, 136, 92, 318, 656, 484
368843310, 1765, 9473, -13012, -2505, 2587, 3453, -1222, 1504, -1507, 354, 601, 124, 184, 104, 82, 310, 612, 319
368844128, 1765, 9473, -13012, -2505, 2587, 3453, -1222, 1504, -1507, 354, 601, 124, 184, 104, 82, 310, 612, 319
368849115, 1765, 9473, -13012, -2505, 2587, 3453, -1222, 1504, -1507, 354, 601, 124, 184, 104, 82, 310, 612, 319
368849935, 1765, 9473, -13012, -2505, 2587, 3453, -1222, 1504, -1507, 354, 601, 124, 184, 104, 82, 310, 612, 319
368850739, 1765, 9473, -13012, -2505, 2587, 3453, -1222, 1504, -1507, 354, 601, 124, 184, 104, 82, 310, 612, 319
368851582, 1765, 9473, -13012, -2505, 2587, 3453, -1222, 1504, -1507, 354, 601, 124, 184, 104, 82, 310, 612, 319
368856489, 1765, 9473, -13012, -2505, 2587, 3453, -1222, 1504, -1507, 354, 601, 124, 184, 104, 82, 310, 612, 319
368857341, 1765, 9473, -13012, -2505, 2587, 3453, -1222, 1504, -1507, 354, 601, 124, 184, 104, 82, 310, 612, 319
368858114, 1765, 9473, -13012, -2505, 2587, 3453, -1222, 1504, -1507, 354, 601, 124, 184, 104, 82, 310, 612, 319
368858980, 1765, 9473, -13012, -2505, 2587, 3453, -1222, 1504, -1507, 354, 601, 124, 184, 104, 82, 310, 612, 319
368864067, 1765, 9473, -13012, -2505, 2587, 3453, -1222, 1504, -1507, 354, 601, 124, 184, 104, 82, 310, 612, 319
368865055, 1530, 9397, -13095, -2514, 2604, 3457, -1536, 740, -1188, 400, 601, 124, 184, 104, 82, 310, 612, 319
368865834, 1530, 9397, -13095, -2514, 2604, 3457, -1536, 740, -1188, 400, 607, 102, 159, 93, 73, 290, 627, 320
368866673, 1530, 9397, -13095, -2514, 2604, 3457, -1536, 740, -1188, 400, 607, 102, 159, 93, 73, 290, 627, 320
368871588, 1530, 9397, -13095, -2514, 2604, 3457, -1536, 740, -1188, 400, 607, 102, 159, 93, 73, 290, 627, 320
368872406, 1530, 9397, -13095, -2514, 2604, 3457, -1536, 740, -1188, 400, 607, 102, 159, 93, 73, 290, 627, 320
368873236, 1530, 9397, -13095, -2514, 2604, 3457, -1536, 740, -1188, 400, 607, 102, 159, 93, 73, 290, 627, 320
368874013, 1530, 9397, -13095, -2514, 2604, 3457, -1536, 740, -1188, 400, 607, 102, 159, 93, 73, 290, 627, 320
368879055, 1530, 9397, -13095, -2514, 2604, 3457, -1536, 740, -1188, 400, 607, 102, 159, 93, 73, 290, 627, 320
368879854, 1530, 9397, -13095, -2514, 2604, 3457, -1536, 740, -1188, 400, 607, 102, 159, 93, 73, 290, 627, 320
368880685, 1530, 9397, -13095, -2514, 2604, 3457, -1536, 740, -1188, 400, 607, 102, 159, 93, 73, 290, 627, 320
368881487, 1530, 9397, -13095, -2514, 2604, 3457, -1536, 740, -1188, 400, 607, 102, 159, 93, 73, 290, 627, 320
368886566, 1530, 9397, -13095, -2514, 2604, 3457, -1536, 740, -1188, 400, 607, 102, 159, 93, 73, 290, 627, 320
368887472, 1344, 9292, -13196, -2484, 2633, 3473, -1507, 765, -877, 651, 607, 102, 159, 93, 73, 290, 627, 320
368888311, 1344, 9292, -13196, -2484, 2633, 3473, -1507, 765, -877, 651, 599, 77, 131, 72, 72, 274, 601, 315
368889134, 1344, 9292, -13196, -2484, 2633, 3473, -1507, 765, -877, 651, 599, 77, 131, 72, 72, 274, 601, 315
368894136, 1344, 9292, -13196, -2484, 2633, 3473, -1507, 765, -877, 651, 599, 77, 131, 72, 72, 274, 601, 315
368894938, 1344, 9292, -13196, -2484, 2633, 3473, -1507, 765, -877, 651, 599, 77, 131, 72, 72, 274, 601, 315
368895778, 1344, 9292, -13196, -2484, 2633, 3473, -1507, 765, -877, 651, 599, 77, 131, 72, 72, 274, 601, 315
368896566, 1344, 9292, -13196, -2484, 2633, 3473, -1507, 765, -877, 651, 599, 77, 131, 72, 72, 274, 601, 315
368901537, 1344, 9292, -13196, -2484, 2633, 3473, -1507, 765, -877, 651, 599, 77, 131, 72, 72, 274, 601, 315
368902364, 1344, 9292, -13196, -2484, 2633, 3473, -1507, 765, -877, 651, 599, 77, 131, 72, 72, 274, 601, 315
368903152, 1344, 9292, -13196, -2484, 2633, 3473, -1507, 765, -877, 651, 599, 77, 131, 72, 72, 274, 601, 315
368903963, 1344, 9292, -13196, -2484, 2633, 3473, -1507, 765, -877, 651, 599, 77, 131, 72, 72, 274, 601, 315
368909040, 1344, 9292, -13196, -2484, 2633, 3473, -1507, 765, -877, 651, 599, 77, 131, 72, 72, 274, 601, 315
368909965, 1315, 9198, -13255, -2530, 2403, 3510, -1833, -108, -388, 564, 599, 77, 131, 72, 72, 274, 601, 315
368910792, 1315, 9198, -13255, -2530, 2403, 3510, -1833, -108, -388, 564, 370, 66, 108, 66, 72, 245, 681, 324
368911685, 1315, 9198, -13255, -2530, 2403, 3510, -1833, -108, -388, 564, 370, 66, 108, 66, 72, 245, 681, 324
368916601, 1315, 9198, -13255, -2530, 2403, 3510, -1833, -108, -388, 564, 370, 66, 108, 66, 72, 245, 681, 324
368917413, 1315, 9198, -13255, -2530, 2403, 3510, -1833, -108, -388, 564, 370, 66, 108, 66, 72, 245, 681, 324
368918224, 1315, 9198, -13255, -2530, 2403, 3510, -1833, -108, -388, 564, 370, 66, 108, 66, 72, 245, 681, 324
368919040, 1315, 9198, -13255, -2530, 2403, 3510, -1833, -108, -388, 564, 370, 66, 108, 66, 72, 245, 681, 324
368923991, 1315, 9198, -13255, -2530, 2403, 3510, -1833, -108, -388, 564, 370, 66, 108, 66, 72, 245, 681, 324
368924814, 1315, 9198, -13255, -2530, 2403, 3510, -1833, -108, -388, 564, 370, 66, 108, 66, 72, 245, 681, 324
368925654, 1315, 9198, -13255, -2530, 2403, 3510, -1833, -108, -388, 564, 370, 66, 108, 66, 72, 245, 681, 324
368926417, 1315, 9198, -13255, -2530, 2403, 3510, -1833, -108, -388, 564, 370, 66, 108, 66, 72, 245, 681, 324
368931557, 1315, 9198, -13255, -2530, 2403, 3510, -1833, -108, -388, 564, 370, 66, 108, 66, 72, 245, 681, 324
368932508, 1441, 9103, -13266, -2741, 2261, 2758, -2219, -1388, -178, 474, 370, 66, 108, 66, 72, 245, 681, 324
368933311, 1441, 9103, -13266, -2741, 2261, 2758, -2219, -1388, -178, 474, 263, 59, 117, 63, 76, 229, 665, 311
368934133, 1441, 9103, -13266, -2741, 2261, 2758, -2219, -1388, -178, 474, 263, 59, 117, 63, 76, 229, 665, 311
368939140, 1441, 9103, -13266, -2741, 2261, 2758, -2219, -1388, -178, 474, 263, 59, 117, 63, 76, 229, 665, 311
368939967, 1441, 9103, -13266, -2741, 2261, 2758, -2219, -1388, -178, 474, 263, 59, 117, 63, 76, 229, 665, 311
368940785, 1441, 9103, -13266, -2741, 2261, 2758, -2219, -1388, -178, 474, 263, 59, 117, 63, 76, 229, 665, 311
368941593, 1441, 9103, -13266, -2741, 2261, 2758, -2219, -1388, -178, 474, 263, 59, 117, 63, 76, 229, 665, 311
368946513, 1441, 9103, -13266, -2741, 2261, 2758, -2219, -1388, -178, 474, 263, 59, 117, 63, 76, 229, 665, 311
368947372, 1441, 9103, -13266, -2741, 2261, 2758, -2219, -1388, -178, 474, 263, 59, 117, 63, 76, 229, 665, 311
368948163, 1441, 9103, -13266, -2741, 2261, 2758, -2219, -1388, -178, 474, 263, 59, 117, 63, 76, 229, 665, 311
368948989, 1441, 9103, -13266, -2741, 2261, 2758, -2219, -1388, -178, 474, 263, 59, 117, 63, 76, 229, 665, 311
368954041, 1441, 9103, -13266, -2741, 2261, 2758, -2219, -1388, -178, 474, 263, 59, 117, 63, 76, 229, 665, 311
368954957, 1818, 8955, -13285, -2908, 2257, 2061, -2400, -1477, -130, 489, 263, 59, 117, 63, 76, 229, 665, 311
368955779, 1818, 8955, -13285, -2908, 2257, 2061, -2400, -1477, -130, 489, 150, 52, 109, 49, 71, 208, 725, 305
368956638, 1818, 8955, -13285, -2908, 2257, 2061, -2400, -1477, -130, 489, 150, 52, 109, 49, 71, 208, 725, 305
368961662, 1818, 8955, -13285, -2908, 2257, 2061, -2400, -1477, -130, 489, 150, 52, 109, 49, 71, 208, 725, 305
368962455, 1818, 8955, -13285, -2908, 2257, 2061, -2400, -1477, -130, 489, 150, 52, 109, 49, 71, 208, 725, 305
368963260, 1818, 8955, -13285, -2908, 2257, 2061, -2400, -1477, -130, 489, 150, 52, 109, 49, 71, 208, 725, 305
368964065, 1818, 8955, -13285, -2908, 2257, 2061, -2400, -1477, -130, 489, 150, 52, 109, 49, 71, 208, 725, 305
368968993, 1818, 8955, -13285, -2908, 2257, 2061, -2400, -1477, -130, 489, 150, 52, 109, 49, 71, 208, 725, 305
368969841, 1818, 8955, -13285, -2908, 2257, 2061, -2400, -1477, -130, 489, 150, 52, 109, 49, 71, 208, 725, 305
368970662, 1818, 8955, -13285, -2908, 2257, 2061, -2400, -1477, -130, 489, 150, 52, 109, 49, 71, 208, 725, 305
368971467, 1818, 8955, -13285, -2908, 2257, 2061, -2400, -1477, -130, 489, 150, 52, 109, 49, 71, 208, 725, 305
368976513, 1818, 8955, -13285, -2908, 2257, 2061, -2400, -1477, -130, 489, 150, 52, 109, 49, 71, 208, 725, 305
368977428, 2099, 8839, -13315, -2934, 2265, 1954, -2543, -639, -64, 367, 150, 52, 109, 49, 71, 208, 725, 305
368978249, 2099, 8839, -13315, -2934, 2265, 1954, -2543, -639, -64, 367, 111, 49, 116, 49, 66, 194, 721, 255
368979078, 2099, 8839, -13315, -2934, 2265, 1954, -2543, -639, -64, 367, 111, 49, 116, 49, 66, 194, 721, 255
