Timestamp, Orientation x, Orientation y, Orientation z, Orientation w, Acceleration x, Acceleration y, Acceleration z, Rotation x, Rotation y, Rotation z, EMG 0, EMG 1, EMG 2, EMG 3, EMG 4, EMG 5, EMG 6, EMG 7
144776098, 7196, -467, -13326, 6232, 4001, 808, -2214, 22, -2, -5, 0, 0, 0, 0, 0, 0, 0, 0
144783600, 7196, -467, -13326, 6232, 3989, 789, -2218, 12, -3, -2, 0, 0, 0, 0, 0, 0, 0, 0
144798589, 7196, -467, -13326, 6232, 4007, 793, -2214, 11, -6, -2, 0, 0, 0, 0, 0, 0, 0, 0
144821065, 7196, -467, -13326, 6232, 4018, 795, -2193, 12, -1, 2, 0, 0, 0, 0, 0, 0, 0, 0
144844901, 7196, -467, -13326, 6232, 4021, 809, -2206, 11, 1, -1, 0, 0, 0, 0, 0, 0, 0, 0
144845730, 7196, -467, -13326, 6232, 4021, 809, -2206, 11, 1, -1, 32, 25, 24, 27, 26, 32, 120, 25
144846519, 7196, -467, -13326, 6232, 4021, 809, -2206, 11, 1, -1, 32, 25, 24, 27, 26, 32, 120, 25
144858594, 7196, -467, -13326, 6232, 4003, 797, -2205, 0, 2, -5, 32, 25, 24, 27, 26, 32, 120, 25
144866712, 7196, -467, -13326, 6232, 4003, 797, -2205, 0, 2, -5, 28, 26, 22, 27, 29, 32, 116, 27
144867567, 7196, -467, -13326, 6232, 4003, 797, -2205, 0, 2, -5, 28, 26, 22, 27, 29, 32, 116, 27
144881021, 7196, -467, -13326, 6232, 3994, 800, -2224, 8, 1, -9, 28, 26, 22, 27, 29, 32, 116, 27
144889245, 7196, -467, -13326, 6232, 3994, 800, -2224, 8, 1, -9, 28, 27, 26, 27, 28, 37, 131, 27
144890008, 7196, -467, -13326, 6232, 3994, 800, -2224, 8, 1, -9, 28, 27, 26, 27, 28, 37, 131, 27
144906291, 7197, -464, -13325, 6234, 4002, 796, -2221, 17, 0, -11, 28, 27, 26, 27, 28, 37, 131, 27
144907138, 7197, -464, -13325, 6234, 4002, 796, -2221, 17, 0, -11, 28, 27, 26, 27, 28, 37, 131, 27
144907941, 7196, -467, -13326, 6232, 4001, 808, -2214, 22, -2, -5, 28, 27, 26, 27, 28, 37, 131, 27
144908756, 7196, -467, -13326, 6232, 3989, 789, -2218, 12, -3, -2, 28, 27, 26, 27, 28, 37, 131, 27
144913717, 7196, -467, -13326, 6232, 4007, 793, -2214, 11, -6, -2, 28, 27, 26, 27, 28, 37, 131, 27
144914546, 7196, -467, -13326, 6232, 4018, 795, -2193, 12, -1, 2, 28, 27, 26, 27, 28, 37, 131, 27
144915364, 7196, -467, -13326, 6232, 4021, 809, -2206, 11, 1, -1, 28, 27, 26, 27, 28, 37, 131, 27
144916187, 7196, -467, -13326, 6232, 4021, 809, -2206, 11, 1, -1, 32, 25, 24, 27, 26, 32, 120, 25
144921270, 7196, -467, -13326, 6232, 4021, 809, -2206, 11, 1, -1, 28, 26, 22, 27, 29, 32, 116, 27
144922116, 7196, -467, -13326, 6232, 4021, 809, -2206, 11, 1, -1, 28, 26, 22, 27, 29, 32, 116, 27
144922889, 7196, -467, -13326, 6232, 4021, 809, -2206, 11, 1, -1, 28, 26, 22, 27, 29, 32, 116, 27
144923754, 7196, -467, -13326, 6232, 4021, 809, -2206, 11, 1, -1, 28, 26, 22, 27, 29, 32, 116, 27
144928666, 7196, -467, -13326, 6232, 4021, 809, -2206, 11, 1, -1, 28, 26, 22, 27, 29, 32, 116, 27
144929469, 7196, -467, -13326, 6232, 4021, 809, -2206, 11, 1, -1, 28, 26, 22, 27, 29, 32, 116, 27
144930289, 7196, -467, -13326, 6232, 4021, 809, -2206, 11, 1, -1, 28, 26, 22, 27, 29, 32, 116, 27
144931122, 7196, -467, -13326, 6232, 4021, 809, -2206, 11, 1, -1, 28, 26, 22, 27, 29, 32, 116, 27
144936235, 7196, -467, -13326, 6232, 4021, 809, -2206, 11, 1, -1, 28, 26, 22, 27, 29, 32, 116, 27
144937154, 7196, -467, -13326, 6232, 3994, 800, -2224, 8, 1, -9, 28, 26, 22, 27, 29, 32, 116, 27
144937984, 7196, -467, -13326, 6232, 3994, 800, -2224, 8, 1, -9, 28, 27, 26, 27, 28, 37, 131, 27
144938780, 7196, -467, -13326, 6232, 3994, 800, -2224, 8, 1, -9, 28, 27, 26, 27, 28, 37, 131, 27
144943785, 7196, -467, -13326, 6232, 3994, 800, -2224, 8, 1, -9, 28, 27, 26, 27, 28, 37, 131, 27
144944660, 7196, -467, -13326, 6232, 3994, 800, -2224, 8, 1, -9, 28, 27, 26, 27, 28, 37, 131, 27
144945467, 7196, -467, -13326, 6232, 3994, 800, -2224, 8, 1, -9, 28, 27, 26, 27, 28, 37, 131, 27
144946265, 7196, -467, -13326, 6232, 3994, 800, -2224, 8, 1, -9, 28, 27, 26, 27, 28, 37, 131, 27
144951232, 7196, -467, -13326, 6232, 3994, 800, -2224, 8, 1, -9, 28, 27, 26, 27, 28, 37, 131, 27
144952041, 7196, -467, -13326, 6232, 3994, 800, -2224, 8, 1, -9, 28, 27, 26, 27, 28, 37, 131, 27
144952812, 7196, -467, -13326, 6232, 3994, 800, -2224, 8, 1, -9, 28, 27, 26, 27, 28, 37, 131, 27
144953692, 7196, -467, -13326, 6232, 3994, 800, -2224, 8, 1, -9, 28, 27, 26, 27, 28, 37, 131, 27
144958713, 7196, -467, -13326, 6232, 3994, 800, -2224, 8, 1, -9, 28, 27, 26, 27, 28, 37, 131, 27
144959694, 7197, -464, -13325, 6234, 4002, 796, -2221, 17, 0, -11, 28, 27, 26, 27, 28, 37, 131, 27
144960490, 7197, -464, -13325, 6234, 4002, 796, -2221, 17, 0, -11, 23, 24, 24, 27, 28, 37, 133, 30
144961291, 7197, -464, -13325, 6234, 4002, 796, -2221, 17, 0, -11, 23, 24, 24, 27, 28, 37, 133, 30
144966287, 7197, -464, -13325, 6234, 4002, 796, -2221, 17, 0, -11, 23, 24, 24, 27, 28, 37, 133, 30
144967114, 7197, -464, -13325, 6234, 4002, 796, -2221, 17, 0, -11, 23, 24, 24, 27, 28, 37, 133, 30
144967912, 7197, -464, -13325, 6234, 4002, 796, -2221, 17, 0, -11, 23, 24, 24, 27, 28, 37, 133, 30
144968704, 7197, -464, -13325, 6234, 4002, 796, -2221, 17, 0, -11, 23, 24, 24, 27, 28, 37, 133, 30
144973661, 7197, -464, -13325, 6234, 4002, 796, -2221, 17, 0, -11, 23, 24, 24, 27, 28, 37, 133, 30
144974531, 7197, -464, -13325, 6234, 4002, 796, -2221, 17, 0, -11, 23, 24, 24, 27, 28, 37, 133, 30
144975335, 7197, -464, -13325, 6234, 4002, 796, -2221, 17, 0, -11, 23, 24, 24, 27, 28, 37, 133, 30
144976124, 7197, -464, -13325, 6234, 4002, 796, -2221, 17, 0, -11, 23, 24, 24, 27, 28, 37, 133, 30
144981175, 7197, -464, -13325, 6234, 4002, 796, -2221, 17, 0, -11, 23, 24, 24, 27, 28, 37, 133, 30
144982123, 7198, -461, -13323, 6237, 4017, 802, -2231, 27, 2, -7, 23, 24, 24, 27, 28, 37, 133, 30
144982965, 7198, -461, -13323, 6237, 4017, 802, -2231, 27, 2, -7, 24, 23, 25, 25, 26, 37, 131, 29
144983735, 7198, -461, -13323, 6237, 4017, 802, -2231, 27, 2, -7, 24, 23, 25, 25, 26, 37, 131, 29
144988783, 7198, -461, -13323, 6237, 4017, 802, -2231, 27, 2, -7, 24, 23, 25, 25, 26, 37, 131, 29
144989566, 7198, -461, -13323, 6237, 4017, 802, -2231, 27, 2, -7, 24, 23, 25, 25, 26, 37, 131, 29
144990428, 7198, -461, -13323, 6237, 4017, 802, -2231, 27, 2, -7, 24, 23, 25, 25, 26, 37, 131, 29
144991213, 7198, -461, -13323, 6237, 4017, 802, -2231, 27, 2, -7, 24, 23, 25, 25, 26, 37, 131, 29
144996178, 7198, -461, -13323, 6237, 4017, 802, -2231, 27, 2, -7, 24, 23, 25, 25, 26, 37, 131, 29
144996985, 7198, -461, -13323, 6237, 4017, 802, -2231, 27, 2, -7, 24, 23, 25, 25, 26, 37, 131, 29
144997804, 7198, -461, -13323, 6237, 4017, 802, -2231, 27, 2, -7, 24, 23, 25, 25, 26, 37, 131, 29
144998665, 7198, -461, -13323, 6237, 4017, 802, -2231, 27, 2, -7, 24, 23, 25, 25, 26, 37, 131, 29
145003715, 7198, -461, -13323, 6237, 4017, 802, -2231, 27, 2, -7, 24, 23, 25, 25, 26, 37, 131, 29
145004663, 7200, -457, -13320, 6242, 4012, 808, -2230, 37, 7, -8, 24, 23, 25, 25, 26, 37, 131, 29
145005465, 7200, -457, -13320, 6242, 4012, 808, -2230, 37, 7, -8, 25, 23, 25, 28, 26, 41, 126, 28
145006298, 7200, -457, -13320, 6242, 4012, 808, -2230, 37, 7, -8, 25, 23, 25, 28, 26, 41, 126, 28
145011288, 7200, -457, -13320, 6242, 4012, 808, -2230, 37, 7, -8, 25, 23, 25, 28, 26, 41, 126, 28
145012153, 7200, -457, -13320, 6242, 4012, 808, -2230, 37, 7, -8, 25, 23, 25, 28, 26, 41, 126, 28
145012913, 7200, -457, -13320, 6242, 4012, 808, -2230, 37, 7, -8, 25, 23, 25, 28, 26, 41, 126, 28
145013768, 7200, -457, -13320, 6242, 4012, 808, -2230, 37, 7, -8, 25, 23, 25, 28, 26, 41, 126, 28
145018689, 7200, -457, -13320, 6242, 4012, 808, -2230, 37, 7, -8, 25, 23, 25, 28, 26, 41, 126, 28
145019517, 7200, -457, -13320, 6242, 4012, 808, -2230, 37, 7, -8, 25, 23, 25, 28, 26, 41, 126, 28
145020313, 7200, -457, -13320, 6242, 4012, 808, -2230, 37, 7, -8, 25, 23, 25, 28, 26, 41, 126, 28
145021152, 7200, -457, -13320, 6242, 4012, 808, -2230, 37, 7, -8, 25, 23, 25, 28, 26, 41, 126, 28
145026187, 7200, -457, -13320, 6242, 4012, 808, -2230, 37, 7, -8, 25, 23, 25, 28, 26, 41, 126, 28
145027170, 7200, -455, -13319, 6245, 4007, 815, -2216, 20, -5, -5, 25, 23, 25, 28, 26, 41, 126, 28
145027938, 7200, -455, -13319, 6245, 4007, 815, -2216, 20, -5, -5, 25, 24, 26, 31, 25, 41, 101, 31
145028792, 7200, -455, -13319, 6245, 4007, 815, -2216, 20, -5, -5, 25, 24, 26, 31, 25, 41, 101, 31
145033785, 7200, -455, -13319, 6245, 4007, 815, -2216, 20, -5, -5, 25, 24, 26, 31, 25, 41, 101, 31
145034692, 7200, -455, -13319, 6245, 4007, 815, -2216, 20, -5, -5, 25, 24, 26, 31, 25, 41, 101, 31
145035342, 7200, -455, -13319, 6245, 4007, 815, -2216, 20, -5, -5, 25, 24, 26, 31, 25, 41, 101, 31
145036241, 7200, -455, -13319, 6245, 4007, 815, -2216, 20, -5, -5, 25, 24, 26, 31, 25, 41, 101, 31
145041204, 7200, -455, -13319, 6245, 4007, 815, -2216, 20, -5, -5, 25, 24, 26, 31, 25, 41, 101, 31
145041963, 7200, -455, -13319, 6245, 4007, 815, -2216, 20, -5, -5, 25, 24, 26, 31, 25, 41, 101, 31
145042813, 7200, -455, -13319, 6245, 4007, 815, -2216, 20, -5, -5, 25, 24, 26, 31, 25, 41, 101, 31
145043664, 7200, -455, -13319, 6245, 4007, 815, -2216, 20, -5, -5, 25, 24, 26, 31, 25, 41, 101, 31
145048703, 7200, -455, -13319, 6245, 4007, 815, -2216, 20, -5, -5, 25, 24, 26, 31, 25, 41, 101, 31
145049687, 7200, -455, -13319, 6245, 4033, 805, -2204, 8, -13, 3, 25, 24, 26, 31, 25, 41, 101, 31
145050440, 7200, -455, -13319, 6245, 4033, 805, -2204, 8, -13, 3, 24, 23, 26, 28, 26, 42, 95, 32
145051238, 7200, -455, -13319, 6245, 4033, 805, -2204, 8, -13, 3, 24, 23, 26, 28, 26, 42, 95, 32
145056268, 7200, -455, -13319, 6245, 4033, 805, -2204, 8, -13, 3, 24, 23, 26, 28, 26, 42, 95, 32
145057063, 7200, -455, -13319, 6245, 4033, 805, -2204, 8, -13, 3, 24, 23, 26, 28, 26, 42, 95, 32
145057870, 7200, -455, -13319, 6245, 4033, 805, -2204, 8, -13, 3, 24, 23, 26, 28, 26, 42, 95, 32
145058688, 7200, -455, -13319, 6245, 4033, 805, -2204, 8, -13, 3, 24, 23, 26, 28, 26, 42, 95, 32
145063716, 7200, -455, -13319, 6245, 4033, 805, -2204, 8, -13, 3, 24, 23, 26, 28, 26, 42, 95, 32
145064515, 7200, -455, -13319, 6245, 4033, 805, -2204, 8, -13, 3, 24, 23, 26, 28, 26, 42, 95, 32
145065317, 7200, -455, -13319, 6245, 4033, 805, -2204, 8, -13, 3, 24, 23, 26, 28, 26, 42, 95, 32
145066138, 7200, -455, -13319, 6245, 4033, 805, -2204, 8, -13, 3, 24, 23, 26, 28, 26, 42, 95, 32
145071242, 7200, -455, -13319, 6245, 4033, 805, -2204, 8, -13, 3, 24, 23, 26, 28, 26, 42, 95, 32
145072141, 7200, -455, -13319, 6245, 4019, 787, -2196, 14, -12, -9, 24, 23, 26, 28, 26, 42, 95, 32
145073004, 7200, -455, -13319, 6245, 4019, 787, -2196, 14, -12, -9, 23, 25, 27, 27, 29, 43, 89, 33
145073762, 7200, -455, -13319, 6245, 4019, 787, -2196, 14, -12, -9, 23, 25, 27, 27, 29, 43, 89, 33
145078793, 7200, -455, -13319, 6245, 4019, 787, -2196, 14, -12, -9, 23, 25, 27, 27, 29, 43, 89, 33
145079660, 7200, -455, -13319, 6245, 4019, 787, -2196, 14, -12, -9, 23, 25, 27, 27, 29, 43, 89, 33
145080399, 7200, -455, -13319, 6245, 4019, 787, -2196, 14, -12, -9, 23, 25, 27, 27, 29, 43, 89, 33
145081237, 7200, -455, -13319, 6245, 4019, 787, -2196, 14, -12, -9, 23, 25, 27, 27, 29, 43, 89, 33
145086229, 7200, -455, -13319, 6245, 4019, 787, -2196, 14, -12, -9, 23, 25, 27, 27, 29, 43, 89, 33
145087011, 7200, -455, -13319, 6245, 4019, 787, -2196, 14, -12, -9, 23, 25, 27, 27, 29, 43, 89, 33
145087822, 7200, -455, -13319, 6245, 4019, 787, -2196, 14, -12, -9, 23, 25, 27, 27, 29, 43, 89, 33
145088670, 7200, -455, -13319, 6245, 4019, 787, -2196, 14, -12, -9, 23, 25, 27, 27, 29, 43, 89, 33
145093678, 7200, -455, -13319, 6245, 4019, 787, -2196, 14, -12, -9, 23, 25, 27, 27, 29, 43, 89, 33
145094661, 7200, -455, -13319, 6245, 4011, 790, -2205, 7, -10, -13, 23, 25, 27, 27, 29, 43, 89, 33
145095433, 7200, -455, -13319, 6245, 4011, 790, -2205, 7, -10, -13, 25, 26, 25, 29, 29, 42, 90, 36
145096237, 7200, -455, -13319, 6245, 4011, 790, -2205, 7, -10, -13, 25, 26, 25, 29, 29, 42, 90, 36
145101238, 7200, -455, -13319, 6245, 4011, 790, -2205, 7, -10, -13, 25, 26, 25, 29, 29, 42, 90, 36
145102081, 7200, -455, -13319, 6245, 4011, 790, -2205, 7, -10, -13, 25, 26, 25, 29, 29, 42, 90, 36
145102884, 7200, -455, -13319, 6245, 4011, 790, -2205, 7, -10, -13, 25, 26, 25, 29, 29, 42, 90, 36
145103710, 7200, -455, -13319, 6245, 4011, 790, -2205, 7, -10, -13, 25, 26, 25, 29, 29, 42, 90, 36
145108674, 7200, -455, -13319, 6245, 4011, 790, -2205, 7, -10, -13, 25, 26, 25, 29, 29, 42, 90, 36
145109466, 7200, -455, -13319, 6245, 4011, 790, -2205, 7, -10, -13, 25, 26, 25, 29, 29, 42, 90, 36
145110330, 7200, -455, -13319, 6245, 4011, 790, -2205, 7, -10, -13, 25, 26, 25, 29, 29, 42, 90, 36
145111088, 7200, -455, -13319, 6245, 4011, 790, -2205, 7, -10, -13, 25, 26, 25, 29, 29, 42, 90, 36
145116191, 7200, -455, -13319, 6245, 4011, 790, -2205, 7, -10, -13, 25, 26, 25, 29, 29, 42, 90, 36
145117115, 7200, -455, -13319, 6245, 4014, 797, -2209, -9, -6, -16, 25, 26, 25, 29, 29, 42, 90, 36
145117934, 7200, -455, -13319, 6245, 4014, 797, -2209, -9, -6, -16, 25, 25, 26, 26, 30, 38, 92, 34
145118737, 7200, -455, -13319, 6245, 4014, 797, -2209, -9, -6, -16, 25, 25, 26, 26, 30, 38, 92, 34
145123810, 7200, -455, -13319, 6245, 4014, 797, -2209, -9, -6, -16, 25, 25, 26, 26, 30, 38, 92, 34
145124662, 7200, -455, -13319, 6245, 4014, 797, -2209, -9, -6, -16, 25, 25, 26, 26, 30, 38, 92, 34
145125421, 7200, -455, -13319, 6245, 4014, 797, -2209, -9, -6, -16, 25, 25, 26, 26, 30, 38, 92, 34
145126234, 7200, -455, -13319, 6245, 4014, 797, -2209, -9, -6, -16, 25, 25, 26, 26, 30, 38, 92, 34
145131214, 7200, -455, -13319, 6245, 4014, 797, -2209, -9, -6, -16, 25, 25, 26, 26, 30, 38, 92, 34
145132006, 7200, -455, -13319, 6245, 4014, 797, -2209, -9, -6, -16, 25, 25, 26, 26, 30, 38, 92, 34
145132830, 7200, -455, -13319, 6245, 4014, 797, -2209, -9, -6, -16, 25, 25, 26, 26, 30, 38, 92, 34
145133665, 7200, -455, -13319, 6245, 4014, 797, -2209, -9, -6, -16, 25, 25, 26, 26, 30, 38, 92, 34
145138716, 7200, -455, -13319, 6245, 4014, 797, -2209, -9, -6, -16, 25, 25, 26, 26, 30, 38, 92, 34
145139665, 7201, -455, -13320, 6241, 4011, 800, -2216, -21, 4, -14, 25, 25, 26, 26, 30, 38, 92, 34
145140483, 7201, -455, -13320, 6241, 4011, 800, -2216, -21, 4, -14, 25, 24, 26, 21, 27, 37, 90, 32
145141264, 7201, -455, -13320, 6241, 4011, 800, -2216, -21, 4, -14, 25, 24, 26, 21, 27, 37, 90, 32
145146281, 7201, -455, -13320, 6241, 4011, 800, -2216, -21, 4, -14, 25, 24, 26, 21, 27, 37, 90, 32
145147101, 7201, -455, -13320, 6241, 4011, 800, -2216, -21, 4, -14, 25, 24, 26, 21, 27, 37, 90, 32
145147940, 7201, -455, -13320, 6241, 4011, 800, -2216, -21, 4, -14, 25, 24, 26, 21, 27, 37, 90, 32
145148714, 7201, -455, -13320, 6241, 4011, 800, -2216, -21, 4, -14, 25, 24, 26, 21, 27, 37, 90, 32
145153689, 7201, -455, -13320, 6241, 4011, 800, -2216, -21, 4, -14, 25, 24, 26, 21, 27, 37, 90, 32
145154491, 7201, -455, -13320, 6241, 4011, 800, -2216, -21, 4, -14, 25, 24, 26, 21, 27, 37, 90, 32
145155330, 7201, -455, -13320, 6241, 4011, 800, -2216, -21, 4, -14, 25, 24, 26, 21, 27, 37, 90, 32
145156113, 7201, -455, -13320, 6241, 4011, 800, -2216, -21, 4, -14, 25, 24, 26, 21, 27, 37, 90, 32
145161201, 7201, -455, -13320, 6241, 4011, 800, -2216, -21, 4, -14, 25, 24, 26, 21, 27, 37, 90, 32
145162098, 7201, -455, -13320, 6241, 3993, 796, -2215, -9, 4, -8, 25, 24, 26, 21, 27, 37, 90, 32
145162914, 7201, -455, -13320, 6241, 3993, 796, -2215, -9, 4, -8, 27, 26, 24, 22, 27, 32, 131, 37
145163713, 7201, -455, -13320, 6241, 3993, 796, -2215, -9, 4, -8, 27, 26, 24, 22, 27, 32, 131, 37
145168712, 7201, -455, -13320, 6241, 3993, 796, -2215, -9, 4, -8, 27, 26, 24, 22, 27, 32, 131, 37
145169540, 7201, -455, -13320, 6241, 3993, 796, -2215, -9, 4, -8, 27, 26, 24, 22, 27, 32, 131, 37
145170362, 7201, -455, -13320, 6241, 3993, 796, -2215, -9, 4, -8, 27, 26, 24, 22, 27, 32, 131, 37
145171162, 7201, -455, -13320, 6241, 3993, 796, -2215, -9, 4, -8, 27, 26, 24, 22, 27, 32, 131, 37
145176143, 7201, -455, -13320, 6241, 3993, 796, -2215, -9, 4, -8, 27, 26, 24, 22, 27, 32, 131, 37
145176952, 7201, -455, -13320, 6241, 3993, 796, -2215, -9, 4, -8, 27, 26, 24, 22, 27, 32, 131, 37
145177759, 7201, -455, -13320, 6241, 3993, 796, -2215, -9, 4, -8, 27, 26, 24, 22, 27, 32, 131, 37
145178660, 7201, -455, -13320, 6241, 3993, 796, -2215, -9, 4, -8, 27, 26, 24, 22, 27, 32, 131, 37
145183724, 7201, -455, -13320, 6241, 3993, 796, -2215, -9, 4, -8, 27, 26, 24, 22, 27, 32, 131, 37
145184707, 7201, -455, -13320, 6241, 3989, 812, -2227, -1, -1, 3, 27, 26, 24, 22, 27, 32, 131, 37
145185490, 7201, -455, -13320, 6241, 3989, 812, -2227, -1, -1, 3, 27, 25, 23, 23, 25, 30, 142, 35
145186299, 7201, -455, -13320, 6241, 3989, 812, -2227, -1, -1, 3, 27, 25, 23, 23, 25, 30, 142, 35
145191291, 7201, -455, -13320, 6241, 3989, 812, -2227, -1, -1, 3, 27, 25, 23, 23, 25, 30, 142, 35
145192110, 7201, -455, -13320, 6241, 3989, 812, -2227, -1, -1, 3, 27, 25, 23, 23, 25, 30, 142, 35
145192912, 7201, -455, -13320, 6241, 3989, 812, -2227, -1, -1, 3, 27, 25, 23, 23, 25, 30, 142, 35
145193765, 7201, -455, -13320, 6241, 3989, 812, -2227, -1, -1, 3, 27, 25, 23, 23, 25, 30, 142, 35
145198694, 7201, -455, -13320, 6241, 3989, 812, -2227, -1, -1, 3, 27, 25, 23, 23, 25, 30, 142, 35
145199494, 7201, -455, -13320, 6241, 3989, 812, -2227, -1, -1, 3, 27, 25, 23, 23, 25, 30, 142, 35
145200312, 7201, -455, -13320, 6241, 3989, 812, -2227, -1, -1, 3, 27, 25, 23, 23, 25, 30, 142, 35
145201139, 7201, -455, -13320, 6241, 3989, 812, -2227, -1, -1, 3, 27, 25, 23, 23, 25, 30, 142, 35
145206186, 7201, -455, -13320, 6241, 3989, 812, -2227, -1, -1, 3, 27, 25, 23, 23, 25, 30, 142, 35
145207179, 7200, -454, -13319, 6244, 3999, 804, -2240, 18, -5, 5, 27, 25, 23, 23, 25, 30, 142, 35
145207939, 7200, -454, -13319, 6244, 3999, 804, -2240, 18, -5, 5, 27, 26, 23, 22, 25, 31, 145, 33
145208765, 7200, -454, -13319, 6244, 3999, 804, -2240, 18, -5, 5, 27, 26, 23, 22, 25, 31, 145, 33
145213764, 7200, -454, -13319, 6244, 3999, 804, -2240, 18, -5, 5, 27, 26, 23, 22, 25, 31, 145, 33
145214661, 7200, -454, -13319, 6244, 3999, 804, -2240, 18, -5, 5, 27, 26, 23, 22, 25, 31, 145, 33
145215341, 7200, -454, -13319, 6244, 3999, 804, -2240, 18, -5, 5, 27, 26, 23, 22, 25, 31, 145, 33
145216254, 7200, -454, -13319, 6244, 3999, 804, -2240, 18, -5, 5, 27, 26, 23, 22, 25, 31, 145, 33
145221164, 7200, -454, -13319, 6244, 3999, 804, -2240, 18, -5, 5, 27, 26, 23, 22, 25, 31, 145, 33
145222028, 7200, -454, -13319, 6244, 3999, 804, -2240, 18, -5, 5, 27, 26, 23, 22, 25, 31, 145, 33
145222788, 7200, -454, -13319, 6244, 3999, 804, -2240, 18, -5, 5, 27, 26, 23, 22, 25, 31, 145, 33
145223675, 7200, -454, -13319, 6244, 3999, 804, -2240, 18, -5, 5, 27, 26, 23, 22, 25, 31, 145, 33
145228662, 7200, -454, -13319, 6244, 3999, 804, -2240, 18, -5, 5, 27, 26, 23, 22, 25, 31, 145, 33
145229656, 7198, -452, -13319, 6247, 4037, 828, -2229, 22, -13, 3, 27, 26, 23, 22, 25, 31, 145, 33
145230393, 7198, -452, -13319, 6247, 4037, 828, -2229, 22, -13, 3, 27, 26, 24, 23, 23, 30, 151, 40
145231213, 7198, -452, -13319, 6247, 4037, 828, -2229, 22, -13, 3, 27, 26, 24, 23, 23, 30, 151, 40
145236238, 7198, -452, -13319, 6247, 4037, 828, -2229, 22, -13, 3, 27, 26, 24, 23, 23, 30, 151, 40
145237088, 7198, -452, -13319, 6247, 4037, 828, -2229, 22, -13, 3, 27, 26, 24, 23, 23, 30, 151, 40
145237863, 7198, -452, -13319, 6247, 4037, 828, -2229, 22, -13, 3, 27, 26, 24, 23, 23, 30, 151, 40
145238713, 7198, -452, -13319, 6247, 4037, 828, -2229, 22, -13, 3, 27, 26, 24, 23, 23, 30, 151, 40
145243703, 7198, -452, -13319, 6247, 4037, 828, -2229, 22, -13, 3, 27, 26, 24, 23, 23, 30, 151, 40
145244516, 7198, -452, -13319, 6247, 4037, 828, -2229, 22, -13, 3, 27, 26, 24, 23, 23, 30, 151, 40
145245359, 7198, -452, -13319, 6247, 4037, 828, -2229, 22, -13, 3, 27, 26, 24, 23, 23, 30, 151, 40
145246138, 7198, -452, -13319, 6247, 4037, 828, -2229, 22, -13, 3, 27, 26, 24, 23, 23, 30, 151, 40
145251231, 7198, -452, -13319, 6247, 4037, 828, -2229, 22, -13, 3, 27, 26, 24, 23, 23, 30, 151, 40
145252141, 7198, -446, -13317, 6251, 4019, 809, -2238, 35, -10, -15, 27, 26, 24, 23, 23, 30, 151, 40
145252989, 7198, -446, -13317, 6251, 4019, 809, -2238, 35, -10, -15, 24, 27, 23, 23, 23, 29, 151, 40
145253790, 7198, -446, -13317, 6251, 4019, 809, -2238, 35, -10, -15, 24, 27, 23, 23, 23, 29, 151, 40
145258801, 7198, -446, -13317, 6251, 4019, 809, -2238, 35, -10, -15, 24, 27, 23, 23, 23, 29, 151, 40
145259663, 7198, -446, -13317, 6251, 4019, 809, -2238, 35, -10, -15, 24, 27, 23, 23, 23, 29, 151, 40
145260407, 7198, -446, -13317, 6251, 4019, 809, -2238, 35, -10, -15, 24, 27, 23, 23, 23, 29, 151, 40
145261238, 7198, -446, -13317, 6251, 4019, 809, -2238, 35, -10, -15, 24, 27, 23, 23, 23, 29, 151, 40
145266229, 7198, -446, -13317, 6251, 4019, 809, -2238, 35, -10, -15, 24, 27, 23, 23, 23, 29, 151, 40
145266995, 7198, -446, -13317, 6251, 4019, 809, -2238, 35, -10, -15, 24, 27, 23, 23, 23, 29, 151, 40
145267841, 7198, -446, -13317, 6251, 4019, 809, -2238, 35, -10, -15, 24, 27, 23, 23, 23, 29, 151, 40
145268663, 7198, -446, -13317, 6251, 4019, 809, -2238, 35, -10, -15, 24, 27, 23, 23, 23, 29, 151, 40
145273679, 7198, -446, -13317, 6251, 4019, 809, -2238, 35, -10, -15, 24, 27, 23, 23, 23, 29, 151, 40
145274641, 7199, -441, -13316, 6253, 4009, 811, -2208, 24, -10, -22, 24, 27, 23, 23, 23, 29, 151, 40
145275417, 7199, -441, -13316, 6253, 4009, 811, -2208, 24, -10, -22, 26, 27, 21, 27, 22, 32, 106, 36
145276239, 7199, -441, -13316, 6253, 4009, 811, -2208, 24, -10, -22, 26, 27, 21, 27, 22, 32, 106, 36
145281268, 7199, -441, -13316, 6253, 4009, 811, -2208, 24, -10, -22, 26, 27, 21, 27, 22, 32, 106, 36
145282104, 7199, -441, -13316, 6253, 4009, 811, -2208, 24, -10, -22, 26, 27, 21, 27, 22, 32, 106, 36
145282890, 7199, -441, -13316, 6253, 4009, 811, -2208, 24, -10, -22, 26, 27, 21, 27, 22, 32, 106, 36
145283724, 7199, -441, -13316, 6253, 4009, 811, -2208, 24, -10, -22, 26, 27, 21, 27, 22, 32, 106, 36
145288666, 7199, -441, -13316, 6253, 4009, 811, -2208, 24, -10, -22, 26, 27, 21, 27, 22, 32, 106, 36
145289488, 7199, -441, -13316, 6253, 4009, 811, -2208, 24, -10, -22, 26, 27, 21, 27, 22, 32, 106, 36
145290289, 7199, -441, -13316, 6253, 4009, 811, -2208, 24, -10, -22, 26, 27, 21, 27, 22, 32, 106, 36
145291129, 7199, -441, -13316, 6253, 4009, 811, -2208, 24, -10, -22, 26, 27, 21, 27, 22, 32, 106, 36
145296185, 7199, -441, -13316, 6253, 4009, 811, -2208, 24, -10, -22, 26, 27, 21, 27, 22, 32, 106, 36
145297119, 7199, -436, -13316, 6253, 4023, 799, -2213, 9, -9, -25, 26, 27, 21, 27, 22, 32, 106, 36
145297912, 7199, -436, -13316, 6253, 4023, 799, -2213, 9, -9, -25, 25, 26, 23, 27, 26, 42, 101, 36
145298767, 7199, -436, -13316, 6253, 4023, 799, -2213, 9, -9, -25, 25, 26, 23, 27, 26, 42, 101, 36
145303744, 7199, -436, -13316, 6253, 4023, 799, -2213, 9, -9, -25, 25, 26, 23, 27, 26, 42, 101, 36
145304529, 7199, -436, -13316, 6253, 4023, 799, -2213, 9, -9, -25, 25, 26, 23, 27, 26, 42, 101, 36
145305369, 7199, -436, -13316, 6253, 4023, 799, -2213, 9, -9, -25, 25, 26, 23, 27, 26, 42, 101, 36
145306229, 7199, -436, -13316, 6253, 4023, 799, -2213, 9, -9, -25, 25, 26, 23, 27, 26, 42, 101, 36
145311195, 7199, -436, -13316, 6253, 4023, 799, -2213, 9, -9, -25, 25, 26, 23, 27, 26, 42, 101, 36
145312020, 7199, -436, -13316, 6253, 4023, 799, -2213, 9, -9, -25, 25, 26, 23, 27, 26, 42, 101, 36
145312813, 7199, -436, -13316, 6253, 4023, 799, -2213, 9, -9, -25, 25, 26, 23, 27, 26, 42, 101, 36
145313691, 7199, -436, -13316, 6253, 4023, 799, -2213, 9, -9, -25, 25, 26, 23, 27, 26, 42, 101, 36
145318709, 7199, -436, -13316, 6253, 4023, 799, -2213, 9, -9, -25, 25, 26, 23, 27, 26, 42, 101, 36
145319706, 7200, -430, -13315, 6254, 3998, 774, -2221, 20, -5, -26, 25, 26, 23, 27, 26, 42, 101, 36
145320443, 7200, -430, -13315, 6254, 3998, 774, -2221, 20, -5, -26, 24, 23, 24, 34, 26, 40, 100, 35
145321284, 7200, -430, -13315, 6254, 3998, 774, -2221, 20, -5, -26, 24, 23, 24, 34, 26, 40, 100, 35
145326262, 7200, -430, -13315, 6254, 3998, 774, -2221, 20, -5, -26, 24, 23, 24, 34, 26, 40, 100, 35
145327129, 7200, -430, -13315, 6254, 3998, 774, -2221, 20, -5, -26, 24, 23, 24, 34, 26, 40, 100, 35
145327913, 7200, -430, -13315, 6254, 3998, 774, -2221, 20, -5, -26, 24, 23, 24, 34, 26, 40, 100, 35
145328738, 7200, -430, -13315, 6254, 3998, 774, -2221, 20, -5, -26, 24, 23, 24, 34, 26, 40, 100, 35
145333662, 7200, -430, -13315, 6254, 3998, 774, -2221, 20, -5, -26, 24, 23, 24, 34, 26, 40, 100, 35
145334513, 7200, -430, -13315, 6254, 3998, 774, -2221, 20, -5, -26, 24, 23, 24, 34, 26, 40, 100, 35
145335288, 7200, -430, -13315, 6254, 3998, 774, -2221, 20, -5, -26, 24, 23, 24, 34, 26, 40, 100, 35
145336104, 7200, -430, -13315, 6254, 3998, 774, -2221, 20, -5, -26, 24, 23, 24, 34, 26, 40, 100, 35
145341138, 7200, -430, -13315, 6254, 3998, 774, -2221, 20, -5, -26, 24, 23, 24, 34, 26, 40, 100, 35
145342090, 7202, -424, -13313, 6258, 3997, 779, -2225, 39, 1, -21, 24, 23, 24, 34, 26, 40, 100, 35
145342912, 7202, -424, -13313, 6258, 3997, 779, -2225, 39, 1, -21, 27, 26, 21, 32, 29, 40, 122, 30
145343726, 7202, -424, -13313, 6258, 3997, 779, -2225, 39, 1, -21, 27, 26, 21, 32, 29, 40, 122, 30
145348777, 7202, -424, -13313, 6258, 3997, 779, -2225, 39, 1, -21, 27, 26, 21, 32, 29, 40, 122, 30
145349587, 7202, -424, -13313, 6258, 3997, 779, -2225, 39, 1, -21, 27, 26, 21, 32, 29, 40, 122, 30
145350416, 7202, -424, -13313, 6258, 3997, 779, -2225, 39, 1, -21, 27, 26, 21, 32, 29, 40, 122, 30
145351189, 7202, -424, -13313, 6258, 3997, 779, -2225, 39, 1, -21, 27, 26, 21, 32, 29, 40, 122, 30
145356145, 7202, -424, -13313, 6258, 3997, 779, -2225, 39, 1, -21, 27, 26, 21, 32, 29, 40, 122, 30
145357005, 7202, -424, -13313, 6258, 3997, 779, -2225, 39, 1, -21, 27, 26, 21, 32, 29, 40, 122, 30
145357763, 7202, -424, -13313, 6258, 3997, 779, -2225, 39, 1, -21, 27, 26, 21, 32, 29, 40, 122, 30
145358692, 7202, -424, -13313, 6258, 3997, 779, -2225, 39, 1, -21, 27, 26, 21, 32, 29, 40, 122, 30
145363713, 7202, -424, -13313, 6258, 3997, 779, -2225, 39, 1, -21, 27, 26, 21, 32, 29, 40, 122, 30
145364705, 7204, -418, -13310, 6262, 3970, 807, -2249, 39, -1, -22, 27, 26, 21, 32, 29, 40, 122, 30
145365473, 7204, -418, -13310, 6262, 3970, 807, -2249, 39, -1, -22, 30, 26, 25, 34, 31, 46, 161, 35
145366309, 7204, -418, -13310, 6262, 3970, 807, -2249, 39, -1, -22, 30, 26, 25, 34, 31, 46, 161, 35
145371287, 7204, -418, -13310, 6262, 3970, 807, -2249, 39, -1, -22, 30, 26, 25, 34, 31, 46, 161, 35
145372153, 7204, -418, -13310, 6262, 3970, 807, -2249, 39, -1, -22, 30, 26, 25, 34, 31, 46, 161, 35
145372935, 7204, -418, -13310, 6262, 3970, 807, -2249, 39, -1, -22, 30, 26, 25, 34, 31, 46, 161, 35
145373767, 7204, -418, -13310, 6262, 3970, 807, -2249, 39, -1, -22, 30, 26, 25, 34, 31, 46, 161, 35
145378729, 7204, -418, -13310, 6262, 3970, 807, -2249, 39, -1, -22, 30, 26, 25, 34, 31, 46, 161, 35
145379513, 7204, -418, -13310, 6262, 3970, 807, -2249, 39, -1, -22, 30, 26, 25, 34, 31, 46, 161, 35
145380322, 7204, -418, -13310, 6262, 3970, 807, -2249, 39, -1, -22, 30, 26, 25, 34, 31, 46, 161, 35
145381136, 7204, -418, -13310, 6262, 3970, 807, -2249, 39, -1, -22, 30, 26, 25, 34, 31, 46, 161, 35
145386228, 7204, -418, -13310, 6262, 3970, 807, -2249, 39, -1, -22, 30, 26, 25, 34, 31, 46, 161, 35
145387137, 7204, -407, -13314, 6254, 3977, 853, -2285, -19, -33, -73, 30, 26, 25, 34, 31, 46, 161, 35
145387944, 7204, -407, -13314, 6254, 3977, 853, -2285, -19, -33, -73, 32, 28, 38, 33, 31, 42, 164, 48
145388756, 7204, -407, -13314, 6254, 3977, 853, -2285, -19, -33, -73, 32, 28, 38, 33, 31, 42, 164, 48
145393805, 7204, -407, -13314, 6254, 3977, 853, -2285, -19, -33, -73, 32, 28, 38, 33, 31, 42, 164, 48
145394598, 7204, -407, -13314, 6254, 3977, 853, -2285, -19, -33, -73, 32, 28, 38, 33, 31, 42, 164, 48
145395386, 7204, -407, -13314, 6254, 3977, 853, -2285, -19, -33, -73, 32, 28, 38, 33, 31, 42, 164, 48
145396214, 7204, -407, -13314, 6254, 3977, 853, -2285, -19, -33, -73, 32, 28, 38, 33, 31, 42, 164, 48
145401196, 7204, -407, -13314, 6254, 3977, 853, -2285, -19, -33, -73, 32, 28, 38, 33, 31, 42, 164, 48
145401958, 7204, -407, -13314, 6254, 3977, 853, -2285, -19, -33, -73, 32, 28, 38, 33, 31, 42, 164, 48
145402787, 7204, -407, -13314, 6254, 3977, 853, -2285, -19, -33, -73, 32, 28, 38, 33, 31, 42, 164, 48
145403661, 7204, -407, -13314, 6254, 3977, 853, -2285, -19, -33, -73, 32, 28, 38, 33, 31, 42, 164, 48
145408682, 7204, -407, -13314, 6254, 3977, 853, -2285, -19, -33, -73, 32, 28, 38, 33, 31, 42, 164, 48
145409686, 7198, -401, -13335, 6216, 4059, 1026, -2392, -206, -85, -111, 32, 28, 38, 33, 31, 42, 164, 48
145410395, 7198, -401, -13335, 6216, 4059, 1026, -2392, -206, -85, -111, 39, 37, 45, 36, 37, 44, 159, 56
145411247, 7198, -401, -13335, 6216, 4059, 1026, -2392, -206, -85, -111, 39, 37, 45, 36, 37, 44, 159, 56
145416264, 7198, -401, -13335, 6216, 4059, 1026, -2392, -206, -85, -111, 39, 37, 45, 36, 37, 44, 159, 56
145417063, 7198, -401, -13335, 6216, 4059, 1026, -2392, -206, -85, -111, 39, 37, 45, 36, 37, 44, 159, 56
145417890, 7198, -401, -13335, 6216, 4059, 1026, -2392, -206, -85, -111, 39, 37, 45, 36, 37, 44, 159, 56
145418688, 7198, -401, -13335, 6216, 4059, 1026, -2392, -206, -85, -111, 39, 37, 45, 36, 37, 44, 159, 56
145423678, 7198, -401, -13335, 6216, 4059, 1026, -2392, -206, -85, -111, 39, 37, 45, 36, 37, 44, 159, 56
145424458, 7198, -401, -13335, 6216, 4059, 1026, -2392, -206, -85, -111, 39, 37, 45, 36, 37, 44, 159, 56
145425275, 7198, -401, -13335, 6216, 4059, 1026, -2392, -206, -85, -111, 39, 37, 45, 36, 37, 44, 159, 56
145426101, 7198, -401, -13335, 6216, 4059, 1026, -2392, -206, -85, -111, 39, 37, 45, 36, 37, 44, 159, 56
145431240, 7198, -401, -13335, 6216, 4059, 1026, -2392, -206, -85, -111, 39, 37, 45, 36, 37, 44, 159, 56
145432163, 7189, -406, -13373, 6143, 4102, 998, -2493, -424, -113, -143, 39, 37, 45, 36, 37, 44, 159, 56
145432985, 7189, -406, -13373, 6143, 4102, 998, -2493, -424, -113, -143, 84, 84, 75, 39, 46, 57, 180, 163
145433763, 7189, -406, -13373, 6143, 4102, 998, -2493, -424, -113, -143, 84, 84, 75, 39, 46, 57, 180, 163
145438830, 7189, -406, -13373, 6143, 4102, 998, -2493, -424, -113, -143, 84, 84, 75, 39, 46, 57, 180, 163
145439668, 7189, -406, -13373, 6143, 4102, 998, -2493, -424, -113, -143, 84, 84, 75, 39, 46, 57, 180, 163
145440370, 7189, -406, -13373, 6143, 4102, 998, -2493, -424, -113, -143, 84, 84, 75, 39, 46, 57, 180, 163
145441213, 7189, -406, -13373, 6143, 4102, 998, -2493, -424, -113, -143, 84, 84, 75, 39, 46, 57, 180, 163
145446189, 7189, -406, -13373, 6143, 4102, 998, -2493, -424, -113, -143, 84, 84, 75, 39, 46, 57, 180, 163
145447003, 7189, -406, -13373, 6143, 4102, 998, -2493, -424, -113, -143, 84, 84, 75, 39, 46, 57, 180, 163
145447786, 7189, -406, -13373, 6143, 4102, 998, -2493, -424, -113, -143, 84, 84, 75, 39, 46, 57, 180, 163
145448704, 7189, -406, -13373, 6143, 4102, 998, -2493, -424, -113, -143, 84, 84, 75, 39, 46, 57, 180, 163
145453690, 7189, -406, -13373, 6143, 4102, 998, -2493, -424, -113, -143, 84, 84, 75, 39, 46, 57, 180, 163
145454682, 7167, -355, -13434, 6039, 4046, 890, -2526, -483, -345, -453, 84, 84, 75, 39, 46, 57, 180, 163
145455429, 7167, -355, -13434, 6039, 4046, 890, -2526, -483, -345, -453, 109, 149, 132, 47, 54, 71, 224, 213
145456231, 7167, -355, -13434, 6039, 4046, 890, -2526, -483, -345, -453, 109, 149, 132, 47, 54, 71, 224, 213
145461273, 7167, -355, -13434, 6039, 4046, 890, -2526, -483, -345, -453, 109, 149, 132, 47, 54, 71, 224, 213
145462105, 7167, -355, -13434, 6039, 4046, 890, -2526, -483, -345, -453, 109, 149, 132, 47, 54, 71, 224, 213
145462888, 7167, -355, -13434, 6039, 4046, 890, -2526, -483, -345, -453, 109, 149, 132, 47, 54, 71, 224, 213
145463739, 7167, -355, -13434, 6039, 4046, 890, -2526, -483, -345, -453, 109, 149, 132, 47, 54, 71, 224, 213
145468663, 7167, -355, -13434, 6039, 4046, 890, -2526, -483, -345, -453, 109, 149, 132, 47, 54, 71, 224, 213
145469487, 7167, -355, -13434, 6039, 4046, 890, -2526, -483, -345, -453, 109, 149, 132, 47, 54, 71, 224, 213
145470289, 7167, -355, -13434, 6039, 4046, 890, -2526, -483, -345, -453, 109, 149, 132, 47, 54, 71, 224, 213
145471128, 7167, -355, -13434, 6039, 4046, 890, -2526, -483, -345, -453, 109, 149, 132, 47, 54, 71, 224, 213
145476163, 7167, -355, -13434, 6039, 4046, 890, -2526, -483, -345, -453, 109, 149, 132, 47, 54, 71, 224, 213
145477100, 7144, -259, -13526, 5865, 4007, 988, -2743, -753, -511, -829, 109, 149, 132, 47, 54, 71, 224, 213
145477893, 7144, -259, -13526, 5865, 4007, 988, -2743, -753, -511, -829, 174, 223, 182, 58, 63, 83, 279, 355
145478753, 7144, -259, -13526, 5865, 4007, 988, -2743, -753, -511, -829, 174, 223, 182, 58, 63, 83, 279, 355
145483751, 7144, -259, -13526, 5865, 4007, 988, -2743, -753, -511, -829, 174, 223, 182, 58, 63, 83, 279, 355
145484542, 7144, -259, -13526, 5865, 4007, 988, -2743, -753, -511, -829, 174, 223, 182, 58, 63, 83, 279, 355
145485395, 7144, -259, -13526, 5865, 4007, 988, -2743, -753, -511, -829, 174, 223, 182, 58, 63, 83, 279, 355
145486189, 7144, -259, -13526, 5865, 4007, 988, -2743, -753, -511, -829, 174, 223, 182, 58, 63, 83, 279, 355
145491165, 7144, -259, -13526, 5865, 4007, 988, -2743, -753, -511, -829, 174, 223, 182, 58, 63, 83, 279, 355
145491939, 7144, -259, -13526, 5865, 4007, 988, -2743, -753, -511, -829, 174, 223, 182, 58, 63, 83, 279, 355
145492793, 7144, -259, -13526, 5865, 4007, 988, -2743, -753, -511, -829, 174, 223, 182, 58, 63, 83, 279, 355
145493601, 7144, -259, -13526, 5865, 4007, 988, -2743, -753, -511, -829, 174, 223, 182, 58, 63, 83, 279, 355
145498730, 7144, -259, -13526, 5865, 4007, 988, -2743, -753, -511, -829, 174, 223, 182, 58, 63, 83, 279, 355
145499666, 7113, -109, -13636, 5647, 4130, 1145, -3107, -866, -693, -1174, 174, 223, 182, 58, 63, 83, 279, 355
145500470, 7113, -109, -13636, 5647, 4130, 1145, -3107, -866, -693, -1174, 233, 273, 227, 69, 68, 88, 332, 408
145501262, 7113, -109, -13636, 5647, 4130, 1145, -3107, -866, -693, -1174, 233, 273, 227, 69, 68, 88, 332, 408
145506292, 7113, -109, -13636, 5647, 4130, 1145, -3107, -866, -693, -1174, 233, 273, 227, 69, 68, 88, 332, 408
145507110, 7113, -109, -13636, 5647, 4130, 1145, -3107, -866, -693, -1174, 233, 273, 227, 69, 68, 88, 332, 408
145507943, 7113, -109, -13636, 5647, 4130, 1145, -3107, -866, -693, -1174, 233, 273, 227, 69, 68, 88, 332, 408
145508726, 7113, -109, -13636, 5647, 4130, 1145, -3107, -866, -693, -1174, 233, 273, 227, 69, 68, 88, 332, 408
145513668, 7113, -109, -13636, 5647, 4130, 1145, -3107, -866, -693, -1174, 233, 273, 227, 69, 68, 88, 332, 408
145514467, 7113, -109, -13636, 5647, 4130, 1145, -3107, -866, -693, -1174, 233, 273, 227, 69, 68, 88, 332, 408
145515289, 7113, -109, -13636, 5647, 4130, 1145, -3107, -866, -693, -1174, 233, 273, 227, 69, 68, 88, 332, 408
145516112, 7113, -109, -13636, 5647, 4130, 1145, -3107, -866, -693, -1174, 233, 273, 227, 69, 68, 88, 332, 408
145521186, 7113, -109, -13636, 5647, 4130, 1145, -3107, -866, -693, -1174, 233, 273, 227, 69, 68, 88, 332, 408
145522156, 7060, 177, -13749, 5434, 4285, 1452, -3272, -516, -1061, -1748, 233, 273, 227, 69, 68, 88, 332, 408
145522940, 7060, 177, -13749, 5434, 4285, 1452, -3272, -516, -1061, -1748, 309, 339, 281, 96, 72, 111, 373, 422
145523765, 7060, 177, -13749, 5434, 4285, 1452, -3272, -516, -1061, -1748, 309, 339, 281, 96, 72, 111, 373, 422
145528763, 7060, 177, -13749, 5434, 4285, 1452, -3272, -516, -1061, -1748, 309, 339, 281, 96, 72, 111, 373, 422
145529578, 7060, 177, -13749, 5434, 4285, 1452, -3272, -516, -1061, -1748, 309, 339, 281, 96, 72, 111, 373, 422
145530427, 7060, 177, -13749, 5434, 4285, 1452, -3272, -516, -1061, -1748, 309, 339, 281, 96, 72, 111, 373, 422
145531188, 7060, 177, -13749, 5434, 4285, 1452, -3272, -516, -1061, -1748, 309, 339, 281, 96, 72, 111, 373, 422
145536153, 7060, 177, -13749, 5434, 4285, 1452, -3272, -516, -1061, -1748, 309, 339, 281, 96, 72, 111, 373, 422
145536950, 7060, 177, -13749, 5434, 4285, 1452, -3272, -516, -1061, -1748, 309, 339, 281, 96, 72, 111, 373, 422
145537739, 7060, 177, -13749, 5434, 4285, 1452, -3272, -516, -1061, -1748, 309, 339, 281, 96, 72, 111, 373, 422
145538638, 7060, 177, -13749, 5434, 4285, 1452, -3272, -516, -1061, -1748, 309, 339, 281, 96, 72, 111, 373, 422
145543637, 7060, 177, -13749, 5434, 4285, 1452, -3272, -516, -1061, -1748, 309, 339, 281, 96, 72, 111, 373, 422
145544647, 6998, 631, -13838, 5251, 3966, 1654, -3475, 71, -1363, -2457, 309, 339, 281, 96, 72, 111, 373, 422
145545319, 6998, 631, -13838, 5251, 3966, 1654, -3475, 71, -1363, -2457, 315, 356, 320, 108, 76, 119, 411, 422
145546203, 6998, 631, -13838, 5251, 3966, 1654, -3475, 71, -1363, -2457, 315, 356, 320, 108, 76, 119, 411, 422
145551235, 6998, 631, -13838, 5251, 3966, 1654, -3475, 71, -1363, -2457, 315, 356, 320, 108, 76, 119, 411, 422
145552038, 6998, 631, -13838, 5251, 3966, 1654, -3475, 71, -1363, -2457, 315, 356, 320, 108, 76, 119, 411, 422
145552890, 6998, 631, -13838, 5251, 3966, 1654, -3475, 71, -1363, -2457, 315, 356, 320, 108, 76, 119, 411, 422
145553663, 6998, 631, -13838, 5251, 3966, 1654, -3475, 71, -1363, -2457, 315, 356, 320, 108, 76, 119, 411, 422
145558687, 6998, 631, -13838, 5251, 3966, 1654, -3475, 71, -1363, -2457, 315, 356, 320, 108, 76, 119, 411, 422
145559528, 6998, 631, -13838, 5251, 3966, 1654, -3475, 71, -1363, -2457, 315, 356, 320, 108, 76, 119, 411, 422
145560314, 6998, 631, -13838, 5251, 3966, 1654, -3475, 71, -1363, -2457, 315, 356, 320, 108, 76, 119, 411, 422
145561153, 6998, 631, -13838, 5251, 3966, 1654, -3475, 71, -1363, -2457, 315, 356, 320, 108, 76, 119, 411, 422
145566194, 6998, 631, -13838, 5251, 3966, 1654, -3475, 71, -1363, -2457, 315, 356, 320, 108, 76, 119, 411, 422
145567117, 6908, 1236, -13918, 5049, 3860, 2075, -3534, 367, -1749, -3165, 315, 356, 320, 108, 76, 119, 411, 422
145567945, 6908, 1236, -13918, 5049, 3860, 2075, -3534, 367, -1749, -3165, 327, 344, 312, 108, 72, 119, 407, 405
145568753, 6908, 1236, -13918, 5049, 3860, 2075, -3534, 367, -1749, -3165, 327, 344, 312, 108, 72, 119, 407, 405
145573742, 6908, 1236, -13918, 5049, 3860, 2075, -3534, 367, -1749, -3165, 327, 344, 312, 108, 72, 119, 407, 405
145574541, 6908, 1236, -13918, 5049, 3860, 2075, -3534, 367, -1749, -3165, 327, 344, 312, 108, 72, 119, 407, 405
145575363, 6908, 1236, -13918, 5049, 3860, 2075, -3534, 367, -1749, -3165, 327, 344, 312, 108, 72, 119, 407, 405
145576187, 6908, 1236, -13918, 5049, 3860, 2075, -3534, 367, -1749, -3165, 327, 344, 312, 108, 72, 119, 407, 405
145581167, 6908, 1236, -13918, 5049, 3860, 2075, -3534, 367, -1749, -3165, 327, 344, 312, 108, 72, 119, 407, 405
145581964, 6908, 1236, -13918, 5049, 3860, 2075, -3534, 367, -1749, -3165, 327, 344, 312, 108, 72, 119, 407, 405
145582828, 6908, 1236, -13918, 5049, 3860, 2075, -3534, 367, -1749, -3165, 327, 344, 312, 108, 72, 119, 407, 405
145583672, 6908, 1236, -13918, 5049, 3860, 2075, -3534, 367, -1749, -3165, 327, 344, 312, 108, 72, 119, 407, 405
145588663, 6908, 1236, -13918, 5049, 3860, 2075, -3534, 367, -1749, -3165, 327, 344, 312, 108, 72, 119, 407, 405
145589672, 6781, 1997, -13945, 4899, 3488, 2638, -3497, 1093, -2046, -3745, 327, 344, 312, 108, 72, 119, 407, 405
145590370, 6781, 1997, -13945, 4899, 3488, 2638, -3497, 1093, -2046, -3745, 303, 315, 300, 105, 128, 131, 404, 293
145591255, 6781, 1997, -13945, 4899, 3488, 2638, -3497, 1093, -2046, -3745, 303, 315, 300, 105, 128, 131, 404, 293
145596267, 6781, 1997, -13945, 4899, 3488, 2638, -3497, 1093, -2046, -3745, 303, 315, 300, 105, 128, 131, 404, 293
145597107, 6781, 1997, -13945, 4899, 3488, 2638, -3497, 1093, -2046, -3745, 303, 315, 300, 105, 128, 131, 404, 293
145597904, 6781, 1997, -13945, 4899, 3488, 2638, -3497, 1093, -2046, -3745, 303, 315, 300, 105, 128, 131, 404, 293
145598688, 6781, 1997, -13945, 4899, 3488, 2638, -3497, 1093, -2046, -3745, 303, 315, 300, 105, 128, 131, 404, 293
145603689, 6781, 1997, -13945, 4899, 3488, 2638, -3497, 1093, -2046, -3745, 303, 315, 300, 105, 128, 131, 404, 293
145604441, 6781, 1997, -13945, 4899, 3488, 2638, -3497, 1093, -2046, -3745, 303, 315, 300, 105, 128, 131, 404, 293
145605254, 6781, 1997, -13945, 4899, 3488, 2638, -3497, 1093, -2046, -3745, 303, 315, 300, 105, 128, 131, 404, 293
145606063, 6781, 1997, -13945, 4899, 3488, 2638, -3497, 1093, -2046, -3745, 303, 315, 300, 105, 128, 131, 404, 293
145611211, 6781, 1997, -13945, 4899, 3488, 2638, -3497, 1093, -2046, -3745, 303, 315, 300, 105, 128, 131, 404, 293
145612130, 6594, 2903, -13910, 4799, 3162, 2976, -3598, 1809, -2399, -4261, 303, 315, 300, 105, 128, 131, 404, 293
145612938, 6594, 2903, -13910, 4799, 3162, 2976, -3598, 1809, -2399, -4261, 279, 291, 288, 104, 175, 150, 485, 227
145613737, 6594, 2903, -13910, 4799, 3162, 2976, -3598, 1809, -2399, -4261, 279, 291, 288, 104, 175, 150, 485, 227
145618737, 6594, 2903, -13910, 4799, 3162, 2976, -3598, 1809, -2399, -4261, 279, 291, 288, 104, 175, 150, 485, 227
145619690, 6594, 2903, -13910, 4799, 3162, 2976, -3598, 1809, -2399, -4261, 279, 291, 288, 104, 175, 150, 485, 227
145620341, 6594, 2903, -13910, 4799, 3162, 2976, -3598, 1809, -2399, -4261, 279, 291, 288, 104, 175, 150, 485, 227
145621253, 6594, 2903, -13910, 4799, 3162, 2976, -3598, 1809, -2399, -4261, 279, 291, 288, 104, 175, 150, 485, 227
145626164, 6594, 2903, -13910, 4799, 3162, 2976, -3598, 1809, -2399, -4261, 279, 291, 288, 104, 175, 150, 485, 227
145627017, 6594, 2903, -13910, 4799, 3162, 2976, -3598, 1809, -2399, -4261, 279, 291, 288, 104, 175, 150, 485, 227
145627810, 6594, 2903, -13910, 4799, 3162, 2976, -3598, 1809, -2399, -4261, 279, 291, 288, 104, 175, 150, 485, 227
145628695, 6594, 2903, -13910, 4799, 3162, 2976, -3598, 1809, -2399, -4261, 279, 291, 288, 104, 175, 150, 485, 227
145633695, 6594, 2903, -13910, 4799, 3162, 2976, -3598, 1809, -2399, -4261, 279, 291, 288, 104, 175, 150, 485, 227
145634674, 6351, 3905, -13803, 4726, 2928, 3094, -3597, 2329, -2631, -4648, 279, 291, 288, 104, 175, 150, 485, 227
145635454, 6351, 3905, -13803, 4726, 2928, 3094, -3597, 2329, -2631, -4648, 259, 217, 241, 84, 249, 157, 495, 206
145636238, 6351, 3905, -13803, 4726, 2928, 3094, -3597, 2329, -2631, -4648, 259, 217, 241, 84, 249, 157, 495, 206
145641275, 6351, 3905, -13803, 4726, 2928, 3094, -3597, 2329, -2631, -4648, 259, 217, 241, 84, 249, 157, 495, 206
145642064, 6351, 3905, -13803, 4726, 2928, 3094, -3597, 2329, -2631, -4648, 259, 217, 241, 84, 249, 157, 495, 206
145642917, 6351, 3905, -13803, 4726, 2928, 3094, -3597, 2329, -2631, -4648, 259, 217, 241, 84, 249, 157, 495, 206
145643689, 6351, 3905, -13803, 4726, 2928, 3094, -3597, 2329, -2631, -4648, 259, 217, 241, 84, 249, 157, 495, 206
145648703, 6351, 3905, -13803, 4726, 2928, 3094, -3597, 2329, -2631, -4648, 259, 217, 241, 84, 249, 157, 495, 206
145649468, 6351, 3905, -13803, 4726, 2928, 3094, -3597, 2329, -2631, -4648, 259, 217, 241, 84, 249, 157, 495, 206
145650294, 6351, 3905, -13803, 4726, 2928, 3094, -3597, 2329, -2631, -4648, 259, 217, 241, 84, 249, 157, 495, 206
145651069, 6351, 3905, -13803, 4726, 2928, 3094, -3597, 2329, -2631, -4648, 259, 217, 241, 84, 249, 157, 495, 206
145656164, 6351, 3905, -13803, 4726, 2928, 3094, -3597, 2329, -2631, -4648, 259, 217, 241, 84, 249, 157, 495, 206
145657115, 6061, 4935, -13624, 4660, 2751, 3079, -3588, 2604, -2737, -4780, 259, 217, 241, 84, 249, 157, 495, 206
145657912, 6061, 4935, -13624, 4660, 2751, 3079, -3588, 2604, -2737, -4780, 275, 179, 184, 67, 287, 206, 542, 150
145658704, 6061, 4935, -13624, 4660, 2751, 3079, -3588, 2604, -2737, -4780, 275, 179, 184, 67, 287, 206, 542, 150
145663754, 6061, 4935, -13624, 4660, 2751, 3079, -3588, 2604, -2737, -4780, 275, 179, 184, 67, 287, 206, 542, 150
145664542, 6061, 4935, -13624, 4660, 2751, 3079, -3588, 2604, -2737, -4780, 275, 179, 184, 67, 287, 206, 542, 150
145665378, 6061, 4935, -13624, 4660, 2751, 3079, -3588, 2604, -2737, -4780, 275, 179, 184, 67, 287, 206, 542, 150
145666189, 6061, 4935, -13624, 4660, 2751, 3079, -3588, 2604, -2737, -4780, 275, 179, 184, 67, 287, 206, 542, 150
145671097, 6061, 4935, -13624, 4660, 2751, 3079, -3588, 2604, -2737, -4780, 275, 179, 184, 67, 287, 206, 542, 150
145671936, 6061, 4935, -13624, 4660, 2751, 3079, -3588, 2604, -2737, -4780, 275, 179, 184, 67, 287, 206, 542, 150
145672802, 6061, 4935, -13624, 4660, 2751, 3079, -3588, 2604, -2737, -4780, 275, 179, 184, 67, 287, 206, 542, 150
145673588, 6061, 4935, -13624, 4660, 2751, 3079, -3588, 2604, -2737, -4780, 275, 179, 184, 67, 287, 206, 542, 150
145678694, 6061, 4935, -13624, 4660, 2751, 3079, -3588, 2604, -2737, -4780, 275, 179, 184, 67, 287, 206, 542, 150
145679645, 5734, 5925, -13390, 4600, 2663, 2944, -3629, 2703, -2719, -4614, 275, 179, 184, 67, 287, 206, 542, 150
145680446, 5734, 5925, -13390, 4600, 2663, 2944, -3629, 2703, -2719, -4614, 259, 161, 172, 64, 314, 214, 624, 154
145681267, 5734, 5925, -13390, 4600, 2663, 2944, -3629, 2703, -2719, -4614, 259, 161, 172, 64, 314, 214, 624, 154
145686289, 5734, 5925, -13390, 4600, 2663, 2944, -3629, 2703, -2719, -4614, 259, 161, 172, 64, 314, 214, 624, 154
145687101, 5734, 5925, -13390, 4600, 2663, 2944, -3629, 2703, -2719, -4614, 259, 161, 172, 64, 314, 214, 624, 154
145687928, 5734, 5925, -13390, 4600, 2663, 2944, -3629, 2703, -2719, -4614, 259, 161, 172, 64, 314, 214, 624, 154
145688712, 5734, 5925, -13390, 4600, 2663, 2944, -3629, 2703, -2719, -4614, 259, 161, 172, 64, 314, 214, 624, 154
145693682, 5734, 5925, -13390, 4600, 2663, 2944, -3629, 2703, -2719, -4614, 259, 161, 172, 64, 314, 214, 624, 154
145694462, 5734, 5925, -13390, 4600, 2663, 2944, -3629, 2703, -2719, -4614, 259, 161, 172, 64, 314, 214, 624, 154
145695329, 5734, 5925, -13390, 4600, 2663, 2944, -3629, 2703, -2719, -4614, 259, 161, 172, 64, 314, 214, 624, 154
145696106, 5734, 5925, -13390, 4600, 2663, 2944, -3629, 2703, -2719, -4614, 259, 161, 172, 64, 314, 214, 624, 154
145701204, 5734, 5925, -13390, 4600, 2663, 2944, -3629, 2703, -2719, -4614, 259, 161, 172, 64, 314, 214, 624, 154
145702116, 5347, 6815, -13145, 4540, 2728, 2734, -3571, 2639, -2816, -4084, 259, 161, 172, 64, 314, 214, 624, 154
145702955, 5347, 6815, -13145, 4540, 2728, 2734, -3571, 2639, -2816, -4084, 257, 135, 150, 65, 300, 210, 616, 160
145703738, 5347, 6815, -13145, 4540, 2728, 2734, -3571, 2639, -2816, -4084, 257, 135, 150, 65, 300, 210, 616, 160
145708779, 5347, 6815, -13145, 4540, 2728, 2734, -3571, 2639, -2816, -4084, 257, 135, 150, 65, 300, 210, 616, 160
145709566, 5347, 6815, -13145, 4540, 2728, 2734, -3571, 2639, -2816, -4084, 257, 135, 150, 65, 300, 210, 616, 160
145710387, 5347, 6815, -13145, 4540, 2728, 2734, -3571, 2639, -2816, -4084, 257, 135, 150, 65, 300, 210, 616, 160
145711187, 5347, 6815, -13145, 4540, 2728, 2734, -3571, 2639, -2816, -4084, 257, 135, 150, 65, 300, 210, 616, 160
145716166, 5347, 6815, -13145, 4540, 2728, 2734, -3571, 2639, -2816, -4084, 257, 135, 150, 65, 300, 210, 616, 160
145716963, 5347, 6815, -13145, 4540, 2728, 2734, -3571, 2639, -2816, -4084, 257, 135, 150, 65, 300, 210, 616, 160
145717803, 5347, 6815, -13145, 4540, 2728, 2734, -3571, 2639, -2816, -4084, 257, 135, 150, 65, 300, 210, 616, 160
145718663, 5347, 6815, -13145, 4540, 2728, 2734, -3571, 2639, -2816, -4084, 257, 135, 150, 65, 300, 210, 616, 160
145723692, 5347, 6815, -13145, 4540, 2728, 2734, -3571, 2639, -2816, -4084, 257, 135, 150, 65, 300, 210, 616, 160
145724672, 4911, 7591, -12899, 4506, 2881, 2637, -3534, 2664, -2796, -3441, 257, 135, 150, 65, 300, 210, 616, 160
145725364, 4911, 7591, -12899, 4506, 2881, 2637, -3534, 2664, -2796, -3441, 238, 91, 103, 57, 305, 221, 549, 149
145726245, 4911, 7591, -12899, 4506, 2881, 2637, -3534, 2664, -2796, -3441, 257, 135, 150, 65, 300, 210, 616, 160
145731213, 4911, 7591, -12899, 4506, 2881, 2637, -3534, 2664, -2796, -3441, 238, 91, 103, 57, 305, 221, 549, 149
145732053, 4911, 7591, -12899, 4506, 2881, 2637, -3534, 2664, -2796, -3441, 238, 91, 103, 57, 305, 221, 549, 149
145732888, 4911, 7591, -12899, 4506, 2881, 2637, -3534, 2664, -2796, -3441, 238, 91, 103, 57, 305, 221, 549, 149
145733662, 4911, 7591, -12899, 4506, 2881, 2637, -3534, 2664, -2796, -3441, 238, 91, 103, 57, 305, 221, 549, 149
145738729, 4911, 7591, -12899, 4506, 2881, 2637, -3534, 2664, -2796, -3441, 238, 91, 103, 57, 305, 221, 549, 149
145739491, 4911, 7591, -12899, 4506, 2881, 2637, -3534, 2664, -2796, -3441, 238, 91, 103, 57, 305, 221, 549, 149
145740354, 4911, 7591, -12899, 4506, 2881, 2637, -3534, 2664, -2796, -3441, 238, 91, 103, 57, 305, 221, 549, 149
145741134, 4911, 7591, -12899, 4506, 2881, 2637, -3534, 2664, -2796, -3441, 238, 91, 103, 57, 305, 221, 549, 149
145746199, 4911, 7591, -12899, 4506, 2881, 2637, -3534, 2664, -2796, -3441, 238, 91, 103, 57, 305, 221, 549, 149
145747114, 4468, 8262, -12654, 4480, 3036, 2526, -3515, 2540, -2644, -2962, 238, 91, 103, 57, 305, 221, 549, 149
145747966, 4468, 8262, -12654, 4480, 3036, 2526, -3515, 2540, -2644, -2962, 179, 71, 87, 48, 254, 242, 522, 144
145748763, 4468, 8262, -12654, 4480, 3036, 2526, -3515, 2540, -2644, -2962, 179, 71, 87, 48, 254, 242, 522, 144
145753790, 4468, 8262, -12654, 4480, 3036, 2526, -3515, 2540, -2644, -2962, 179, 71, 87, 48, 254, 242, 522, 144
145754565, 4468, 8262, -12654, 4480, 3036, 2526, -3515, 2540, -2644, -2962, 179, 71, 87, 48, 254, 242, 522, 144
145755414, 4468, 8262, -12654, 4480, 3036, 2526, -3515, 2540, -2644, -2962, 179, 71, 87, 48, 254, 242, 522, 144
145756216, 4468, 8262, -12654, 4480, 3036, 2526, -3515, 2540, -2644, -2962, 179, 71, 87, 48, 254, 242, 522, 144
145761191, 4468, 8262, -12654, 4480, 3036, 2526, -3515, 2540, -2644, -2962, 179, 71, 87, 48, 254, 242, 522, 144
145761963, 4468, 8262, -12654, 4480, 3036, 2526, -3515, 2540, -2644, -2962, 179, 71, 87, 48, 254, 242, 522, 144
145762802, 4468, 8262, -12654, 4480, 3036, 2526, -3515, 2540, -2644, -2962, 179, 71, 87, 48, 254, 242, 522, 144
145763662, 4468, 8262, -12654, 4480, 3036, 2526, -3515, 2540, -2644, -2962, 179, 71, 87, 48, 254, 242, 522, 144
145768691, 4468, 8262, -12654, 4480, 3036, 2526, -3515, 2540, -2644, -2962, 179, 71, 87, 48, 254, 242, 522, 144
145769656, 4035, 8838, -12414, 4465, 3026, 2411, -3417, 2407, -2433, -2531, 179, 71, 87, 48, 254, 242, 522, 144
145770345, 4035, 8838, -12414, 4465, 3026, 2411, -3417, 2407, -2433, -2531, 142, 57, 66, 45, 224, 246, 435, 134
145771212, 4035, 8838, -12414, 4465, 3026, 2411, -3417, 2407, -2433, -2531, 142, 57, 66, 45, 224, 246, 435, 134
145776250, 4035, 8838, -12414, 4465, 3026, 2411, -3417, 2407, -2433, -2531, 142, 57, 66, 45, 224, 246, 435, 134
145777065, 4035, 8838, -12414, 4465, 3026, 2411, -3417, 2407, -2433, -2531, 142, 57, 66, 45, 224, 246, 435, 134
145777857, 4035, 8838, -12414, 4465, 3026, 2411, -3417, 2407, -2433, -2531, 142, 57, 66, 45, 224, 246, 435, 134
145778680, 4035, 8838, -12414, 4465, 3026, 2411, -3417, 2407, -2433, -2531, 142, 57, 66, 45, 224, 246, 435, 134
145783682, 4035, 8838, -12414, 4465, 3026, 2411, -3417, 2407, -2433, -2531, 142, 57, 66, 45, 224, 246, 435, 134
145784441, 4035, 8838, -12414, 4465, 3026, 2411, -3417, 2407, -2433, -2531, 142, 57, 66, 45, 224, 246, 435, 134
145785304, 4035, 8838, -12414, 4465, 3026, 2411, -3417, 2407, -2433, -2531, 142, 57, 66, 45, 224, 246, 435, 134
145786088, 4035, 8838, -12414, 4465, 3026, 2411, -3417, 2407, -2433, -2531, 142, 57, 66, 45, 224, 246, 435, 134
145791161, 4035, 8838, -12414, 4465, 3026, 2411, -3417, 2407, -2433, -2531, 142, 57, 66, 45, 224, 246, 435, 134
145792092, 3635, 9298, -12205, 4452, 3092, 2364, -3155, 2106, -2149, -1988, 142, 57, 66, 45, 224, 246, 435, 134
145792888, 3635, 9298, -12205, 4452, 3092, 2364, -3155, 2106, -2149, -1988, 153, 49, 46, 41, 193, 266, 306, 113
145793711, 3635, 9298, -12205, 4452, 3092, 2364, -3155, 2106, -2149, -1988, 153, 49, 46, 41, 193, 266, 306, 113
145798790, 3635, 9298, -12205, 4452, 3092, 2364, -3155, 2106, -2149, -1988, 153, 49, 46, 41, 193, 266, 306, 113
145799654, 3635, 9298, -12205, 4452, 3092, 2364, -3155, 2106, -2149, -1988, 153, 49, 46, 41, 193, 266, 306, 113
145800319, 3635, 9298, -12205, 4452, 3092, 2364, -3155, 2106, -2149, -1988, 153, 49, 46, 41, 193, 266, 306, 113
145801188, 3635, 9298, -12205, 4452, 3092, 2364, -3155, 2106, -2149, -1988, 153, 49, 46, 41, 193, 266, 306, 113
145806165, 3635, 9298, -12205, 4452, 3092, 2364, -3155, 2106, -2149, -1988, 153, 49, 46, 41, 193, 266, 306, 113
145806992, 3635, 9298, -12205, 4452, 3092, 2364, -3155, 2106, -2149, -1988, 153, 49, 46, 41, 193, 266, 306, 113
145807826, 3635, 9298, -12205, 4452, 3092, 2364, -3155, 2106, -2149, -1988, 153, 49, 46, 41, 193, 266, 306, 113
145808686, 3635, 9298, -12205, 4452, 3092, 2364, -3155, 2106, -2149, -1988, 153, 49, 46, 41, 193, 266, 306, 113
145813702, 3635, 9298, -12205, 4452, 3092, 2364, -3155, 2106, -2149, -1988, 153, 49, 46, 41, 193, 266, 306, 113
145814651, 3302, 9620, -12051, 4446, 3158, 2131, -3005, 1663, -1706, -1336, 153, 49, 46, 41, 193, 266, 306, 113
145815419, 3302, 9620, -12051, 4446, 3158, 2131, -3005, 1663, -1706, -1336, 148, 44, 41, 32, 192, 271, 265, 104
145816213, 3302, 9620, -12051, 4446, 3158, 2131, -3005, 1663, -1706, -1336, 148, 44, 41, 32, 192, 271, 265, 104
145821237, 3302, 9620, -12051, 4446, 3158, 2131, -3005, 1663, -1706, -1336, 148, 44, 41, 32, 192, 271, 265, 104
145822037, 3302, 9620, -12051, 4446, 3158, 2131, -3005, 1663, -1706, -1336, 148, 44, 41, 32, 192, 271, 265, 104
145822862, 3302, 9620, -12051, 4446, 3158, 2131, -3005, 1663, -1706, -1336, 148, 44, 41, 32, 192, 271, 265, 104
145823667, 3302, 9620, -12051, 4446, 3158, 2131, -3005, 1663, -1706, -1336, 148, 44, 41, 32, 192, 271, 265, 104
145828664, 3302, 9620, -12051, 4446, 3158, 2131, -3005, 1663, -1706, -1336, 148, 44, 41, 32, 192, 271, 265, 104
145829494, 3302, 9620, -12051, 4446, 3158, 2131, -3005, 1663, -1706, -1336, 148, 44, 41, 32, 192, 271, 265, 104
145830288, 3302, 9620, -12051, 4446, 3158, 2131, -3005, 1663, -1706, -1336, 148, 44, 41, 32, 192, 271, 265, 104
145831102, 3302, 9620, -12051, 4446, 3158, 2131, -3005, 1663, -1706, -1336, 148, 44, 41, 32, 192, 271, 265, 104
145836162, 3302, 9620, -12051, 4446, 3158, 2131, -3005, 1663, -1706, -1336, 148, 44, 41, 32, 192, 271, 265, 104
145837131, 3220, 9879, -11892, 4366, 3198, 1570, -2961, 1404, -1230, -738, 148, 44, 41, 32, 192, 271, 265, 104
145837913, 3220, 9879, -11892, 4366, 3198, 1570, -2961, 1404, -1230, -738, 144, 37, 41, 36, 175, 302, 237, 85
145838754, 3220, 9879, -11892, 4366, 3198, 1570, -2961, 1404, -1230, -738, 144, 37, 41, 36, 175, 302, 237, 85
145843741, 3220, 9879, -11892, 4366, 3198, 1570, -2961, 1404, -1230, -738, 144, 37, 41, 36, 175, 302, 237, 85
145844581, 3220, 9879, -11892, 4366, 3198, 1570, -2961, 1404, -1230, -738, 144, 37, 41, 36, 175, 302, 237, 85
145845369, 3220, 9879, -11892, 4366, 3198, 1570, -2961, 1404, -1230, -738, 144, 37, 41, 36, 175, 302, 237, 85
145846176, 3220, 9879, -11892, 4366, 3198, 1570, -2961, 1404, -1230, -738, 144, 37, 41, 36, 175, 302, 237, 85
145851112, 3220, 9879, -11892, 4366, 3198, 1570, -2961, 1404, -1230, -738, 144, 37, 41, 36, 175, 302, 237, 85
145851936, 3220, 9879, -11892, 4366, 3198, 1570, -2961, 1404, -1230, -738, 144, 37, 41, 36, 175, 302, 237, 85
145852759, 3220, 9879, -11892, 4366, 3198, 1570, -2961, 1404, -1230, -738, 144, 37, 41, 36, 175, 302, 237, 85
145853592, 3220, 9879, -11892, 4366, 3198, 1570, -2961, 1404, -1230, -738, 144, 37, 41, 36, 175, 302, 237, 85
145858687, 3220, 9879, -11892, 4366, 3198, 1570, -2961, 1404, -1230, -738, 144, 37, 41, 36, 175, 302, 237, 85
145859707, 3146, 10037, -11784, 4349, 3173, 1243, -2819, 1283, -935, -233, 144, 37, 41, 36, 175, 302, 237, 85
145860443, 3146, 10037, -11784, 4349, 3173, 1243, -2819, 1283, -935, -233, 124, 38, 42, 39, 174, 315, 250, 97
145861294, 3146, 10037, -11784, 4349, 3173, 1243, -2819, 1283, -935, -233, 124, 38, 42, 39, 174, 315, 250, 97
145866265, 3146, 10037, -11784, 4349, 3173, 1243, -2819, 1283, -935, -233, 124, 38, 42, 39, 174, 315, 250, 97
145867098, 3146, 10037, -11784, 4349, 3173, 1243, -2819, 1283, -935, -233, 124, 38, 42, 39, 174, 315, 250, 97
145867890, 3146, 10037, -11784, 4349, 3173, 1243, -2819, 1283, -935, -233, 124, 38, 42, 39, 174, 315, 250, 97
145868710, 3146, 10037, -11784, 4349, 3173, 1243, -2819, 1283, -935, -233, 124, 38, 42, 39, 174, 315, 250, 97
145873660, 3146, 10037, -11784, 4349, 3173, 1243, -2819, 1283, -935, -233, 124, 38, 42, 39, 174, 315, 250, 97
145874507, 3146, 10037, -11784, 4349, 3173, 1243, -2819, 1283, -935, -233, 124, 38, 42, 39, 174, 315, 250, 97
145875291, 3146, 10037, -11784, 4349, 3173, 1243, -2819, 1283, -935, -233, 124, 38, 42, 39, 174, 315, 250, 97
145876115, 3146, 10037, -11784, 4349, 3173, 1243, -2819, 1283, -935, -233, 124, 38, 42, 39, 174, 315, 250, 97
145881177, 3146, 10037, -11784, 4349, 3173, 1243, -2819, 1283, -935, -233, 124, 38, 42, 39, 174, 315, 250, 97
145882119, 3106, 10129, -11709, 4367, 3215, 1180, -2729, 1162, -664, 113, 124, 38, 42, 39, 174, 315, 250, 97
145882933, 3106, 10129, -11709, 4367, 3215, 1180, -2729, 1162, -664, 113, 98, 37, 40, 38, 162, 314, 293, 111
145883753, 3106, 10129, -11709, 4367, 3215, 1180, -2729, 1162, -664, 113, 98, 37, 40, 38, 162, 314, 293, 111
145888777, 3106, 10129, -11709, 4367, 3215, 1180, -2729, 1162, -664, 113, 98, 37, 40, 38, 162, 314, 293, 111
145889588, 3106, 10129, -11709, 4367, 3215, 1180, -2729, 1162, -664, 113, 98, 37, 40, 38, 162, 314, 293, 111
145890375, 3106, 10129, -11709, 4367, 3215, 1180, -2729, 1162, -664, 113, 98, 37, 40, 38, 162, 314, 293, 111
145891188, 3106, 10129, -11709, 4367, 3215, 1180, -2729, 1162, -664, 113, 98, 37, 40, 38, 162, 314, 293, 111
145896176, 3106, 10129, -11709, 4367, 3215, 1180, -2729, 1162, -664, 113, 98, 37, 40, 38, 162, 314, 293, 111
145896963, 3106, 10129, -11709, 4367, 3215, 1180, -2729, 1162, -664, 113, 98, 37, 40, 38, 162, 314, 293, 111
145897764, 3106, 10129, -11709, 4367, 3215, 1180, -2729, 1162, -664, 113, 98, 37, 40, 38, 162, 314, 293, 111
145898686, 3106, 10129, -11709, 4367, 3215, 1180, -2729, 1162, -664, 113, 98, 37, 40, 38, 162, 314, 293, 111
145903667, 3106, 10129, -11709, 4367, 3215, 1180, -2729, 1162, -664, 113, 98, 37, 40, 38, 162, 314, 293, 111
145904664, 3104, 10182, -11654, 4395, 3185, 1001, -2717, 924, -421, 234, 98, 37, 40, 38, 162, 314, 293, 111
145905340, 3104, 10182, -11654, 4395, 3185, 1001, -2717, 924, -421, 234, 49, 36, 39, 39, 156, 296, 268, 152
145906270, 3104, 10182, -11654, 4395, 3185, 1001, -2717, 924, -421, 234, 49, 36, 39, 39, 156, 296, 268, 152
145911229, 3104, 10182, -11654, 4395, 3185, 1001, -2717, 924, -421, 234, 49, 36, 39, 39, 156, 296, 268, 152
145912037, 3104, 10182, -11654, 4395, 3185, 1001, -2717, 924, -421, 234, 49, 36, 39, 39, 156, 296, 268, 152
145912903, 3104, 10182, -11654, 4395, 3185, 1001, -2717, 924, -421, 234, 49, 36, 39, 39, 156, 296, 268, 152
145913663, 3104, 10182, -11654, 4395, 3185, 1001, -2717, 924, -421, 234, 49, 36, 39, 39, 156, 296, 268, 152
145918703, 3104, 10182, -11654, 4395, 3185, 1001, -2717, 924, -421, 234, 49, 36, 39, 39, 156, 296, 268, 152
145919491, 3104, 10182, -11654, 4395, 3185, 1001, -2717, 924, -421, 234, 49, 36, 39, 39, 156, 296, 268, 152
145920353, 3104, 10182, -11654, 4395, 3185, 1001, -2717, 924, -421, 234, 49, 36, 39, 39, 156, 296, 268, 152
145921113, 3104, 10182, -11654, 4395, 3185, 1001, -2717, 924, -421, 234, 49, 36, 39, 39, 156, 296, 268, 152
145926199, 3104, 10182, -11654, 4395, 3185, 1001, -2717, 924, -421, 234, 49, 36, 39, 39, 156, 296, 268, 152
145927115, 3114, 10211, -11612, 4430, 3022, 684, -2772, 729, -223, 242, 49, 36, 39, 39, 156, 296, 268, 152
145927967, 3114, 10211, -11612, 4430, 3022, 684, -2772, 729, -223, 242, 45, 35, 49, 40, 149, 348, 289, 156
145928763, 3114, 10211, -11612, 4430, 3022, 684, -2772, 729, -223, 242, 45, 35, 49, 40, 149, 348, 289, 156
145933776, 3114, 10211, -11612, 4430, 3022, 684, -2772, 729, -223, 242, 45, 35, 49, 40, 149, 348, 289, 156
145934607, 3114, 10211, -11612, 4430, 3022, 684, -2772, 729, -223, 242, 45, 35, 49, 40, 149, 348, 289, 156
145935401, 3114, 10211, -11612, 4430, 3022, 684, -2772, 729, -223, 242, 45, 35, 49, 40, 149, 348, 289, 156
145936272, 3114, 10211, -11612, 4430, 3022, 684, -2772, 729, -223, 242, 45, 35, 49, 40, 149, 348, 289, 156
145941138, 3114, 10211, -11612, 4430, 3022, 684, -2772, 729, -223, 242, 45, 35, 49, 40, 149, 348, 289, 156
145941974, 3114, 10211, -11612, 4430, 3022, 684, -2772, 729, -223, 242, 45, 35, 49, 40, 149, 348, 289, 156
145942800, 3114, 10211, -11612, 4430, 3022, 684, -2772, 729, -223, 242, 45, 35, 49, 40, 149, 348, 289, 156
145943692, 3114, 10211, -11612, 4430, 3022, 684, -2772, 729, -223, 242, 45, 35, 49, 40, 149, 348, 289, 156
145948663, 3114, 10211, -11612, 4430, 3022, 684, -2772, 729, -223, 242, 45, 35, 49, 40, 149, 348, 289, 156
145949677, 3157, 10213, -11593, 4446, 2902, 584, -2793, 424, -65, 308, 45, 35, 49, 40, 149, 348, 289, 156
145950367, 3157, 10213, -11593, 4446, 2902, 584, -2793, 424, -65, 308, 45, 38, 52, 38, 116, 328, 273, 200
145951230, 3157, 10213, -11593, 4446, 2902, 584, -2793, 424, -65, 308, 45, 38, 52, 38, 116, 328, 273, 200
145956214, 3157, 10213, -11593, 4446, 2902, 584, -2793, 424, -65, 308, 45, 38, 52, 38, 116, 328, 273, 200
145957012, 3157, 10213, -11593, 4446, 2902, 584, -2793, 424, -65, 308, 45, 38, 52, 38, 116, 328, 273, 200
145957837, 3157, 10213, -11593, 4446, 2902, 584, -2793, 424, -65, 308, 45, 38, 52, 38, 116, 328, 273, 200
145958683, 3157, 10213, -11593, 4446, 2902, 584, -2793, 424, -65, 308, 45, 38, 52, 38, 116, 328, 273, 200
145963666, 3157, 10213, -11593, 4446, 2902, 584, -2793, 424, -65, 308, 45, 38, 52, 38, 116, 328, 273, 200
145964481, 3157, 10213, -11593, 4446, 2902, 584, -2793, 424, -65, 308, 45, 38, 52, 38, 116, 328, 273, 200
145965263, 3157, 10213, -11593, 4446, 2902, 584, -2793, 424, -65, 308, 45, 38, 52, 38, 116, 328, 273, 200
145966103, 3157, 10213, -11593, 4446, 2902, 584, -2793, 424, -65, 308, 45, 38, 52, 38, 116, 328, 273, 200
145971188, 3157, 10213, -11593, 4446, 2902, 584, -2793, 424, -65, 308, 45, 38, 52, 38, 116, 328, 273, 200
145972180, 3189, 10223, -11568, 4465, 2813, 477, -2898, 453, -27, 232, 45, 38, 52, 38, 116, 328, 273, 200
145972938, 3189, 10223, -11568, 4465, 2813, 477, -2898, 453, -27, 232, 43, 43, 53, 37, 117, 298, 269, 228
145973786, 3189, 10223, -11568, 4465, 2813, 477, -2898, 453, -27, 232, 43, 43, 53, 37, 117, 298, 269, 228
145978767, 3189, 10223, -11568, 4465, 2813, 477, -2898, 453, -27, 232, 43, 43, 53, 37, 117, 298, 269, 228
145979705, 3189, 10223, -11568, 4465, 2813, 477, -2898, 453, -27, 232, 43, 43, 53, 37, 117, 298, 269, 228
145980341, 3189, 10223, -11568, 4465, 2813, 477, -2898, 453, -27, 232, 43, 43, 53, 37, 117, 298, 269, 228
145981242, 3189, 10223, -11568, 4465, 2813, 477, -2898, 453, -27, 232, 43, 43, 53, 37, 117, 298, 269, 228
145986206, 3189, 10223, -11568, 4465, 2813, 477, -2898, 453, -27, 232, 43, 43, 53, 37, 117, 298, 269, 228
145987000, 3189, 10223, -11568, 4465, 2813, 477, -2898, 453, -27, 232, 43, 43, 53, 37, 117, 298, 269, 228
145987788, 3189, 10223, -11568, 4465, 2813, 477, -2898, 453, -27, 232, 43, 43, 53, 37, 117, 298, 269, 228
145988692, 3189, 10223, -11568, 4465, 2813, 477, -2898, 453, -27, 232, 43, 43, 53, 37, 117, 298, 269, 228
145993664, 3189, 10223, -11568, 4465, 2813, 477, -2898, 453, -27, 232, 43, 43, 53, 37, 117, 298, 269, 228
145994702, 3209, 10256, -11525, 4484, 2662, 515, -3123, 578, 67, 100, 43, 43, 53, 37, 117, 298, 269, 228
145995417, 3209, 10256, -11525, 4484, 2662, 515, -3123, 578, 67, 100, 38, 44, 53, 37, 108, 307, 265, 243
145996264, 3209, 10256, -11525, 4484, 2662, 515, -3123, 578, 67, 100, 38, 44, 53, 37, 108, 307, 265, 243
146001239, 3209, 10256, -11525, 4484, 2662, 515, -3123, 578, 67, 100, 38, 44, 53, 37, 108, 307, 265, 243
146002103, 3209, 10256, -11525, 4484, 2662, 515, -3123, 578, 67, 100, 38, 44, 53, 37, 108, 307, 265, 243
146002910, 3209, 10256, -11525, 4484, 2662, 515, -3123, 578, 67, 100, 38, 44, 53, 37, 108, 307, 265, 243
146003671, 3209, 10256, -11525, 4484, 2662, 515, -3123, 578, 67, 100, 38, 44, 53, 37, 108, 307, 265, 243
146008706, 3209, 10256, -11525, 4484, 2662, 515, -3123, 578, 67, 100, 38, 44, 53, 37, 108, 307, 265, 243
146009463, 3209, 10256, -11525, 4484, 2662, 515, -3123, 578, 67, 100, 38, 44, 53, 37, 108, 307, 265, 243
146010288, 3209, 10256, -11525, 4484, 2662, 515, -3123, 578, 67, 100, 38, 44, 53, 37, 108, 307, 265, 243
146011088, 3209, 10256, -11525, 4484, 2662, 515, -3123, 578, 67, 100, 38, 44, 53, 37, 108, 307, 265, 243
146016141, 3209, 10256, -11525, 4484, 2662, 515, -3123, 578, 67, 100, 38, 44, 53, 37, 108, 307, 265, 243
146017128, 3213, 10309, -11470, 4502, 2373, 623, -3445, 737, 230, 13, 38, 44, 53, 37, 108, 307, 265, 243
146017932, 3213, 10309, -11470, 4502, 2373, 623, -3445, 737, 230, 13, 39, 46, 53, 33, 162, 325, 281, 223
146018714, 3213, 10309, -11470, 4502, 2373, 623, -3445, 737, 230, 13, 39, 46, 53, 33, 162, 325, 281, 223
146023740, 3213, 10309, -11470, 4502, 2373, 623, -3445, 737, 230, 13, 39, 46, 53, 33, 162, 325, 281, 223
146024553, 3213, 10309, -11470, 4502, 2373, 623, -3445, 737, 230, 13, 39, 46, 53, 33, 162, 325, 281, 223
146025366, 3213, 10309, -11470, 4502, 2373, 623, -3445, 737, 230, 13, 39, 46, 53, 33, 162, 325, 281, 223
146026190, 3213, 10309, -11470, 4502, 2373, 623, -3445, 737, 230, 13, 39, 46, 53, 33, 162, 325, 281, 223
146031114, 3213, 10309, -11470, 4502, 2373, 623, -3445, 737, 230, 13, 39, 46, 53, 33, 162, 325, 281, 223
146031979, 3213, 10309, -11470, 4502, 2373, 623, -3445, 737, 230, 13, 39, 46, 53, 33, 162, 325, 281, 223
146032763, 3213, 10309, -11470, 4502, 2373, 623, -3445, 737, 230, 13, 39, 46, 53, 33, 162, 325, 281, 223
146033607, 3213, 10309, -11470, 4502, 2373, 623, -3445, 737, 230, 13, 39, 46, 53, 33, 162, 325, 281, 223
146038690, 3213, 10309, -11470, 4502, 2373, 623, -3445, 737, 230, 13, 39, 46, 53, 33, 162, 325, 281, 223
146039691, 3208, 10368, -11418, 4503, 2064, 899, -3554, 829, 290, 69, 39, 46, 53, 33, 162, 325, 281, 223
146040443, 3208, 10368, -11418, 4503, 2064, 899, -3554, 829, 290, 69, 39, 47, 41, 40, 189, 268, 279, 229
146041290, 3208, 10368, -11418, 4503, 2064, 899, -3554, 829, 290, 69, 39, 47, 41, 40, 189, 268, 279, 229
146046264, 3208, 10368, -11418, 4503, 2064, 899, -3554, 829, 290, 69, 39, 47, 41, 40, 189, 268, 279, 229
146047079, 3208, 10368, -11418, 4503, 2064, 899, -3554, 829, 290, 69, 39, 47, 41, 40, 189, 268, 279, 229
146047863, 3208, 10368, -11418, 4503, 2064, 899, -3554, 829, 290, 69, 39, 47, 41, 40, 189, 268, 279, 229
146048687, 3208, 10368, -11418, 4503, 2064, 899, -3554, 829, 290, 69, 39, 47, 41, 40, 189, 268, 279, 229
146053656, 3208, 10368, -11418, 4503, 2064, 899, -3554, 829, 290, 69, 39, 47, 41, 40, 189, 268, 279, 229
146054462, 3208, 10368, -11418, 4503, 2064, 899, -3554, 829, 290, 69, 39, 47, 41, 40, 189, 268, 279, 229
146055280, 3208, 10368, -11418, 4503, 2064, 899, -3554, 829, 290, 69, 39, 47, 41, 40, 189, 268, 279, 229
146056109, 3208, 10368, -11418, 4503, 2064, 899, -3554, 829, 290, 69, 39, 47, 41, 40, 189, 268, 279, 229
146061175, 3208, 10368, -11418, 4503, 2064, 899, -3554, 829, 290, 69, 39, 47, 41, 40, 189, 268, 279, 229
146062100, 3204, 10423, -11371, 4497, 2018, 1137, -3668, 893, 329, 165, 39, 47, 41, 40, 189, 268, 279, 229
146062915, 3204, 10423, -11371, 4497, 2018, 1137, -3668, 893, 329, 165, 37, 42, 39, 45, 233, 380, 285, 199
146063749, 3204, 10423, -11371, 4497, 2018, 1137, -3668, 893, 329, 165, 37, 42, 39, 45, 233, 380, 285, 199
146068740, 3204, 10423, -11371, 4497, 2018, 1137, -3668, 893, 329, 165, 37, 42, 39, 45, 233, 380, 285, 199
146069574, 3204, 10423, -11371, 4497, 2018, 1137, -3668, 893, 329, 165, 37, 42, 39, 45, 233, 380, 285, 199
146070362, 3204, 10423, -11371, 4497, 2018, 1137, -3668, 893, 329, 165, 37, 42, 39, 45, 233, 380, 285, 199
146071214, 3204, 10423, -11371, 4497, 2018, 1137, -3668, 893, 329, 165, 37, 42, 39, 45, 233, 380, 285, 199
146076138, 3204, 10423, -11371, 4497, 2018, 1137, -3668, 893, 329, 165, 37, 42, 39, 45, 233, 380, 285, 199
146076945, 3204, 10423, -11371, 4497, 2018, 1137, -3668, 893, 329, 165, 37, 42, 39, 45, 233, 380, 285, 199
146077762, 3204, 10423, -11371, 4497, 2018, 1137, -3668, 893, 329, 165, 37, 42, 39, 45, 233, 380, 285, 199
146078660, 3204, 10423, -11371, 4497, 2018, 1137, -3668, 893, 329, 165, 37, 42, 39, 45, 233, 380, 285, 199
146083671, 3204, 10423, -11371, 4497, 2018, 1137, -3668, 893, 329, 165, 37, 42, 39, 45, 233, 380, 285, 199
146084664, 3209, 10475, -11324, 4492, 2051, 1215, -3803, 898, 404, 191, 37, 42, 39, 45, 233, 380, 285, 199
146085385, 3209, 10475, -11324, 4492, 2051, 1215, -3803, 898, 404, 191, 32, 35, 45, 51, 273, 454, 312, 171
146086215, 3209, 10475, -11324, 4492, 2051, 1215, -3803, 898, 404, 191, 32, 35, 45, 51, 273, 454, 312, 171
146091222, 3209, 10475, -11324, 4492, 2051, 1215, -3803, 898, 404, 191, 32, 35, 45, 51, 273, 454, 312, 171
146092056, 3209, 10475, -11324, 4492, 2051, 1215, -3803, 898, 404, 191, 32, 35, 45, 51, 273, 454, 312, 171
146092865, 3209, 10475, -11324, 4492, 2051, 1215, -3803, 898, 404, 191, 32, 35, 45, 51, 273, 454, 312, 171
146093654, 3209, 10475, -11324, 4492, 2051, 1215, -3803, 898, 404, 191, 32, 35, 45, 51, 273, 454, 312, 171
146098639, 3209, 10475, -11324, 4492, 2051, 1215, -3803, 898, 404, 191, 32, 35, 45, 51, 273, 454, 312, 171
146099415, 3209, 10475, -11324, 4492, 2051, 1215, -3803, 898, 404, 191, 32, 35, 45, 51, 273, 454, 312, 171
146100226, 3209, 10475, -11324, 4492, 2051, 1215, -3803, 898, 404, 191, 32, 35, 45, 51, 273, 454, 312, 171
146101073, 3209, 10475, -11324, 4492, 2051, 1215, -3803, 898, 404, 191, 32, 35, 45, 51, 273, 454, 312, 171
146106187, 3209, 10475, -11324, 4492, 2051, 1215, -3803, 898, 404, 191, 32, 35, 45, 51, 273, 454, 312, 171
146107119, 3235, 10514, -11293, 4460, 2031, 1233, -3794, 674, 403, 238, 32, 35, 45, 51, 273, 454, 312, 171
146107945, 3235, 10514, -11293, 4460, 2031, 1233, -3794, 674, 403, 238, 49, 45, 64, 105, 361, 493, 308, 203
146108738, 3235, 10514, -11293, 4460, 2031, 1233, -3794, 674, 403, 238, 49, 45, 64, 105, 361, 493, 308, 203
146113791, 3235, 10514, -11293, 4460, 2031, 1233, -3794, 674, 403, 238, 49, 45, 64, 105, 361, 493, 308, 203
146114565, 3235, 10514, -11293, 4460, 2031, 1233, -3794, 674, 403, 238, 49, 45, 64, 105, 361, 493, 308, 203
146115385, 3235, 10514, -11293, 4460, 2031, 1233, -3794, 674, 403, 238, 49, 45, 64, 105, 361, 493, 308, 203
146116211, 3235, 10514, -11293, 4460, 2031, 1233, -3794, 674, 403, 238, 49, 45, 64, 105, 361, 493, 308, 203
146121163, 3235, 10514, -11293, 4460, 2031, 1233, -3794, 674, 403, 238, 49, 45, 64, 105, 361, 493, 308, 203
146121963, 3235, 10514, -11293, 4460, 2031, 1233, -3794, 674, 403, 238, 49, 45, 64, 105, 361, 493, 308, 203
146122780, 3235, 10514, -11293, 4460, 2031, 1233, -3794, 674, 403, 238, 49, 45, 64, 105, 361, 493, 308, 203
146123638, 3235, 10514, -11293, 4460, 2031, 1233, -3794, 674, 403, 238, 49, 45, 64, 105, 361, 493, 308, 203
146128682, 3235, 10514, -11293, 4460, 2031, 1233, -3794, 674, 403, 238, 49, 45, 64, 105, 361, 493, 308, 203
146129683, 3271, 10528, -11281, 4430, 2019, 1093, -3742, 508, 453, 329, 49, 45, 64, 105, 361, 493, 308, 203
146130370, 3271, 10528, -11281, 4430, 2019, 1093, -3742, 508, 453, 329, 94, 72, 105, 246, 591, 652, 308, 293
146131313, 3271, 10528, -11281, 4430, 2019, 1093, -3742, 508, 453, 329, 94, 72, 105, 246, 591, 652, 308, 293
146136264, 3271, 10528, -11281, 4430, 2019, 1093, -3742, 508, 453, 329, 94, 72, 105, 246, 591, 652, 308, 293
146137082, 3271, 10528, -11281, 4430, 2019, 1093, -3742, 508, 453, 329, 94, 72, 105, 246, 591, 652, 308, 293
146137876, 3271, 10528, -11281, 4430, 2019, 1093, -3742, 508, 453, 329, 94, 72, 105, 246, 591, 652, 308, 293
146138689, 3271, 10528, -11281, 4430, 2019, 1093, -3742, 508, 453, 329, 94, 72, 105, 246, 591, 652, 308, 293
146143689, 3271, 10528, -11281, 4430, 2019, 1093, -3742, 508, 453, 329, 94, 72, 105, 246, 591, 652, 308, 293
146144447, 3271, 10528, -11281, 4430, 2019, 1093, -3742, 508, 453, 329, 94, 72, 105, 246, 591, 652, 308, 293
146145287, 3271, 10528, -11281, 4430, 2019, 1093, -3742, 508, 453, 329, 94, 72, 105, 246, 591, 652, 308, 293
146146062, 3271, 10528, -11281, 4430, 2019, 1093, -3742, 508, 453, 329, 94, 72, 105, 246, 591, 652, 308, 293
146151171, 3271, 10528, -11281, 4430, 2019, 1093, -3742, 508, 453, 329, 94, 72, 105, 246, 591, 652, 308, 293
146152065, 3320, 10513, -11295, 4394, 2025, 1054, -3718, 338, 492, 481, 94, 72, 105, 246, 591, 652, 308, 293
146152880, 3320, 10513, -11295, 4394, 2025, 1054, -3718, 338, 492, 481, 130, 138, 207, 487, 841, 860, 403, 369
146153720, 3320, 10513, -11295, 4394, 2025, 1054, -3718, 338, 492, 481, 130, 138, 207, 487, 841, 860, 403, 369
146158716, 3320, 10513, -11295, 4394, 2025, 1054, -3718, 338, 492, 481, 130, 138, 207, 487, 841, 860, 403, 369
146159481, 3320, 10513, -11295, 4394, 2025, 1054, -3718, 338, 492, 481, 130, 138, 207, 487, 841, 860, 403, 369
146160335, 3320, 10513, -11295, 4394, 2025, 1054, -3718, 338, 492, 481, 130, 138, 207, 487, 841, 860, 403, 369
146161160, 3320, 10513, -11295, 4394, 2025, 1054, -3718, 338, 492, 481, 130, 138, 207, 487, 841, 860, 403, 369
146166203, 3320, 10513, -11295, 4394, 2025, 1054, -3718, 338, 492, 481, 130, 138, 207, 487, 841, 860, 403, 369
146166986, 3320, 10513, -11295, 4394, 2025, 1054, -3718, 338, 492, 481, 130, 138, 207, 487, 841, 860, 403, 369
146167799, 3320, 10513, -11295, 4394, 2025, 1054, -3718, 338, 492, 481, 130, 138, 207, 487, 841, 860, 403, 369
146168663, 3320, 10513, -11295, 4394, 2025, 1054, -3718, 338, 492, 481, 130, 138, 207, 487, 841, 860, 403, 369
146173689, 3320, 10513, -11295, 4394, 2025, 1054, -3718, 338, 492, 481, 130, 138, 207, 487, 841, 860, 403, 369
146174687, 3376, 10470, -11345, 4326, 1977, 1183, -3830, 150, 464, 715, 130, 138, 207, 487, 841, 860, 403, 369
146175459, 3376, 10470, -11345, 4326, 1977, 1183, -3830, 150, 464, 715, 179, 163, 237, 558, 1007, 1011, 462, 402
146176261, 3376, 10470, -11345, 4326, 1977, 1183, -3830, 150, 464, 715, 179, 163, 237, 558, 1007, 1011, 462, 402
146181258, 3376, 10470, -11345, 4326, 1977, 1183, -3830, 150, 464, 715, 179, 163, 237, 558, 1007, 1011, 462, 402
146182078, 3376, 10470, -11345, 4326, 1977, 1183, -3830, 150, 464, 715, 179, 163, 237, 558, 1007, 1011, 462, 402
146182911, 3376, 10470, -11345, 4326, 1977, 1183, -3830, 150, 464, 715, 179, 163, 237, 558, 1007, 1011, 462, 402
146183680, 3376, 10470, -11345, 4326, 1977, 1183, -3830, 150, 464, 715, 179, 163, 237, 558, 1007, 1011, 462, 402
146188694, 3376, 10470, -11345, 4326, 1977, 1183, -3830, 150, 464, 715, 179, 163, 237, 558, 1007, 1011, 462, 402
146189489, 3376, 10470, -11345, 4326, 1977, 1183, -3830, 150, 464, 715, 179, 163, 237, 558, 1007, 1011, 462, 402
146190290, 3376, 10470, -11345, 4326, 1977, 1183, -3830, 150, 464, 715, 179, 163, 237, 558, 1007, 1011, 462, 402
146191088, 3376, 10470, -11345, 4326, 1977, 1183, -3830, 150, 464, 715, 179, 163, 237, 558, 1007, 1011, 462, 402
146196171, 3376, 10470, -11345, 4326, 1977, 1183, -3830, 150, 464, 715, 179, 163, 237, 558, 1007, 1011, 462, 402
146197092, 3436, 10390, -11442, 4212, 1877, 1323, -3824, -113, 348, 991, 179, 163, 237, 558, 1007, 1011, 462, 402
146197921, 3436, 10390, -11442, 4212, 1877, 1323, -3824, -113, 348, 991, 216, 181, 265, 657, 1145, 1095, 508, 424
146198713, 3436, 10390, -11442, 4212, 1877, 1323, -3824, -113, 348, 991, 216, 181, 265, 657, 1145, 1095, 508, 424
146203754, 3436, 10390, -11442, 4212, 1877, 1323, -3824, -113, 348, 991, 216, 181, 265, 657, 1145, 1095, 508, 424
146204564, 3436, 10390, -11442, 4212, 1877, 1323, -3824, -113, 348, 991, 216, 181, 265, 657, 1145, 1095, 508, 424
146205355, 3436, 10390, -11442, 4212, 1877, 1323, -3824, -113, 348, 991, 216, 181, 265, 657, 1145, 1095, 508, 424
146206163, 3436, 10390, -11442, 4212, 1877, 1323, -3824, -113, 348, 991, 216, 181, 265, 657, 1145, 1095, 508, 424
146211153, 3436, 10390, -11442, 4212, 1877, 1323, -3824, -113, 348, 991, 216, 181, 265, 657, 1145, 1095, 508, 424
146211961, 3436, 10390, -11442, 4212, 1877, 1323, -3824, -113, 348, 991, 216, 181, 265, 657, 1145, 1095, 508, 424
146212765, 3436, 10390, -11442, 4212, 1877, 1323, -3824, -113, 348, 991, 216, 181, 265, 657, 1145, 1095, 508, 424
146213566, 3436, 10390, -11442, 4212, 1877, 1323, -3824, -113, 348, 991, 216, 181, 265, 657, 1145, 1095, 508, 424
146218727, 3436, 10390, -11442, 4212, 1877, 1323, -3824, -113, 348, 991, 216, 181, 265, 657, 1145, 1095, 508, 424
146219665, 3523, 10292, -11571, 4025, 2090, 1397, -3898, -557, 97, 1067, 216, 181, 265, 657, 1145, 1095, 508, 424
146220441, 3523, 10292, -11571, 4025, 2090, 1397, -3898, -557, 97, 1067, 239, 185, 273, 697, 1167, 1121, 544, 440
146221260, 3523, 10292, -11571, 4025, 2090, 1397, -3898, -557, 97, 1067, 239, 185, 273, 697, 1167, 1121, 544, 440
146226221, 3523, 10292, -11571, 4025, 2090, 1397, -3898, -557, 97, 1067, 239, 185, 273, 697, 1167, 1121, 544, 440
146227054, 3523, 10292, -11571, 4025, 2090, 1397, -3898, -557, 97, 1067, 239, 185, 273, 697, 1167, 1121, 544, 440
146227859, 3523, 10292, -11571, 4025, 2090, 1397, -3898, -557, 97, 1067, 239, 185, 273, 697, 1167, 1121, 544, 440
146228703, 3523, 10292, -11571, 4025, 2090, 1397, -3898, -557, 97, 1067, 239, 185, 273, 697, 1167, 1121, 544, 440
146233685, 3523, 10292, -11571, 4025, 2090, 1397, -3898, -557, 97, 1067, 239, 185, 273, 697, 1167, 1121, 544, 440
146234496, 3523, 10292, -11571, 4025, 2090, 1397, -3898, -557, 97, 1067, 239, 185, 273, 697, 1167, 1121, 544, 440
146235287, 3523, 10292, -11571, 4025, 2090, 1397, -3898, -557, 97, 1067, 239, 185, 273, 697, 1167, 1121, 544, 440
146236129, 3523, 10292, -11571, 4025, 2090, 1397, -3898, -557, 97, 1067, 239, 185, 273, 697, 1167, 1121, 544, 440
146241163, 3523, 10292, -11571, 4025, 2090, 1397, -3898, -557, 97, 1067, 239, 185, 273, 697, 1167, 1121, 544, 440
146242117, 3745, 10221, -11679, 3678, 2591, 1652, -3504, -1574, -324, 557, 239, 185, 273, 697, 1167, 1121, 544, 440
146242912, 3745, 10221, -11679, 3678, 2591, 1652, -3504, -1574, -324, 557, 257, 203, 295, 795, 1209, 1107, 578, 420
146243777, 3745, 10221, -11679, 3678, 2591, 1652, -3504, -1574, -324, 557, 257, 203, 295, 795, 1209, 1107, 578, 420
146248739, 3745, 10221, -11679, 3678, 2591, 1652, -3504, -1574, -324, 557, 257, 203, 295, 795, 1209, 1107, 578, 420
146249552, 3745, 10221, -11679, 3678, 2591, 1652, -3504, -1574, -324, 557, 257, 203, 295, 795, 1209, 1107, 578, 420
146250366, 3745, 10221, -11679, 3678, 2591, 1652, -3504, -1574, -324, 557, 257, 203, 295, 795, 1209, 1107, 578, 420
146251209, 3745, 10221, -11679, 3678, 2591, 1652, -3504, -1574, -324, 557, 257, 203, 295, 795, 1209, 1107, 578, 420
146256138, 3745, 10221, -11679, 3678, 2591, 1652, -3504, -1574, -324, 557, 257, 203, 295, 795, 1209, 1107, 578, 420
146256979, 3745, 10221, -11679, 3678, 2591, 1652, -3504, -1574, -324, 557, 257, 203, 295, 795, 1209, 1107, 578, 420
146257785, 3745, 10221, -11679, 3678, 2591, 1652, -3504, -1574, -324, 557, 257, 203, 295, 795, 1209, 1107, 578, 420
146258577, 3745, 10221, -11679, 3678, 2591, 1652, -3504, -1574, -324, 557, 257, 203, 295, 795, 1209, 1107, 578, 420
146263672, 3745, 10221, -11679, 3678, 2591, 1652, -3504, -1574, -324, 557, 257, 203, 295, 795, 1209, 1107, 578, 420
146264565, 3998, 10095, -11844, 3201, 1904, 1842, -3932, -2970, -596, 290, 257, 203, 295, 795, 1209, 1107, 578, 420
146265385, 3998, 10095, -11844, 3201, 1904, 1842, -3932, -2970, -596, 290, 307, 197, 283, 856, 1159, 1044, 571, 513
146266224, 3998, 10095, -11844, 3201, 1904, 1842, -3932, -2970, -596, 290, 257, 203, 295, 795, 1209, 1107, 578, 420
146271254, 3998, 10095, -11844, 3201, 1904, 1842, -3932, -2970, -596, 290, 307, 197, 283, 856, 1159, 1044, 571, 513
146272036, 3998, 10095, -11844, 3201, 1904, 1842, -3932, -2970, -596, 290, 307, 197, 283, 856, 1159, 1044, 571, 513
146272837, 3998, 10095, -11844, 3201, 1904, 1842, -3932, -2970, -596, 290, 307, 197, 283, 856, 1159, 1044, 571, 513
146273697, 3998, 10095, -11844, 3201, 1904, 1842, -3932, -2970, -596, 290, 307, 197, 283, 856, 1159, 1044, 571, 513
146278665, 3998, 10095, -11844, 3201, 1904, 1842, -3932, -2970, -596, 290, 307, 197, 283, 856, 1159, 1044, 571, 513
146279457, 3998, 10095, -11844, 3201, 1904, 1842, -3932, -2970, -596, 290, 307, 197, 283, 856, 1159, 1044, 571, 513
146280238, 3998, 10095, -11844, 3201, 1904, 1842, -3932, -2970, -596, 290, 307, 197, 283, 856, 1159, 1044, 571, 513
146281092, 3998, 10095, -11844, 3201, 1904, 1842, -3932, -2970, -596, 290, 307, 197, 283, 856, 1159, 1044, 571, 513
146286210, 3998, 10095, -11844, 3201, 1904, 1842, -3932, -2970, -596, 290, 307, 197, 283, 856, 1159, 1044, 571, 513
146287156, 4396, 9876, -12057, 2486, 2377, 1119, -3274, -4724, -909, 266, 307, 197, 283, 856, 1159, 1044, 571, 513
146287938, 4396, 9876, -12057, 2486, 2377, 1119, -3274, -4724, -909, 266, 298, 190, 265, 837, 1101, 1001, 589, 514
146288759, 4396, 9876, -12057, 2486, 2377, 1119, -3274, -4724, -909, 266, 298, 190, 265, 837, 1101, 1001, 589, 514
146293771, 4396, 9876, -12057, 2486, 2377, 1119, -3274, -4724, -909, 266, 298, 190, 265, 837, 1101, 1001, 589, 514
146294576, 4396, 9876, -12057, 2486, 2377, 1119, -3274, -4724, -909, 266, 298, 190, 265, 837, 1101, 1001, 589, 514
146295391, 4396, 9876, -12057, 2486, 2377, 1119, -3274, -4724, -909, 266, 298, 190, 265, 837, 1101, 1001, 589, 514
146296178, 4396, 9876, -12057, 2486, 2377, 1119, -3274, -4724, -909, 266, 298, 190, 265, 837, 1101, 1001, 589, 514
146301114, 4396, 9876, -12057, 2486, 2377, 1119, -3274, -4724, -909, 266, 298, 190, 265, 837, 1101, 1001, 589, 514
146301938, 4396, 9876, -12057, 2486, 2377, 1119, -3274, -4724, -909, 266, 298, 190, 265, 837, 1101, 1001, 589, 514
146302762, 4396, 9876, -12057, 2486, 2377, 1119, -3274, -4724, -909, 266, 298, 190, 265, 837, 1101, 1001, 589, 514
146303637, 4396, 9876, -12057, 2486, 2377, 1119, -3274, -4724, -909, 266, 298, 190, 265, 837, 1101, 1001, 589, 514
146308661, 4396, 9876, -12057, 2486, 2377, 1119, -3274, -4724, -909, 266, 298, 190, 265, 837, 1101, 1001, 589, 514
146309705, 4834, 9649, -12213, 1672, 2268, 1738, -3515, -5214, -961, -61, 298, 190, 265, 837, 1101, 1001, 589, 514
146310365, 4834, 9649, -12213, 1672, 2268, 1738, -3515, -5214, -961, -61, 294, 176, 237, 772, 964, 901, 555, 525
146311260, 4834, 9649, -12213, 1672, 2268, 1738, -3515, -5214, -961, -61, 294, 176, 237, 772, 964, 901, 555, 525
146316238, 4834, 9649, -12213, 1672, 2268, 1738, -3515, -5214, -961, -61, 294, 176, 237, 772, 964, 901, 555, 525
146317079, 4834, 9649, -12213, 1672, 2268, 1738, -3515, -5214, -961, -61, 294, 176, 237, 772, 964, 901, 555, 525
146317863, 4834, 9649, -12213, 1672, 2268, 1738, -3515, -5214, -961, -61, 294, 176, 237, 772, 964, 901, 555, 525
146318728, 4834, 9649, -12213, 1672, 2268, 1738, -3515, -5214, -961, -61, 294, 176, 237, 772, 964, 901, 555, 525
146323664, 4834, 9649, -12213, 1672, 2268, 1738, -3515, -5214, -961, -61, 294, 176, 237, 772, 964, 901, 555, 525
146324452, 4834, 9649, -12213, 1672, 2268, 1738, -3515, -5214, -961, -61, 294, 176, 237, 772, 964, 901, 555, 525
146325263, 4834, 9649, -12213, 1672, 2268, 1738, -3515, -5214, -961, -61, 294, 176, 237, 772, 964, 901, 555, 525
146326088, 4834, 9649, -12213, 1672, 2268, 1738, -3515, -5214, -961, -61, 294, 176, 237, 772, 964, 901, 555, 525
146331186, 4834, 9649, -12213, 1672, 2268, 1738, -3515, -5214, -961, -61, 294, 176, 237, 772, 964, 901, 555, 525
146332093, 5301, 9409, -12298, 758, 2199, 1926, -3422, -5745, -1056, -447, 294, 176, 237, 772, 964, 901, 555, 525
146332888, 5301, 9409, -12298, 758, 2199, 1926, -3422, -5745, -1056, -447, 282, 173, 228, 748, 968, 969, 538, 525
146333742, 5301, 9409, -12298, 758, 2199, 1926, -3422, -5745, -1056, -447, 282, 173, 228, 748, 968, 969, 538, 525
146338713, 5301, 9409, -12298, 758, 2199, 1926, -3422, -5745, -1056, -447, 282, 173, 228, 748, 968, 969, 538, 525
146339542, 5301, 9409, -12298, 758, 2199, 1926, -3422, -5745, -1056, -447, 282, 173, 228, 748, 968, 969, 538, 525
146340344, 5301, 9409, -12298, 758, 2199, 1926, -3422, -5745, -1056, -447, 282, 173, 228, 748, 968, 969, 538, 525
146341154, 5301, 9409, -12298, 758, 2199, 1926, -3422, -5745, -1056, -447, 282, 173, 228, 748, 968, 969, 538, 525
146346157, 5301, 9409, -12298, 758, 2199, 1926, -3422, -5745, -1056, -447, 282, 173, 228, 748, 968, 969, 538, 525
146346914, 5301, 9409, -12298, 758, 2199, 1926, -3422, -5745, -1056, -447, 282, 173, 228, 748, 968, 969, 538, 525
146347766, 5301, 9409, -12298, 758, 2199, 1926, -3422, -5745, -1056, -447, 282, 173, 228, 748, 968, 969, 538, 525
146348541, 5301, 9409, -12298, 758, 2199, 1926, -3422, -5745, -1056, -447, 282, 173, 228, 748, 968, 969, 538, 525
146353690, 5301, 9409, -12298, 758, 2199, 1926, -3422, -5745, -1056, -447, 282, 173, 228, 748, 968, 969, 538, 525
146354665, 5741, 9141, -12324, -161, 2165, 1881, -3488, -5774, -1060, -558, 282, 173, 228, 748, 968, 969, 538, 525
146355409, 5741, 9141, -12324, -161, 2165, 1881, -3488, -5774, -1060, -558, 270, 154, 201, 670, 850, 911, 545, 520
146356253, 5741, 9141, -12324, -161, 2165, 1881, -3488, -5774, -1060, -558, 270, 154, 201, 670, 850, 911, 545, 520
146361238, 5741, 9141, -12324, -161, 2165, 1881, -3488, -5774, -1060, -558, 270, 154, 201, 670, 850, 911, 545, 520
146362102, 5741, 9141, -12324, -161, 2165, 1881, -3488, -5774, -1060, -558, 270, 154, 201, 670, 850, 911, 545, 520
146362910, 5741, 9141, -12324, -161, 2165, 1881, -3488, -5774, -1060, -558, 270, 154, 201, 670, 850, 911, 545, 520
146363716, 5741, 9141, -12324, -161, 2165, 1881, -3488, -5774, -1060, -558, 270, 154, 201, 670, 850, 911, 545, 520
146368666, 5741, 9141, -12324, -161, 2165, 1881, -3488, -5774, -1060, -558, 270, 154, 201, 670, 850, 911, 545, 520
146369464, 5741, 9141, -12324, -161, 2165, 1881, -3488, -5774, -1060, -558, 270, 154, 201, 670, 850, 911, 545, 520
146370262, 5741, 9141, -12324, -161, 2165, 1881, -3488, -5774, -1060, -558, 270, 154, 201, 670, 850, 911, 545, 520
146371114, 5741, 9141, -12324, -161, 2165, 1881, -3488, -5774, -1060, -558, 270, 154, 201, 670, 850, 911, 545, 520
146376162, 5741, 9141, -12324, -161, 2165, 1881, -3488, -5774, -1060, -558, 270, 154, 201, 670, 850, 911, 545, 520
146377110, 6120, 8888, -12287, -997, 2052, 1690, -3457, -5283, -926, -699, 270, 154, 201, 670, 850, 911, 545, 520
146377921, 6120, 8888, -12287, -997, 2052, 1690, -3457, -5283, -926, -699, 212, 125, 136, 418, 782, 941, 539, 398
146378736, 6120, 8888, -12287, -997, 2052, 1690, -3457, -5283, -926, -699, 212, 125, 136, 418, 782, 941, 539, 398
146383784, 6120, 8888, -12287, -997, 2052, 1690, -3457, -5283, -926, -699, 212, 125, 136, 418, 782, 941, 539, 398
146384557, 6120, 8888, -12287, -997, 2052, 1690, -3457, -5283, -926, -699, 212, 125, 136, 418, 782, 941, 539, 398
146385355, 6120, 8888, -12287, -997, 2052, 1690, -3457, -5283, -926, -699, 212, 125, 136, 418, 782, 941, 539, 398
146386175, 6120, 8888, -12287, -997, 2052, 1690, -3457, -5283, -926, -699, 212, 125, 136, 418, 782, 941, 539, 398
146391143, 6120, 8888, -12287, -997, 2052, 1690, -3457, -5283, -926, -699, 212, 125, 136, 418, 782, 941, 539, 398
146391940, 6120, 8888, -12287, -997, 2052, 1690, -3457, -5283, -926, -699, 212, 125, 136, 418, 782, 941, 539, 398
146392754, 6120, 8888, -12287, -997, 2052, 1690, -3457, -5283, -926, -699, 212, 125, 136, 418, 782, 941, 539, 398
146393562, 6120, 8888, -12287, -997, 2052, 1690, -3457, -5283, -926, -699, 212, 125, 136, 418, 782, 941, 539, 398
146398682, 6120, 8888, -12287, -997, 2052, 1690, -3457, -5283, -926, -699, 212, 125, 136, 418, 782, 941, 539, 398
146399585, 6409, 8663, -12225, -1692, 1940, 1813, -3122, -4362, -824, -633, 212, 125, 136, 418, 782, 941, 539, 398
146400417, 6409, 8663, -12225, -1692, 1940, 1813, -3122, -4362, -824, -633, 197, 115, 127, 376, 685, 903, 512, 395
146401202, 6409, 8663, -12225, -1692, 1940, 1813, -3122, -4362, -824, -633, 197, 115, 127, 376, 685, 903, 512, 395
146406195, 6409, 8663, -12225, -1692, 1940, 1813, -3122, -4362, -824, -633, 197, 115, 127, 376, 685, 903, 512, 395
146407037, 6409, 8663, -12225, -1692, 1940, 1813, -3122, -4362, -824, -633, 197, 115, 127, 376, 685, 903, 512, 395
146407868, 6409, 8663, -12225, -1692, 1940, 1813, -3122, -4362, -824, -633, 197, 115, 127, 376, 685, 903, 512, 395
146408685, 6409, 8663, -12225, -1692, 1940, 1813, -3122, -4362, -824, -633, 197, 115, 127, 376, 685, 903, 512, 395
146413675, 6409, 8663, -12225, -1692, 1940, 1813, -3122, -4362, -824, -633, 197, 115, 127, 376, 685, 903, 512, 395
146414492, 6409, 8663, -12225, -1692, 1940, 1813, -3122, -4362, -824, -633, 197, 115, 127, 376, 685, 903, 512, 395
146415300, 6409, 8663, -12225, -1692, 1940, 1813, -3122, -4362, -824, -633, 197, 115, 127, 376, 685, 903, 512, 395
146416117, 6409, 8663, -12225, -1692, 1940, 1813, -3122, -4362, -824, -633, 197, 115, 127, 376, 685, 903, 512, 395
146421167, 6409, 8663, -12225, -1692, 1940, 1813, -3122, -4362, -824, -633, 197, 115, 127, 376, 685, 903, 512, 395
146422105, 6628, 8475, -12142, -2292, 1852, 2102, -2820, -3676, -774, -679, 197, 115, 127, 376, 685, 903, 512, 395
146422915, 6628, 8475, -12142, -2292, 1852, 2102, -2820, -3676, -774, -679, 185, 127, 134, 375, 771, 1003, 522, 406
146423754, 6628, 8475, -12142, -2292, 1852, 2102, -2820, -3676, -774, -679, 185, 127, 134, 375, 771, 1003, 522, 406
146428763, 6628, 8475, -12142, -2292, 1852, 2102, -2820, -3676, -774, -679, 185, 127, 134, 375, 771, 1003, 522, 406
146429541, 6628, 8475, -12142, -2292, 1852, 2102, -2820, -3676, -774, -679, 185, 127, 134, 375, 771, 1003, 522, 406
146430391, 6628, 8475, -12142, -2292, 1852, 2102, -2820, -3676, -774, -679, 185, 127, 134, 375, 771, 1003, 522, 406
146431189, 6628, 8475, -12142, -2292, 1852, 2102, -2820, -3676, -774, -679, 185, 127, 134, 375, 771, 1003, 522, 406
146436137, 6628, 8475, -12142, -2292, 1852, 2102, -2820, -3676, -774, -679, 185, 127, 134, 375, 771, 1003, 522, 406
146436936, 6628, 8475, -12142, -2292, 1852, 2102, -2820, -3676, -774, -679, 185, 127, 134, 375, 771, 1003, 522, 406
146437773, 6628, 8475, -12142, -2292, 1852, 2102, -2820, -3676, -774, -679, 185, 127, 134, 375, 771, 1003, 522, 406
146438567, 6628, 8475, -12142, -2292, 1852, 2102, -2820, -3676, -774, -679, 185, 127, 134, 375, 771, 1003, 522, 406
146443666, 6628, 8475, -12142, -2292, 1852, 2102, -2820, -3676, -774, -679, 185, 127, 134, 375, 771, 1003, 522, 406
146444567, 6857, 8261, -12019, -2953, 1740, 2629, -2530, -4013, -843, -794, 185, 127, 134, 375, 771, 1003, 522, 406
146445431, 6857, 8261, -12019, -2953, 1740, 2629, -2530, -4013, -843, -794, 195, 127, 134, 364, 750, 949, 501, 384
146446220, 6857, 8261, -12019, -2953, 1740, 2629, -2530, -4013, -843, -794, 185, 127, 134, 375, 771, 1003, 522, 406
146451213, 6857, 8261, -12019, -2953, 1740, 2629, -2530, -4013, -843, -794, 195, 127, 134, 364, 750, 949, 501, 384
146452079, 6857, 8261, -12019, -2953, 1740, 2629, -2530, -4013, -843, -794, 195, 127, 134, 364, 750, 949, 501, 384
146452838, 6857, 8261, -12019, -2953, 1740, 2629, -2530, -4013, -843, -794, 195, 127, 134, 364, 750, 949, 501, 384
146453691, 6857, 8261, -12019, -2953, 1740, 2629, -2530, -4013, -843, -794, 195, 127, 134, 364, 750, 949, 501, 384
146458665, 6857, 8261, -12019, -2953, 1740, 2629, -2530, -4013, -843, -794, 195, 127, 134, 364, 750, 949, 501, 384
146459438, 6857, 8261, -12019, -2953, 1740, 2629, -2530, -4013, -843, -794, 195, 127, 134, 364, 750, 949, 501, 384
146460238, 6857, 8261, -12019, -2953, 1740, 2629, -2530, -4013, -843, -794, 195, 127, 134, 364, 750, 949, 501, 384
146461103, 6857, 8261, -12019, -2953, 1740, 2629, -2530, -4013, -843, -794, 195, 127, 134, 364, 750, 949, 501, 384
146466190, 6857, 8261, -12019, -2953, 1740, 2629, -2530, -4013, -843, -794, 195, 127, 134, 364, 750, 949, 501, 384
146467154, 7097, 8006, -11844, -3699, 1844, 2468, -2494, -4601, -964, -1010, 195, 127, 134, 364, 750, 949, 501, 384
146467955, 7097, 8006, -11844, -3699, 1844, 2468, -2494, -4601, -964, -1010, 233, 128, 127, 275, 740, 1031, 510, 393
146468766, 7097, 8006, -11844, -3699, 1844, 2468, -2494, -4601, -964, -1010, 233, 128, 127, 275, 740, 1031, 510, 393
146473763, 7097, 8006, -11844, -3699, 1844, 2468, -2494, -4601, -964, -1010, 233, 128, 127, 275, 740, 1031, 510, 393
146474606, 7097, 8006, -11844, -3699, 1844, 2468, -2494, -4601, -964, -1010, 233, 128, 127, 275, 740, 1031, 510, 393
146475388, 7097, 8006, -11844, -3699, 1844, 2468, -2494, -4601, -964, -1010, 233, 128, 127, 275, 740, 1031, 510, 393
146476214, 7097, 8006, -11844, -3699, 1844, 2468, -2494, -4601, -964, -1010, 233, 128, 127, 275, 740, 1031, 510, 393
146481142, 7097, 8006, -11844, -3699, 1844, 2468, -2494, -4601, -964, -1010, 233, 128, 127, 275, 740, 1031, 510, 393
146481966, 7097, 8006, -11844, -3699, 1844, 2468, -2494, -4601, -964, -1010, 233, 128, 127, 275, 740, 1031, 510, 393
146482764, 7097, 8006, -11844, -3699, 1844, 2468, -2494, -4601, -964, -1010, 233, 128, 127, 275, 740, 1031, 510, 393
146483666, 7097, 8006, -11844, -3699, 1844, 2468, -2494, -4601, -964, -1010, 233, 128, 127, 275, 740, 1031, 510, 393
146488660, 7097, 8006, -11844, -3699, 1844, 2468, -2494, -4601, -964, -1010, 233, 128, 127, 275, 740, 1031, 510, 393
146489700, 7299, 7749, -11641, -4426, 1937, 2498, -2414, -4488, -1007, -1107, 233, 128, 127, 275, 740, 1031, 510, 393
146490365, 7299, 7749, -11641, -4426, 1937, 2498, -2414, -4488, -1007, -1107, 245, 129, 133, 294, 748, 1147, 543, 393
146491253, 7299, 7749, -11641, -4426, 1937, 2498, -2414, -4488, -1007, -1107, 245, 129, 133, 294, 748, 1147, 543, 393
146496238, 7299, 7749, -11641, -4426, 1937, 2498, -2414, -4488, -1007, -1107, 245, 129, 133, 294, 748, 1147, 543, 393
146497064, 7299, 7749, -11641, -4426, 1937, 2498, -2414, -4488, -1007, -1107, 245, 129, 133, 294, 748, 1147, 543, 393
146497861, 7299, 7749, -11641, -4426, 1937, 2498, -2414, -4488, -1007, -1107, 245, 129, 133, 294, 748, 1147, 543, 393
146498688, 7299, 7749, -11641, -4426, 1937, 2498, -2414, -4488, -1007, -1107, 245, 129, 133, 294, 748, 1147, 543, 393
146503663, 7299, 7749, -11641, -4426, 1937, 2498, -2414, -4488, -1007, -1107, 245, 129, 133, 294, 748, 1147, 543, 393
146504470, 7299, 7749, -11641, -4426, 1937, 2498, -2414, -4488, -1007, -1107, 245, 129, 133, 294, 748, 1147, 543, 393
146505263, 7299, 7749, -11641, -4426, 1937, 2498, -2414, -4488, -1007, -1107, 245, 129, 133, 294, 748, 1147, 543, 393
146506090, 7299, 7749, -11641, -4426, 1937, 2498, -2414, -4488, -1007, -1107, 245, 129, 133, 294, 748, 1147, 543, 393
146511170, 7299, 7749, -11641, -4426, 1937, 2498, -2414, -4488, -1007, -1107, 245, 129, 133, 294, 748, 1147, 543, 393
146512066, 7463, 7473, -11455, -5067, 1872, 2376, -2399, -4103, -985, -847, 245, 129, 133, 294, 748, 1147, 543, 393
146512927, 7463, 7473, -11455, -5067, 1872, 2376, -2399, -4103, -985, -847, 302, 125, 137, 286, 727, 1184, 581, 405
146513710, 7463, 7473, -11455, -5067, 1872, 2376, -2399, -4103, -985, -847, 302, 125, 137, 286, 727, 1184, 581, 405
146518741, 7463, 7473, -11455, -5067, 1872, 2376, -2399, -4103, -985, -847, 302, 125, 137, 286, 727, 1184, 581, 405
146519515, 7463, 7473, -11455, -5067, 1872, 2376, -2399, -4103, -985, -847, 302, 125, 137, 286, 727, 1184, 581, 405
146520373, 7463, 7473, -11455, -5067, 1872, 2376, -2399, -4103, -985, -847, 302, 125, 137, 286, 727, 1184, 581, 405
146521139, 7463, 7473, -11455, -5067, 1872, 2376, -2399, -4103, -985, -847, 302, 125, 137, 286, 727, 1184, 581, 405
146526114, 7463, 7473, -11455, -5067, 1872, 2376, -2399, -4103, -985, -847, 302, 125, 137, 286, 727, 1184, 581, 405
146526912, 7463, 7473, -11455, -5067, 1872, 2376, -2399, -4103, -985, -847, 302, 125, 137, 286, 727, 1184, 581, 405
146527760, 7463, 7473, -11455, -5067, 1872, 2376, -2399, -4103, -985, -847, 302, 125, 137, 286, 727, 1184, 581, 405
146528548, 7463, 7473, -11455, -5067, 1872, 2376, -2399, -4103, -985, -847, 302, 125, 137, 286, 727, 1184, 581, 405
146533681, 7463, 7473, -11455, -5067, 1872, 2376, -2399, -4103, -985, -847, 302, 125, 137, 286, 727, 1184, 581, 405
146534673, 7598, 7210, -11302, -5567, 1763, 2040, -2241, -3408, -797, -523, 302, 125, 137, 286, 727, 1184, 581, 405
146535418, 7598, 7210, -11302, -5567, 1763, 2040, -2241, -3408, -797, -523, 325, 117, 133, 266, 639, 1209, 635, 369
146536278, 7598, 7210, -11302, -5567, 1763, 2040, -2241, -3408, -797, -523, 325, 117, 133, 266, 639, 1209, 635, 369
146541238, 7598, 7210, -11302, -5567, 1763, 2040, -2241, -3408, -797, -523, 325, 117, 133, 266, 639, 1209, 635, 369
146542090, 7598, 7210, -11302, -5567, 1763, 2040, -2241, -3408, -797, -523, 325, 117, 133, 266, 639, 1209, 635, 369
146542863, 7598, 7210, -11302, -5567, 1763, 2040, -2241, -3408, -797, -523, 325, 117, 133, 266, 639, 1209, 635, 369
146543715, 7598, 7210, -11302, -5567, 1763, 2040, -2241, -3408, -797, -523, 325, 117, 133, 266, 639, 1209, 635, 369
146548662, 7598, 7210, -11302, -5567, 1763, 2040, -2241, -3408, -797, -523, 325, 117, 133, 266, 639, 1209, 635, 369
146549422, 7598, 7210, -11302, -5567, 1763, 2040, -2241, -3408, -797, -523, 325, 117, 133, 266, 639, 1209, 635, 369
146550239, 7598, 7210, -11302, -5567, 1763, 2040, -2241, -3408, -797, -523, 325, 117, 133, 266, 639, 1209, 635, 369
146551063, 7598, 7210, -11302, -5567, 1763, 2040, -2241, -3408, -797, -523, 325, 117, 133, 266, 639, 1209, 635, 369
146556132, 7598, 7210, -11302, -5567, 1763, 2040, -2241, -3408, -797, -523, 325, 117, 133, 266, 639, 1209, 635, 369
146557089, 7686, 6994, -11193, -5929, 1629, 1951, -2012, -2547, -654, -322, 325, 117, 133, 266, 639, 1209, 635, 369
146557889, 7686, 6994, -11193, -5929, 1629, 1951, -2012, -2547, -654, -322, 337, 128, 138, 234, 598, 1290, 654, 400
146558753, 7686, 6994, -11193, -5929, 1629, 1951, -2012, -2547, -654, -322, 337, 128, 138, 234, 598, 1290, 654, 400
146563713, 7686, 6994, -11193, -5929, 1629, 1951, -2012, -2547, -654, -322, 337, 128, 138, 234, 598, 1290, 654, 400
146564582, 7686, 6994, -11193, -5929, 1629, 1951, -2012, -2547, -654, -322, 337, 128, 138, 234, 598, 1290, 654, 400
146565345, 7686, 6994, -11193, -5929, 1629, 1951, -2012, -2547, -654, -322, 337, 128, 138, 234, 598, 1290, 654, 400
146566176, 7686, 6994, -11193, -5929, 1629, 1951, -2012, -2547, -654, -322, 337, 128, 138, 234, 598, 1290, 654, 400
146571120, 7686, 6994, -11193, -5929, 1629, 1951, -2012, -2547, -654, -322, 337, 128, 138, 234, 598, 1290, 654, 400
146571938, 7686, 6994, -11193, -5929, 1629, 1951, -2012, -2547, -654, -322, 337, 128, 138, 234, 598, 1290, 654, 400
146572778, 7686, 6994, -11193, -5929, 1629, 1951, -2012, -2547, -654, -322, 337, 128, 138, 234, 598, 1290, 654, 400
146573568, 7686, 6994, -11193, -5929, 1629, 1951, -2012, -2547, -654, -322, 337, 128, 138, 234, 598, 1290, 654, 400
146578680, 7686, 6994, -11193, -5929, 1629, 1951, -2012, -2547, -654, -322, 337, 128, 138, 234, 598, 1290, 654, 400
146579569, 7736, 6825, -11105, -6220, 1540, 2176, -1749, -1992, -598, -320, 337, 128, 138, 234, 598, 1290, 654, 400
146580429, 7736, 6825, -11105, -6220, 1540, 2176, -1749, -1992, -598, -320, 309, 137, 126, 205, 546, 1257, 667, 399
146581210, 7736, 6825, -11105, -6220, 1540, 2176, -1749, -1992, -598, -320, 337, 128, 138, 234, 598, 1290, 654, 400
146586219, 7736, 6825, -11105, -6220, 1540, 2176, -1749, -1992, -598, -320, 309, 137, 126, 205, 546, 1257, 667, 399
146587053, 7736, 6825, -11105, -6220, 1540, 2176, -1749, -1992, -598, -320, 309, 137, 126, 205, 546, 1257, 667, 399
146587861, 7736, 6825, -11105, -6220, 1540, 2176, -1749, -1992, -598, -320, 309, 137, 126, 205, 546, 1257, 667, 399
146588674, 7736, 6825, -11105, -6220, 1540, 2176, -1749, -1992, -598, -320, 309, 137, 126, 205, 546, 1257, 667, 399
146593664, 7736, 6825, -11105, -6220, 1540, 2176, -1749, -1992, -598, -320, 309, 137, 126, 205, 546, 1257, 667, 399
146594507, 7736, 6825, -11105, -6220, 1540, 2176, -1749, -1992, -598, -320, 309, 137, 126, 205, 546, 1257, 667, 399
146595288, 7736, 6825, -11105, -6220, 1540, 2176, -1749, -1992, -598, -320, 309, 137, 126, 205, 546, 1257, 667, 399
146596130, 7736, 6825, -11105, -6220, 1540, 2176, -1749, -1992, -598, -320, 309, 137, 126, 205, 546, 1257, 667, 399
146601166, 7736, 6825, -11105, -6220, 1540, 2176, -1749, -1992, -598, -320, 309, 137, 126, 205, 546, 1257, 667, 399
146602094, 7746, 6681, -11039, -6475, 1502, 2577, -1785, -1647, -666, -345, 309, 137, 126, 205, 546, 1257, 667, 399
146602915, 7746, 6681, -11039, -6475, 1502, 2577, -1785, -1647, -666, -345, 314, 129, 123, 185, 428, 1134, 677, 540
146603747, 7746, 6681, -11039, -6475, 1502, 2577, -1785, -1647, -666, -345, 314, 129, 123, 185, 428, 1134, 677, 540
146608726, 7746, 6681, -11039, -6475, 1502, 2577, -1785, -1647, -666, -345, 314, 129, 123, 185, 428, 1134, 677, 540
146609541, 7746, 6681, -11039, -6475, 1502, 2577, -1785, -1647, -666, -345, 314, 129, 123, 185, 428, 1134, 677, 540
146610381, 7746, 6681, -11039, -6475, 1502, 2577, -1785, -1647, -666, -345, 314, 129, 123, 185, 428, 1134, 677, 540
146611189, 7746, 6681, -11039, -6475, 1502, 2577, -1785, -1647, -666, -345, 314, 129, 123, 185, 428, 1134, 677, 540
146616167, 7746, 6681, -11039, -6475, 1502, 2577, -1785, -1647, -666, -345, 314, 129, 123, 185, 428, 1134, 677, 540
146616938, 7746, 6681, -11039, -6475, 1502, 2577, -1785, -1647, -666, -345, 314, 129, 123, 185, 428, 1134, 677, 540
146617763, 7746, 6681, -11039, -6475, 1502, 2577, -1785, -1647, -666, -345, 314, 129, 123, 185, 428, 1134, 677, 540
146618580, 7746, 6681, -11039, -6475, 1502, 2577, -1785, -1647, -666, -345, 314, 129, 123, 185, 428, 1134, 677, 540
146623663, 7746, 6681, -11039, -6475, 1502, 2577, -1785, -1647, -666, -345, 314, 129, 123, 185, 428, 1134, 677, 540
146624610, 7734, 6529, -11045, -6634, 1505, 2652, -1613, -1454, -670, -173, 314, 129, 123, 185, 428, 1134, 677, 540
146625388, 7734, 6529, -11045, -6634, 1505, 2652, -1613, -1454, -670, -173, 270, 145, 129, 183, 430, 1081, 630, 548
146626254, 7734, 6529, -11045, -6634, 1505, 2652, -1613, -1454, -670, -173, 270, 145, 129, 183, 430, 1081, 630, 548
146631222, 7734, 6529, -11045, -6634, 1505, 2652, -1613, -1454, -670, -173, 270, 145, 129, 183, 430, 1081, 630, 548
146632045, 7734, 6529, -11045, -6634, 1505, 2652, -1613, -1454, -670, -173, 270, 145, 129, 183, 430, 1081, 630, 548
146632838, 7734, 6529, -11045, -6634, 1505, 2652, -1613, -1454, -670, -173, 270, 145, 129, 183, 430, 1081, 630, 548
146633704, 7734, 6529, -11045, -6634, 1505, 2652, -1613, -1454, -670, -173, 270, 145, 129, 183, 430, 1081, 630, 548
146638689, 7734, 6529, -11045, -6634, 1505, 2652, -1613, -1454, -670, -173, 270, 145, 129, 183, 430, 1081, 630, 548
146639416, 7734, 6529, -11045, -6634, 1505, 2652, -1613, -1454, -670, -173, 270, 145, 129, 183, 430, 1081, 630, 548
146640313, 7734, 6529, -11045, -6634, 1505, 2652, -1613, -1454, -670, -173, 270, 145, 129, 183, 430, 1081, 630, 548
146641078, 7734, 6529, -11045, -6634, 1505, 2652, -1613, -1454, -670, -173, 270, 145, 129, 183, 430, 1081, 630, 548
146646135, 7734, 6529, -11045, -6634, 1505, 2652, -1613, -1454, -670, -173, 270, 145, 129, 183, 430, 1081, 630, 548
146647094, 7745, 6365, -11076, -6729, 1574, 2391, -1526, -1244, -547, 74, 270, 145, 129, 183, 430, 1081, 630, 548
146647887, 7745, 6365, -11076, -6729, 1574, 2391, -1526, -1244, -547, 74, 234, 155, 128, 192, 400, 970, 579, 613
146648710, 7745, 6365, -11076, -6729, 1574, 2391, -1526, -1244, -547, 74, 234, 155, 128, 192, 400, 970, 579, 613
146653688, 7745, 6365, -11076, -6729, 1574, 2391, -1526, -1244, -547, 74, 234, 155, 128, 192, 400, 970, 579, 613
146654558, 7745, 6365, -11076, -6729, 1574, 2391, -1526, -1244, -547, 74, 234, 155, 128, 192, 400, 970, 579, 613
146655343, 7745, 6365, -11076, -6729, 1574, 2391, -1526, -1244, -547, 74, 234, 155, 128, 192, 400, 970, 579, 613
146656173, 7745, 6365, -11076, -6729, 1574, 2391, -1526, -1244, -547, 74, 234, 155, 128, 192, 400, 970, 579, 613
146661138, 7745, 6365, -11076, -6729, 1574, 2391, -1526, -1244, -547, 74, 234, 155, 128, 192, 400, 970, 579, 613
146662003, 7745, 6365, -11076, -6729, 1574, 2391, -1526, -1244, -547, 74, 234, 155, 128, 192, 400, 970, 579, 613
146662765, 7745, 6365, -11076, -6729, 1574, 2391, -1526, -1244, -547, 74, 234, 155, 128, 192, 400, 970, 579, 613
146663660, 7745, 6365, -11076, -6729, 1574, 2391, -1526, -1244, -547, 74, 234, 155, 128, 192, 400, 970, 579, 613
146668662, 7745, 6365, -11076, -6729, 1574, 2391, -1526, -1244, -547, 74, 234, 155, 128, 192, 400, 970, 579, 613
146669692, 7753, 6218, -11132, -6764, 1713, 2156, -1364, -850, -490, 116, 234, 155, 128, 192, 400, 970, 579, 613
146670342, 7753, 6218, -11132, -6764, 1713, 2156, -1364, -850, -490, 116, 201, 153, 121, 206, 408, 817, 576, 628
146671253, 7753, 6218, -11132, -6764, 1713, 2156, -1364, -850, -490, 116, 201, 153, 121, 206, 408, 817, 576, 628
146676253, 7753, 6218, -11132, -6764, 1713, 2156, -1364, -850, -490, 116, 201, 153, 121, 206, 408, 817, 576, 628
146677033, 7753, 6218, -11132, -6764, 1713, 2156, -1364, -850, -490, 116, 201, 153, 121, 206, 408, 817, 576, 628
146677840, 7753, 6218, -11132, -6764, 1713, 2156, -1364, -850, -490, 116, 201, 153, 121, 206, 408, 817, 576, 628
146678638, 7753, 6218, -11132, -6764, 1713, 2156, -1364, -850, -490, 116, 201, 153, 121, 206, 408, 817, 576, 628
146683637, 7753, 6218, -11132, -6764, 1713, 2156, -1364, -850, -490, 116, 201, 153, 121, 206, 408, 817, 576, 628
146684415, 7753, 6218, -11132, -6764, 1713, 2156, -1364, -850, -490, 116, 201, 153, 121, 206, 408, 817, 576, 628
146685222, 7753, 6218, -11132, -6764, 1713, 2156, -1364, -850, -490, 116, 201, 153, 121, 206, 408, 817, 576, 628
146686065, 7753, 6218, -11132, -6764, 1713, 2156, -1364, -850, -490, 116, 201, 153, 121, 206, 408, 817, 576, 628
146691179, 7753, 6218, -11132, -6764, 1713, 2156, -1364, -850, -490, 116, 201, 153, 121, 206, 408, 817, 576, 628
146692066, 7750, 6100, -11205, -6755, 1886, 2270, -1333, -513, -431, 89, 201, 153, 121, 206, 408, 817, 576, 628
146692914, 7750, 6100, -11205, -6755, 1886, 2270, -1333, -513, -431, 89, 194, 137, 118, 186, 369, 808, 530, 614
146693690, 7750, 6100, -11205, -6755, 1886, 2270, -1333, -513, -431, 89, 194, 137, 118, 186, 369, 808, 530, 614
146698711, 7750, 6100, -11205, -6755, 1886, 2270, -1333, -513, -431, 89, 194, 137, 118, 186, 369, 808, 530, 614
146699541, 7750, 6100, -11205, -6755, 1886, 2270, -1333, -513, -431, 89, 194, 137, 118, 186, 369, 808, 530, 614
146700344, 7750, 6100, -11205, -6755, 1886, 2270, -1333, -513, -431, 89, 194, 137, 118, 186, 369, 808, 530, 614
146701136, 7750, 6100, -11205, -6755, 1886, 2270, -1333, -513, -431, 89, 194, 137, 118, 186, 369, 808, 530, 614
146706088, 7750, 6100, -11205, -6755, 1886, 2270, -1333, -513, -431, 89, 194, 137, 118, 186, 369, 808, 530, 614
146706924, 7750, 6100, -11205, -6755, 1886, 2270, -1333, -513, -431, 89, 194, 137, 118, 186, 369, 808, 530, 614
146707738, 7750, 6100, -11205, -6755, 1886, 2270, -1333, -513, -431, 89, 194, 137, 118, 186, 369, 808, 530, 614
146708570, 7750, 6100, -11205, -6755, 1886, 2270, -1333, -513, -431, 89, 194, 137, 118, 186, 369, 808, 530, 614
146713678, 7750, 6100, -11205, -6755, 1886, 2270, -1333, -513, -431, 89, 194, 137, 118, 186, 369, 808, 530, 614
146714665, 7758, 6007, -11284, -6697, 1892, 2257, -1255, -222, -261, 173, 194, 137, 118, 186, 369, 808, 530, 614
146715409, 7758, 6007, -11284, -6697, 1892, 2257, -1255, -222, -261, 173, 156, 147, 121, 179, 353, 725, 517, 526
146716238, 7758, 6007, -11284, -6697, 1892, 2257, -1255, -222, -261, 173, 156, 147, 121, 179, 353, 725, 517, 526
146721265, 7758, 6007, -11284, -6697, 1892, 2257, -1255, -222, -261, 173, 156, 147, 121, 179, 353, 725, 517, 526
146722062, 7758, 6007, -11284, -6697, 1892, 2257, -1255, -222, -261, 173, 156, 147, 121, 179, 353, 725, 517, 526
146722888, 7758, 6007, -11284, -6697, 1892, 2257, -1255, -222, -261, 173, 156, 147, 121, 179, 353, 725, 517, 526
146723701, 7758, 6007, -11284, -6697, 1892, 2257, -1255, -222, -261, 173, 156, 147, 121, 179, 353, 725, 517, 526
146728674, 7758, 6007, -11284, -6697, 1892, 2257, -1255, -222, -261, 173, 156, 147, 121, 179, 353, 725, 517, 526
146729436, 7758, 6007, -11284, -6697, 1892, 2257, -1255, -222, -261, 173, 156, 147, 121, 179, 353, 725, 517, 526
146730291, 7758, 6007, -11284, -6697, 1892, 2257, -1255, -222, -261, 173, 156, 147, 121, 179, 353, 725, 517, 526
146731100, 7758, 6007, -11284, -6697, 1892, 2257, -1255, -222, -261, 173, 156, 147, 121, 179, 353, 725, 517, 526
146736149, 7758, 6007, -11284, -6697, 1892, 2257, -1255, -222, -261, 173, 156, 147, 121, 179, 353, 725, 517, 526
146737090, 7771, 5937, -11362, -6611, 1648, 2216, -1072, 38, -129, 308, 156, 147, 121, 179, 353, 725, 517, 526
146737928, 7771, 5937, -11362, -6611, 1648, 2216, -1072, 38, -129, 308, 138, 154, 113, 170, 388, 720, 521, 543
146738716, 7771, 5937, -11362, -6611, 1648, 2216, -1072, 38, -129, 308, 138, 154, 113, 170, 388, 720, 521, 543
146743744, 7771, 5937, -11362, -6611, 1648, 2216, -1072, 38, -129, 308, 138, 154, 113, 170, 388, 720, 521, 543
146744563, 7771, 5937, -11362, -6611, 1648, 2216, -1072, 38, -129, 308, 138, 154, 113, 170, 388, 720, 521, 543
146745372, 7771, 5937, -11362, -6611, 1648, 2216, -1072, 38, -129, 308, 138, 154, 113, 170, 388, 720, 521, 543
146746165, 7771, 5937, -11362, -6611, 1648, 2216, -1072, 38, -129, 308, 138, 154, 113, 170, 388, 720, 521, 543
146751116, 7771, 5937, -11362, -6611, 1648, 2216, -1072, 38, -129, 308, 138, 154, 113, 170, 388, 720, 521, 543
146751940, 7771, 5937, -11362, -6611, 1648, 2216, -1072, 38, -129, 308, 138, 154, 113, 170, 388, 720, 521, 543
146752736, 7771, 5937, -11362, -6611, 1648, 2216, -1072, 38, -129, 308, 138, 154, 113, 170, 388, 720, 521, 543
146753587, 7771, 5937, -11362, -6611, 1648, 2216, -1072, 38, -129, 308, 138, 154, 113, 170, 388, 720, 521, 543
146758662, 7771, 5937, -11362, -6611, 1648, 2216, -1072, 38, -129, 308, 138, 154, 113, 170, 388, 720, 521, 543
146759595, 7786, 5863, -11449, -6509, 1739, 2346, -1126, 106, -121, 396, 138, 154, 113, 170, 388, 720, 521, 543
146760411, 7786, 5863, -11449, -6509, 1739, 2346, -1126, 106, -121, 396, 155, 158, 121, 157, 384, 735, 491, 474
146761228, 7786, 5863, -11449, -6509, 1739, 2346, -1126, 106, -121, 396, 155, 158, 121, 157, 384, 735, 491, 474
146766216, 7786, 5863, -11449, -6509, 1739, 2346, -1126, 106, -121, 396, 155, 158, 121, 157, 384, 735, 491, 474
146767037, 7786, 5863, -11449, -6509, 1739, 2346, -1126, 106, -121, 396, 155, 158, 121, 157, 384, 735, 491, 474
146767840, 7786, 5863, -11449, -6509, 1739, 2346, -1126, 106, -121, 396, 155, 158, 121, 157, 384, 735, 491, 474
146768689, 7786, 5863, -11449, -6509, 1739, 2346, -1126, 106, -121, 396, 155, 158, 121, 157, 384, 735, 491, 474
146773590, 7786, 5863, -11449, -6509, 1739, 2346, -1126, 106, -121, 396, 155, 158, 121, 157, 384, 735, 491, 474
146774412, 7786, 5863, -11449, -6509, 1739, 2346, -1126, 106, -121, 396, 155, 158, 121, 157, 384, 735, 491, 474
146775188, 7786, 5863, -11449, -6509, 1739, 2346, -1126, 106, -121, 396, 155, 158, 121, 157, 384, 735, 491, 474
146776013, 7786, 5863, -11449, -6509, 1739, 2346, -1126, 106, -121, 396, 155, 158, 121, 157, 384, 735, 491, 474
146781156, 7786, 5863, -11449, -6509, 1739, 2346, -1126, 106, -121, 396, 155, 158, 121, 157, 384, 735, 491, 474
146782090, 7815, 5784, -11514, -6430, 1773, 2216, -1131, -78, -64, 321, 155, 158, 121, 157, 384, 735, 491, 474
146782953, 7815, 5784, -11514, -6430, 1773, 2216, -1131, -78, -64, 321, 166, 162, 124, 136, 334, 703, 467, 417
146783753, 7815, 5784, -11514, -6430, 1773, 2216, -1131, -78, -64, 321, 166, 162, 124, 136, 334, 703, 467, 417
146788738, 7815, 5784, -11514, -6430, 1773, 2216, -1131, -78, -64, 321, 166, 162, 124, 136, 334, 703, 467, 417
146789539, 7815, 5784, -11514, -6430, 1773, 2216, -1131, -78, -64, 321, 166, 162, 124, 136, 334, 703, 467, 417
146790366, 7815, 5784, -11514, -6430, 1773, 2216, -1131, -78, -64, 321, 166, 162, 124, 136, 334, 703, 467, 417
146791227, 7815, 5784, -11514, -6430, 1773, 2216, -1131, -78, -64, 321, 166, 162, 124, 136, 334, 703, 467, 417
146796113, 7815, 5784, -11514, -6430, 1773, 2216, -1131, -78, -64, 321, 166, 162, 124, 136, 334, 703, 467, 417
146796982, 7815, 5784, -11514, -6430, 1773, 2216, -1131, -78, -64, 321, 166, 162, 124, 136, 334, 703, 467, 417
146797786, 7815, 5784, -11514, -6430, 1773, 2216, -1131, -78, -64, 321, 166, 162, 124, 136, 334, 703, 467, 417
146798566, 7815, 5784, -11514, -6430, 1773, 2216, -1131, -78, -64, 321, 166, 162, 124, 136, 334, 703, 467, 417
146803693, 7815, 5784, -11514, -6430, 1773, 2216, -1131, -78, -64, 321, 166, 162, 124, 136, 334, 703, 467, 417
146804569, 7842, 5708, -11574, -6357, 1752, 2132, -1232, -159, -31, 295, 166, 162, 124, 136, 334, 703, 467, 417
146805417, 7842, 5708, -11574, -6357, 1752, 2132, -1232, -159, -31, 295, 171, 167, 121, 119, 328, 650, 477, 431
146806235, 7842, 5708, -11574, -6357, 1752, 2132, -1232, -159, -31, 295, 171, 167, 121, 119, 328, 650, 477, 431
146811253, 7842, 5708, -11574, -6357, 1752, 2132, -1232, -159, -31, 295, 171, 167, 121, 119, 328, 650, 477, 431
146812013, 7842, 5708, -11574, -6357, 1752, 2132, -1232, -159, -31, 295, 171, 167, 121, 119, 328, 650, 477, 431
146812851, 7842, 5708, -11574, -6357, 1752, 2132, -1232, -159, -31, 295, 171, 167, 121, 119, 328, 650, 477, 431
146813662, 7842, 5708, -11574, -6357, 1752, 2132, -1232, -159, -31, 295, 171, 167, 121, 119, 328, 650, 477, 431
146818661, 7842, 5708, -11574, -6357, 1752, 2132, -1232, -159, -31, 295, 171, 167, 121, 119, 328, 650, 477, 431
146819364, 7842, 5708, -11574, -6357, 1752, 2132, -1232, -159, -31, 295, 171, 167, 121, 119, 328, 650, 477, 431
146820278, 7842, 5708, -11574, -6357, 1752, 2132, -1232, -159, -31, 295, 171, 167, 121, 119, 328, 650, 477, 431
146821060, 7842, 5708, -11574, -6357, 1752, 2132, -1232, -159, -31, 295, 171, 167, 121, 119, 328, 650, 477, 431
146826143, 7842, 5708, -11574, -6357, 1752, 2132, -1232, -159, -31, 295, 171, 167, 121, 119, 328, 650, 477, 431
146827043, 7847, 5663, -11633, -6283, 1612, 2308, -1225, 12, -38, 250, 171, 167, 121, 119, 328, 650, 477, 431
146827865, 7847, 5663, -11633, -6283, 1612, 2308, -1225, 12, -38, 250, 182, 158, 111, 206, 333, 663, 412, 410
146828690, 7847, 5663, -11633, -6283, 1612, 2308, -1225, 12, -38, 250, 182, 158, 111, 206, 333, 663, 412, 410
146833679, 7847, 5663, -11633, -6283, 1612, 2308, -1225, 12, -38, 250, 182, 158, 111, 206, 333, 663, 412, 410
146834467, 7847, 5663, -11633, -6283, 1612, 2308, -1225, 12, -38, 250, 182, 158, 111, 206, 333, 663, 412, 410
146835288, 7847, 5663, -11633, -6283, 1612, 2308, -1225, 12, -38, 250, 182, 158, 111, 206, 333, 663, 412, 410
146836163, 7847, 5663, -11633, -6283, 1612, 2308, -1225, 12, -38, 250, 182, 158, 111, 206, 333, 663, 412, 410
146841138, 7847, 5663, -11633, -6283, 1612, 2308, -1225, 12, -38, 250, 182, 158, 111, 206, 333, 663, 412, 410
146841989, 7847, 5663, -11633, -6283, 1612, 2308, -1225, 12, -38, 250, 182, 158, 111, 206, 333, 663, 412, 410
146842763, 7847, 5663, -11633, -6283, 1612, 2308, -1225, 12, -38, 250, 182, 158, 111, 206, 333, 663, 412, 410
146843661, 7847, 5663, -11633, -6283, 1612, 2308, -1225, 12, -38, 250, 182, 158, 111, 206, 333, 663, 412, 410
146848663, 7847, 5663, -11633, -6283, 1612, 2308, -1225, 12, -38, 250, 182, 158, 111, 206, 333, 663, 412, 410
146849706, 7845, 5618, -11695, -6209, 1590, 2352, -1198, 64, -68, 275, 182, 158, 111, 206, 333, 663, 412, 410
146850343, 7845, 5618, -11695, -6209, 1590, 2352, -1198, 64, -68, 275, 183, 147, 103, 211, 261, 602, 399, 341
146851236, 7845, 5618, -11695, -6209, 1590, 2352, -1198, 64, -68, 275, 183, 147, 103, 211, 261, 602, 399, 341
146856239, 7845, 5618, -11695, -6209, 1590, 2352, -1198, 64, -68, 275, 183, 147, 103, 211, 261, 602, 399, 341
146857040, 7845, 5618, -11695, -6209, 1590, 2352, -1198, 64, -68, 275, 183, 147, 103, 211, 261, 602, 399, 341
146857864, 7845, 5618, -11695, -6209, 1590, 2352, -1198, 64, -68, 275, 183, 147, 103, 211, 261, 602, 399, 341
146858653, 7845, 5618, -11695, -6209, 1590, 2352, -1198, 64, -68, 275, 183, 147, 103, 211, 261, 602, 399, 341
146863661, 7845, 5618, -11695, -6209, 1590, 2352, -1198, 64, -68, 275, 183, 147, 103, 211, 261, 602, 399, 341
146864481, 7845, 5618, -11695, -6209, 1590, 2352, -1198, 64, -68, 275, 183, 147, 103, 211, 261, 602, 399, 341
146865251, 7845, 5618, -11695, -6209, 1590, 2352, -1198, 64, -68, 275, 183, 147, 103, 211, 261, 602, 399, 341
146866086, 7845, 5618, -11695, -6209, 1590, 2352, -1198, 64, -68, 275, 183, 147, 103, 211, 261, 602, 399, 341
146871139, 7845, 5618, -11695, -6209, 1590, 2352, -1198, 64, -68, 275, 183, 147, 103, 211, 261, 602, 399, 341
146872075, 7855, 5558, -11773, -6103, 1838, 2268, -1246, 139, -60, 363, 183, 147, 103, 211, 261, 602, 399, 341
146872888, 7855, 5558, -11773, -6103, 1838, 2268, -1246, 139, -60, 363, 179, 136, 89, 215, 262, 588, 403, 352
146873728, 7855, 5558, -11773, -6103, 1838, 2268, -1246, 139, -60, 363, 179, 136, 89, 215, 262, 588, 403, 352
146878725, 7855, 5558, -11773, -6103, 1838, 2268, -1246, 139, -60, 363, 179, 136, 89, 215, 262, 588, 403, 352
146879516, 7855, 5558, -11773, -6103, 1838, 2268, -1246, 139, -60, 363, 179, 136, 89, 215, 262, 588, 403, 352
146880442, 7855, 5558, -11773, -6103, 1838, 2268, -1246, 139, -60, 363, 179, 136, 89, 215, 262, 588, 403, 352
