Timestamp, Orientation x, Orientation y, Orientation z, Orientation w, Acceleration x, Acceleration y, Acceleration z, Rotation x, Rotation y, Rotation z, EMG 0, EMG 1, EMG 2, EMG 3, EMG 4, EMG 5, EMG 6, EMG 7
72936633, 9249, -2042, -12712, 4140, 4028, 737, -2179, 24, -2, -12, 0, 0, 0, 0, 0, 0, 0, 0
72937335, 9249, -2038, -12711, 4143, 4014, 736, -2175, 31, -1, -7, 0, 0, 0, 0, 0, 0, 0, 0
72950888, 9248, -2035, -12711, 4147, 4029, 748, -2161, 24, -14, 1, 0, 0, 0, 0, 0, 0, 0, 0
72973373, 9247, -2032, -12711, 4150, 4033, 727, -2160, 21, -13, -2, 0, 0, 0, 0, 0, 0, 0, 0
72988352, 9247, -2029, -12711, 4153, 4036, 715, -2147, 22, -3, -8, 0, 0, 0, 0, 0, 0, 0, 0
73003981, 9247, -2029, -12711, 4153, 4036, 715, -2147, 22, -3, -8, 31, 24, 24, 29, 34, 32, 104, 30
73004788, 9247, -2029, -12711, 4153, 4036, 715, -2147, 22, -3, -8, 31, 24, 24, 29, 34, 32, 104, 30
73010967, 9249, -2025, -12710, 4154, 4023, 731, -2160, 18, 3, -12, 31, 24, 24, 29, 34, 32, 104, 30
73026464, 9249, -2025, -12710, 4154, 4023, 731, -2160, 18, 3, -12, 28, 22, 21, 29, 35, 31, 88, 30
73027316, 9249, -2025, -12710, 4154, 4023, 731, -2160, 18, 3, -12, 28, 22, 21, 29, 35, 31, 88, 30
73033440, 9251, -2023, -12709, 4152, 4028, 741, -2167, 1, 10, -18, 28, 22, 21, 29, 35, 31, 88, 30
73049689, 9251, -2023, -12709, 4152, 4028, 741, -2167, 1, 10, -18, 26, 22, 20, 30, 35, 33, 114, 30
73050503, 9251, -2023, -12709, 4152, 4028, 741, -2167, 1, 10, -18, 26, 22, 20, 30, 35, 33, 114, 30
73051441, 9251, -2023, -12709, 4152, 4012, 740, -2153, 0, 12, -16, 26, 22, 20, 30, 35, 33, 114, 30
73064003, 9251, -2023, -12709, 4152, 4012, 740, -2153, 0, 12, -16, 27, 24, 20, 31, 33, 31, 110, 29
73064763, 9251, -2023, -12709, 4152, 4012, 740, -2153, 0, 12, -16, 27, 24, 20, 31, 33, 31, 110, 29
73070956, 9251, -2023, -12709, 4152, 4023, 747, -2155, 6, 4, 3, 27, 24, 20, 31, 33, 31, 110, 29
73086441, 9251, -2023, -12709, 4152, 4023, 747, -2155, 6, 4, 3, 29, 25, 22, 33, 33, 32, 112, 28
73087291, 9251, -2023, -12709, 4152, 4023, 747, -2155, 6, 4, 3, 29, 25, 22, 33, 33, 32, 112, 28
73093480, 9251, -2021, -12708, 4158, 4005, 729, -2157, 32, -3, 10, 29, 25, 22, 33, 33, 32, 112, 28
73109663, 9251, -2021, -12708, 4158, 4005, 729, -2157, 32, -3, 10, 30, 24, 24, 28, 32, 27, 110, 26
73110496, 9251, -2021, -12708, 4158, 4005, 729, -2157, 32, -3, 10, 30, 24, 24, 28, 32, 27, 110, 26
73111416, 9251, -2019, -12707, 4162, 4027, 723, -2161, 25, -4, 6, 30, 24, 24, 28, 32, 27, 110, 26
73123995, 9251, -2019, -12707, 4162, 4027, 723, -2161, 25, -4, 6, 31, 26, 25, 32, 37, 28, 118, 26
73124815, 9251, -2019, -12707, 4162, 4027, 723, -2161, 25, -4, 6, 31, 26, 25, 32, 37, 28, 118, 26
73131001, 9251, -2019, -12707, 4162, 4003, 712, -2173, 0, 0, -8, 31, 26, 25, 32, 37, 28, 118, 26
73146477, 9251, -2019, -12707, 4162, 4003, 712, -2173, 0, 0, -8, 30, 28, 24, 30, 39, 27, 91, 26
73147280, 9251, -2019, -12707, 4162, 4003, 712, -2173, 0, 0, -8, 30, 28, 24, 30, 39, 27, 91, 26
73153452, 9252, -2019, -12707, 4157, 4020, 718, -2167, -21, 7, -21, 30, 28, 24, 30, 39, 27, 91, 26
73169689, 9252, -2019, -12707, 4157, 4020, 718, -2167, -21, 7, -21, 28, 25, 23, 28, 40, 30, 87, 28
73170533, 9252, -2019, -12707, 4157, 4020, 718, -2167, -21, 7, -21, 28, 25, 23, 28, 40, 30, 87, 28
73171462, 9254, -2019, -12708, 4153, 4034, 720, -2157, -19, 6, -15, 28, 25, 23, 28, 40, 30, 87, 28
73183940, 9254, -2019, -12708, 4153, 4034, 720, -2157, -19, 6, -15, 27, 26, 24, 25, 40, 26, 88, 28
73184775, 9254, -2019, -12708, 4153, 4034, 720, -2157, -19, 6, -15, 27, 26, 24, 25, 40, 26, 88, 28
73190943, 9254, -2019, -12708, 4153, 4033, 732, -2165, -4, 4, -10, 27, 26, 24, 25, 40, 26, 88, 28
73206437, 9254, -2019, -12708, 4153, 4033, 732, -2165, -4, 4, -10, 25, 27, 22, 26, 35, 30, 110, 32
73207292, 9254, -2019, -12708, 4153, 4033, 732, -2165, -4, 4, -10, 25, 27, 22, 26, 35, 30, 110, 32
73213440, 9254, -2019, -12708, 4153, 4017, 733, -2159, 6, 2, -1, 25, 27, 22, 26, 35, 30, 110, 32
73229662, 9254, -2019, -12708, 4153, 4017, 733, -2159, 6, 2, -1, 26, 26, 23, 23, 34, 30, 102, 32
73230506, 9254, -2019, -12708, 4153, 4017, 733, -2159, 6, 2, -1, 26, 26, 23, 23, 34, 30, 102, 32
73231416, 9254, -2019, -12708, 4153, 4029, 729, -2158, -2, 2, 4, 26, 26, 23, 23, 34, 30, 102, 32
73244000, 9254, -2019, -12708, 4153, 4029, 729, -2158, -2, 2, 4, 26, 24, 22, 28, 39, 31, 101, 30
73244789, 9254, -2019, -12708, 4153, 4029, 729, -2158, -2, 2, 4, 26, 24, 22, 28, 39, 31, 101, 30
73250947, 9254, -2019, -12708, 4153, 4049, 736, -2170, -15, 5, 5, 26, 24, 22, 28, 39, 31, 101, 30
73266471, 9254, -2019, -12708, 4153, 4049, 736, -2170, -15, 5, 5, 27, 27, 25, 30, 39, 30, 108, 28
73267289, 9254, -2019, -12708, 4153, 4049, 736, -2170, -15, 5, 5, 27, 27, 25, 30, 39, 30, 108, 28
73273468, 9254, -2019, -12708, 4153, 4023, 734, -2176, -13, 12, -10, 27, 27, 25, 30, 39, 30, 108, 28
73289718, 9254, -2019, -12708, 4153, 4023, 734, -2176, -13, 12, -10, 27, 26, 22, 32, 47, 30, 125, 29
73290492, 9254, -2019, -12708, 4153, 4023, 734, -2176, -13, 12, -10, 27, 26, 22, 32, 47, 30, 125, 29
73291467, 9255, -2020, -12708, 4148, 4021, 730, -2174, -24, 12, -14, 27, 26, 22, 32, 47, 30, 125, 29
73303966, 9255, -2020, -12708, 4148, 4021, 730, -2174, -24, 12, -14, 26, 25, 23, 31, 49, 29, 107, 25
73304761, 9255, -2020, -12708, 4148, 4021, 730, -2174, -24, 12, -14, 26, 25, 23, 31, 49, 29, 107, 25
73310913, 9257, -2020, -12708, 4143, 4008, 743, -2161, -18, 6, -19, 26, 25, 23, 31, 49, 29, 107, 25
73326449, 9257, -2020, -12708, 4143, 4008, 743, -2161, -18, 6, -19, 26, 27, 24, 33, 45, 30, 114, 25
73327263, 9257, -2020, -12708, 4143, 4008, 743, -2161, -18, 6, -19, 26, 27, 24, 33, 45, 30, 114, 25
73333456, 9257, -2018, -12710, 4139, 4019, 732, -2161, -16, -4, -25, 26, 27, 24, 33, 45, 30, 114, 25
73349663, 9257, -2018, -12710, 4139, 4019, 732, -2161, -16, -4, -25, 26, 24, 26, 35, 39, 30, 106, 23
73350507, 9257, -2018, -12710, 4139, 4019, 732, -2161, -16, -4, -25, 26, 24, 26, 35, 39, 30, 106, 23
73351415, 9256, -2017, -12712, 4134, 4025, 740, -2173, -22, -8, -19, 26, 24, 26, 35, 39, 30, 106, 23
73364000, 9256, -2017, -12712, 4134, 4025, 740, -2173, -22, -8, -19, 26, 23, 23, 35, 39, 35, 114, 31
73364813, 9256, -2017, -12712, 4134, 4025, 740, -2173, -22, -8, -19, 26, 23, 23, 35, 39, 35, 114, 31
73371007, 9255, -2016, -12714, 4130, 4020, 738, -2168, -22, -11, -18, 26, 23, 23, 35, 39, 35, 114, 31
73386511, 9255, -2016, -12714, 4130, 4020, 738, -2168, -22, -11, -18, 29, 23, 21, 32, 28, 35, 91, 30
73387285, 9255, -2016, -12714, 4130, 4020, 738, -2168, -22, -11, -18, 29, 23, 21, 32, 28, 35, 91, 30
73393457, 9254, -2016, -12717, 4125, 4030, 735, -2164, -25, -13, -16, 29, 23, 21, 32, 28, 35, 91, 30
73409691, 9254, -2016, -12717, 4125, 4030, 735, -2164, -25, -13, -16, 29, 25, 23, 34, 32, 34, 104, 31
73410452, 9254, -2016, -12717, 4125, 4030, 735, -2164, -25, -13, -16, 29, 25, 23, 34, 32, 34, 104, 31
73411392, 9252, -2017, -12720, 4121, 4034, 733, -2152, -25, -13, -11, 29, 25, 23, 34, 32, 34, 104, 31
73423976, 9252, -2017, -12720, 4121, 4034, 733, -2152, -25, -13, -11, 29, 24, 23, 33, 32, 37, 98, 31
73424764, 9252, -2017, -12720, 4121, 4034, 733, -2152, -25, -13, -11, 29, 24, 23, 33, 32, 37, 98, 31
73430929, 9251, -2018, -12721, 4118, 4040, 739, -2154, -19, -8, -4, 29, 24, 23, 33, 32, 37, 98, 31
73446438, 9251, -2018, -12721, 4118, 4040, 739, -2154, -19, -8, -4, 29, 25, 23, 27, 32, 37, 98, 34
73447291, 9251, -2018, -12721, 4118, 4040, 739, -2154, -19, -8, -4, 29, 25, 23, 27, 32, 37, 98, 34
73453415, 9251, -2018, -12721, 4118, 4056, 733, -2160, -14, -7, 0, 29, 25, 23, 27, 32, 37, 98, 34
73469663, 9251, -2018, -12721, 4118, 4056, 733, -2160, -14, -7, 0, 29, 23, 24, 27, 37, 31, 79, 29
73470507, 9251, -2018, -12721, 4118, 4056, 733, -2160, -14, -7, 0, 29, 23, 24, 27, 37, 31, 79, 29
73471416, 9251, -2018, -12721, 4118, 4040, 720, -2158, -5, -1, -1, 29, 23, 24, 27, 37, 31, 79, 29
73484002, 9251, -2018, -12721, 4118, 4040, 720, -2158, -5, -1, -1, 26, 23, 26, 29, 38, 33, 81, 30
73484837, 9251, -2018, -12721, 4118, 4040, 720, -2158, -5, -1, -1, 26, 23, 26, 29, 38, 33, 81, 30
73490989, 9251, -2018, -12721, 4118, 4036, 734, -2162, -12, 6, -1, 26, 23, 26, 29, 38, 33, 81, 30
73506504, 9251, -2018, -12721, 4118, 4036, 734, -2162, -12, 6, -1, 26, 20, 25, 28, 36, 33, 70, 31
73507311, 9251, -2018, -12721, 4118, 4036, 734, -2162, -12, 6, -1, 26, 20, 25, 28, 36, 33, 70, 31
73513482, 9251, -2019, -12722, 4115, 4013, 736, -2153, -20, 1, -5, 26, 20, 25, 28, 36, 33, 70, 31
73529676, 9251, -2019, -12722, 4115, 4013, 736, -2153, -20, 1, -5, 27, 22, 23, 28, 43, 29, 77, 32
73530469, 9251, -2019, -12722, 4115, 4013, 736, -2153, -20, 1, -5, 27, 22, 23, 28, 43, 29, 77, 32
73531403, 9251, -2019, -12722, 4115, 4031, 740, -2153, -16, -4, -2, 27, 22, 23, 28, 43, 29, 77, 32
73543979, 9251, -2019, -12722, 4115, 4031, 740, -2153, -16, -4, -2, 27, 23, 21, 28, 42, 28, 78, 29
73544784, 9251, -2019, -12722, 4115, 4031, 740, -2153, -16, -4, -2, 27, 23, 21, 28, 42, 28, 78, 29
73550927, 9251, -2019, -12722, 4115, 4017, 734, -2170, -3, -8, -6, 27, 23, 21, 28, 42, 28, 78, 29
73566451, 9251, -2019, -12722, 4115, 4017, 734, -2170, -3, -8, -6, 25, 23, 22, 26, 38, 31, 101, 28
73567303, 9251, -2019, -12722, 4115, 4017, 734, -2170, -3, -8, -6, 25, 23, 22, 26, 38, 31, 101, 28
73573415, 9251, -2019, -12722, 4115, 4021, 743, -2171, -3, -12, 2, 25, 23, 22, 26, 38, 31, 101, 28
73589707, 9251, -2019, -12722, 4115, 4021, 743, -2171, -3, -12, 2, 25, 24, 22, 23, 42, 30, 102, 26
73590467, 9251, -2019, -12722, 4115, 4021, 743, -2171, -3, -12, 2, 25, 24, 22, 23, 42, 30, 102, 26
73591414, 9248, -2020, -12725, 4113, 4024, 733, -2155, -18, -18, -1, 25, 24, 22, 23, 42, 30, 102, 26
73603264, 9248, -2020, -12725, 4113, 4024, 733, -2155, -18, -18, -1, 25, 24, 21, 24, 43, 30, 96, 25
73611514, 9248, -2020, -12725, 4113, 4024, 733, -2155, -18, -18, -1, 25, 24, 21, 24, 43, 30, 96, 25
73612441, 9246, -2022, -12727, 4109, 4048, 739, -2161, -25, -12, -4, 25, 24, 21, 24, 43, 30, 96, 25
73626489, 9246, -2022, -12727, 4109, 4048, 739, -2161, -25, -12, -4, 26, 21, 24, 22, 38, 34, 102, 25
73627326, 9246, -2022, -12727, 4109, 4048, 739, -2161, -25, -12, -4, 26, 21, 24, 22, 38, 34, 102, 25
73633433, 9247, -2022, -12727, 4106, 4044, 725, -2161, -19, 6, -9, 26, 21, 24, 22, 38, 34, 102, 25
73649668, 9247, -2022, -12727, 4106, 4044, 725, -2161, -19, 6, -9, 27, 22, 25, 24, 39, 36, 115, 26
73650483, 9247, -2022, -12727, 4106, 4044, 725, -2161, -19, 6, -9, 27, 22, 25, 24, 39, 36, 115, 26
73651412, 9247, -2022, -12727, 4106, 4021, 724, -2163, -5, 12, 0, 27, 22, 25, 24, 39, 36, 115, 26
73663335, 9247, -2022, -12727, 4106, 4021, 724, -2163, -5, 12, 0, 27, 22, 25, 26, 37, 36, 103, 26
73671464, 9247, -2022, -12727, 4106, 4021, 724, -2163, -5, 12, 0, 27, 22, 25, 26, 37, 36, 103, 26
73672429, 9247, -2022, -12727, 4106, 4023, 744, -2165, -7, 3, 13, 27, 22, 25, 26, 37, 36, 103, 26
73686483, 9247, -2022, -12727, 4106, 4023, 744, -2165, -7, 3, 13, 30, 23, 25, 25, 32, 36, 102, 26
73687266, 9247, -2022, -12727, 4106, 4023, 744, -2165, -7, 3, 13, 30, 23, 25, 25, 32, 36, 102, 26
73693412, 9247, -2025, -12726, 4108, 4029, 735, -2171, 4, 4, 19, 30, 23, 25, 25, 32, 36, 102, 26
73709690, 9247, -2025, -12726, 4108, 4029, 735, -2171, 4, 4, 19, 29, 25, 24, 25, 35, 37, 106, 25
73710462, 9247, -2025, -12726, 4108, 4029, 735, -2171, 4, 4, 19, 29, 25, 24, 25, 35, 37, 106, 25
73711445, 9247, -2025, -12726, 4108, 4024, 748, -2165, 8, 7, 14, 29, 25, 24, 25, 35, 37, 106, 25
73732140, 9247, -2025, -12726, 4108, 4024, 748, -2165, 8, 7, 14, 27, 26, 21, 26, 35, 34, 93, 25
73732941, 9247, -2025, -12726, 4108, 4024, 748, -2165, 8, 7, 14, 27, 26, 21, 26, 35, 34, 93, 25
73733893, 9247, -2025, -12726, 4108, 4022, 737, -2167, -13, 3, 5, 27, 26, 21, 26, 35, 34, 93, 25
73746465, 9247, -2025, -12726, 4108, 4022, 737, -2167, -13, 3, 5, 29, 25, 20, 33, 39, 33, 104, 26
73747290, 9247, -2025, -12726, 4108, 4022, 737, -2167, -13, 3, 5, 29, 25, 20, 33, 39, 33, 104, 26
73753435, 9247, -2025, -12726, 4108, 4024, 719, -2166, -11, 6, -2, 29, 25, 20, 33, 39, 33, 104, 26
73769661, 9247, -2025, -12726, 4108, 4024, 719, -2166, -11, 6, -2, 31, 25, 22, 30, 45, 34, 117, 31
73770517, 9247, -2025, -12726, 4108, 4024, 719, -2166, -11, 6, -2, 31, 25, 22, 30, 45, 34, 117, 31
73771416, 9247, -2025, -12726, 4108, 4010, 718, -2169, 8, 9, -6, 31, 25, 22, 30, 45, 34, 117, 31
73792151, 9247, -2025, -12726, 4108, 4010, 718, -2169, 8, 9, -6, 29, 24, 21, 32, 44, 34, 115, 32
73792964, 9247, -2025, -12726, 4108, 4010, 718, -2169, 8, 9, -6, 29, 24, 21, 32, 44, 34, 115, 32
73793914, 9247, -2025, -12726, 4108, 4039, 758, -2151, 5, -1, -1, 29, 24, 21, 32, 44, 34, 115, 32
73806467, 9247, -2025, -12726, 4108, 4039, 758, -2151, 5, -1, -1, 29, 21, 21, 31, 40, 36, 115, 34
73807278, 9247, -2025, -12726, 4108, 4039, 758, -2151, 5, -1, -1, 29, 21, 21, 31, 40, 36, 115, 34
73813416, 9247, -2025, -12726, 4108, 4047, 745, -2154, 8, -1, -3, 29, 21, 21, 31, 40, 36, 115, 34
73829697, 9247, -2025, -12726, 4108, 4047, 745, -2154, 8, -1, -3, 30, 25, 24, 30, 43, 36, 115, 34
73830464, 9247, -2025, -12726, 4108, 4047, 745, -2154, 8, -1, -3, 30, 25, 24, 30, 43, 36, 115, 34
73831377, 9247, -2025, -12726, 4108, 4035, 739, -2170, 7, 11, -4, 30, 25, 24, 30, 43, 36, 115, 34
73852138, 9247, -2025, -12726, 4108, 4035, 739, -2170, 7, 11, -4, 26, 23, 26, 21, 43, 38, 88, 32
73853003, 9247, -2025, -12726, 4108, 4035, 739, -2170, 7, 11, -4, 26, 23, 26, 21, 43, 38, 88, 32
73853993, 9247, -2025, -12726, 4108, 4026, 742, -2163, 3, 14, -4, 26, 23, 26, 21, 43, 38, 88, 32
73866421, 9247, -2025, -12726, 4108, 4026, 742, -2163, 3, 14, -4, 25, 26, 25, 23, 39, 35, 70, 29
73867280, 9247, -2025, -12726, 4108, 4026, 742, -2163, 3, 14, -4, 25, 26, 25, 23, 39, 35, 70, 29
73873392, 9247, -2025, -12726, 4108, 4014, 740, -2184, 2, 8, -6, 25, 26, 25, 23, 39, 35, 70, 29
73889675, 9247, -2025, -12726, 4108, 4014, 740, -2184, 2, 8, -6, 25, 26, 25, 25, 39, 37, 85, 30
73890446, 9247, -2025, -12726, 4108, 4014, 740, -2184, 2, 8, -6, 25, 26, 25, 25, 39, 37, 85, 30
73891383, 9247, -2025, -12726, 4108, 3994, 733, -2171, 13, -1, -3, 25, 26, 25, 25, 39, 37, 85, 30
73912199, 9247, -2025, -12726, 4108, 3994, 733, -2171, 13, -1, -3, 25, 27, 27, 24, 45, 32, 80, 30
73913010, 9247, -2025, -12726, 4108, 3994, 733, -2171, 13, -1, -3, 25, 27, 27, 24, 45, 32, 80, 30
73913927, 9244, -2023, -12728, 4109, 4025, 750, -2149, 9, -22, -4, 25, 27, 27, 24, 45, 32, 80, 30
73934663, 9244, -2023, -12728, 4109, 4025, 750, -2149, 9, -22, -4, 24, 23, 23, 24, 40, 32, 109, 32
73935456, 9244, -2023, -12728, 4109, 4025, 750, -2149, 9, -22, -4, 24, 23, 23, 24, 40, 32, 109, 32
73936410, 9242, -2017, -12730, 4111, 4047, 740, -2139, 20, -24, -17, 24, 23, 23, 24, 40, 32, 109, 32
73948974, 9242, -2017, -12730, 4111, 4047, 740, -2139, 20, -24, -17, 25, 25, 23, 27, 36, 30, 126, 34
73949788, 9242, -2017, -12730, 4111, 4047, 740, -2139, 20, -24, -17, 25, 25, 23, 27, 36, 30, 126, 34
73955975, 9241, -2011, -12732, 4111, 4022, 717, -2156, 16, -18, -31, 25, 25, 23, 27, 36, 30, 126, 34
73972125, 9241, -2011, -12732, 4111, 4022, 717, -2156, 16, -18, -31, 27, 23, 24, 28, 37, 34, 125, 34
73972955, 9241, -2011, -12732, 4111, 4022, 717, -2156, 16, -18, -31, 27, 23, 24, 28, 37, 34, 125, 34
73973866, 9239, -2007, -12735, 4108, 4026, 739, -2163, -9, -21, -23, 27, 23, 24, 28, 37, 34, 125, 34
73994664, 9239, -2007, -12735, 4108, 4026, 739, -2163, -9, -21, -23, 29, 24, 25, 24, 39, 32, 125, 35
73995474, 9239, -2007, -12735, 4108, 4026, 739, -2163, -9, -21, -23, 29, 24, 25, 24, 39, 32, 125, 35
73996400, 9236, -2008, -12738, 4104, 4056, 751, -2161, -26, -17, -6, 29, 24, 25, 24, 39, 32, 125, 35
74008918, 9236, -2008, -12738, 4104, 4056, 751, -2161, -26, -17, -6, 33, 24, 25, 26, 31, 36, 142, 82
74009730, 9236, -2008, -12738, 4104, 4056, 751, -2161, -26, -17, -6, 33, 24, 25, 26, 31, 36, 142, 82
74015937, 9231, -2011, -12742, 4100, 4037, 807, -2160, -35, -29, 6, 33, 24, 25, 26, 31, 36, 142, 82
74032137, 9231, -2011, -12742, 4100, 4037, 807, -2160, -35, -29, 6, 41, 28, 25, 26, 33, 36, 127, 95
74032980, 9231, -2011, -12742, 4100, 4037, 807, -2160, -35, -29, 6, 41, 28, 25, 26, 33, 36, 127, 95
74033913, 9224, -2024, -12750, 4087, 4013, 828, -2198, -114, -34, 15, 41, 28, 25, 26, 33, 36, 127, 95
74054663, 9224, -2024, -12750, 4087, 4013, 828, -2198, -114, -34, 15, 45, 36, 26, 27, 36, 41, 149, 107
74055493, 9224, -2024, -12750, 4087, 4013, 828, -2198, -114, -34, 15, 45, 36, 26, 27, 36, 41, 149, 107
74056415, 9213, -2046, -12764, 4057, 4002, 869, -2210, -230, -39, 8, 45, 36, 26, 27, 36, 41, 149, 107
74068965, 9213, -2046, -12764, 4057, 4002, 869, -2210, -230, -39, 8, 45, 37, 25, 27, 33, 42, 154, 108
74069737, 9213, -2046, -12764, 4057, 4002, 869, -2210, -230, -39, 8, 45, 37, 25, 27, 33, 42, 154, 108
74075918, 9201, -2079, -12782, 4011, 4017, 878, -2284, -336, -32, 3, 45, 37, 25, 27, 33, 42, 154, 108
74092153, 9201, -2079, -12782, 4011, 4017, 878, -2284, -336, -32, 3, 46, 39, 27, 30, 32, 45, 162, 113
74092930, 9201, -2079, -12782, 4011, 4017, 878, -2284, -336, -32, 3, 46, 39, 27, 30, 32, 45, 162, 113
74093917, 9177, -2103, -12811, 3959, 3957, 850, -2405, -361, -128, -48, 46, 39, 27, 30, 32, 45, 162, 113
74114658, 9177, -2103, -12811, 3959, 3957, 850, -2405, -361, -128, -48, 65, 56, 40, 31, 34, 43, 181, 135
74115431, 9177, -2103, -12811, 3959, 3957, 850, -2405, -361, -128, -48, 65, 56, 40, 31, 34, 43, 181, 135
74116366, 9134, -2083, -12871, 3875, 3959, 901, -2468, -417, -340, -334, 65, 56, 40, 31, 34, 43, 181, 135
74128296, 9134, -2083, -12871, 3875, 3959, 901, -2468, -417, -340, -334, 108, 90, 58, 34, 37, 45, 182, 158
74136462, 9134, -2083, -12871, 3875, 3959, 901, -2468, -417, -340, -334, 108, 90, 58, 34, 37, 45, 182, 158
74137382, 9059, -2063, -12978, 3698, 3929, 1102, -2455, -907, -568, -619, 108, 90, 58, 34, 37, 45, 182, 158
74152168, 9059, -2063, -12978, 3698, 3929, 1102, -2455, -907, -568, -619, 140, 103, 72, 38, 42, 60, 153, 177
74152953, 9059, -2063, -12978, 3698, 3929, 1102, -2455, -907, -568, -619, 140, 103, 72, 38, 42, 60, 153, 177
74153883, 8955, -2074, -13127, 3410, 4074, 1127, -2588, -1576, -706, -814, 140, 103, 72, 38, 42, 60, 153, 177
74174704, 8955, -2074, -13127, 3410, 4074, 1127, -2588, -1576, -706, -814, 153, 118, 82, 39, 44, 61, 195, 180
74175486, 8955, -2074, -13127, 3410, 4074, 1127, -2588, -1576, -706, -814, 153, 118, 82, 39, 44, 61, 195, 180
74176390, 8849, -2024, -13286, 3086, 4162, 988, -2696, -1560, -786, -1205, 153, 118, 82, 39, 44, 61, 195, 180
74197188, 8849, -2024, -13286, 3086, 4162, 988, -2696, -1560, -786, -1205, 172, 133, 104, 41, 43, 89, 195, 181
74198007, 8849, -2024, -13286, 3086, 4162, 988, -2696, -1560, -786, -1205, 172, 133, 104, 41, 43, 89, 195, 181
74198918, 8745, -1859, -13442, 2795, 4023, 1119, -2705, -1060, -918, -1629, 172, 133, 104, 41, 43, 89, 195, 181
74212155, 8745, -1859, -13442, 2795, 4023, 1119, -2705, -1060, -918, -1629, 227, 159, 115, 45, 42, 93, 193, 167
74212985, 8745, -1859, -13442, 2795, 4023, 1119, -2705, -1060, -918, -1629, 227, 159, 115, 45, 42, 93, 193, 167
74213932, 8643, -1597, -13593, 2532, 3939, 1348, -2794, -634, -1003, -1985, 227, 159, 115, 45, 42, 93, 193, 167
74234685, 8643, -1597, -13593, 2532, 3939, 1348, -2794, -634, -1003, -1985, 231, 231, 124, 44, 39, 98, 195, 149
74235441, 8643, -1597, -13593, 2532, 3939, 1348, -2794, -634, -1003, -1985, 231, 231, 124, 44, 39, 98, 195, 149
74236366, 8536, -1255, -13738, 2296, 3868, 1669, -2743, -270, -1097, -2275, 231, 231, 124, 44, 39, 98, 195, 149
74257146, 8536, -1255, -13738, 2296, 3868, 1669, -2743, -270, -1097, -2275, 227, 281, 119, 39, 30, 94, 204, 135
74257964, 8536, -1255, -13738, 2296, 3868, 1669, -2743, -270, -1097, -2275, 227, 281, 119, 39, 30, 94, 204, 135
74258891, 8413, -850, -13884, 2043, 3771, 1834, -2639, -174, -1214, -2606, 227, 281, 119, 39, 30, 94, 204, 135
74272136, 8413, -850, -13884, 2043, 3771, 1834, -2639, -174, -1214, -2606, 221, 302, 118, 40, 40, 92, 160, 141
74272937, 8413, -850, -13884, 2043, 3771, 1834, -2639, -174, -1214, -2606, 221, 302, 118, 40, 40, 92, 160, 141
74273917, 8275, -400, -14026, 1755, 3726, 1970, -2550, -215, -1293, -2908, 221, 302, 118, 40, 40, 92, 160, 141
74294601, 8275, -400, -14026, 1755, 3726, 1970, -2550, -215, -1293, -2908, 217, 299, 109, 44, 41, 66, 155, 163
74295413, 8275, -400, -14026, 1755, 3726, 1970, -2550, -215, -1293, -2908, 217, 299, 109, 44, 41, 66, 155, 163
74296407, 8127, 111, -14150, 1463, 3623, 2082, -2527, -49, -1325, -3207, 217, 299, 109, 44, 41, 66, 155, 163
74317160, 8127, 111, -14150, 1463, 3623, 2082, -2527, -49, -1325, -3207, 158, 295, 104, 44, 39, 61, 140, 185
74317965, 8127, 111, -14150, 1463, 3623, 2082, -2527, -49, -1325, -3207, 158, 295, 104, 44, 39, 61, 140, 185
74318890, 7971, 668, -14252, 1154, 3483, 2214, -2551, 9, -1327, -3467, 158, 295, 104, 44, 39, 61, 140, 185
74332141, 7971, 668, -14252, 1154, 3483, 2214, -2551, 9, -1327, -3467, 144, 245, 116, 45, 41, 66, 207, 187
74332938, 7971, 668, -14252, 1154, 3483, 2214, -2551, 9, -1327, -3467, 144, 245, 116, 45, 41, 66, 207, 187
74333905, 7796, 1258, -14332, 823, 3336, 2276, -2532, 0, -1380, -3690, 144, 245, 116, 45, 41, 66, 207, 187
74354663, 7796, 1258, -14332, 823, 3336, 2276, -2532, 0, -1380, -3690, 128, 188, 127, 45, 42, 62, 226, 181
74355494, 7796, 1258, -14332, 823, 3336, 2276, -2532, 0, -1380, -3690, 128, 188, 127, 45, 42, 62, 226, 181
74356415, 7620, 1876, -14375, 474, 3204, 2417, -2511, 4, -1305, -3893, 128, 188, 127, 45, 42, 62, 226, 181
74377149, 7620, 1876, -14375, 474, 3204, 2417, -2511, 4, -1305, -3893, 127, 147, 125, 45, 33, 68, 247, 216
74377938, 7620, 1876, -14375, 474, 3204, 2417, -2511, 4, -1305, -3893, 127, 147, 125, 45, 33, 68, 247, 216
74378867, 7428, 2511, -14385, 138, 3004, 2502, -2627, 121, -1287, -3955, 127, 147, 125, 45, 33, 68, 247, 216
74391473, 7428, 2511, -14385, 138, 3004, 2502, -2627, 121, -1287, -3955, 112, 142, 120, 38, 35, 66, 259, 206
74392278, 7428, 2511, -14385, 138, 3004, 2502, -2627, 121, -1287, -3955, 112, 142, 120, 38, 35, 66, 259, 206
74398437, 7210, 3165, -14366, -204, 2720, 2420, -2792, 299, -1290, -3906, 112, 142, 120, 38, 35, 66, 259, 206
74414676, 7210, 3165, -14366, -204, 2720, 2420, -2792, 299, -1290, -3906, 102, 116, 113, 35, 36, 73, 263, 176
74415394, 7210, 3165, -14366, -204, 2720, 2420, -2792, 299, -1290, -3906, 102, 116, 113, 35, 36, 73, 263, 176
74416366, 6968, 3804, -14324, -497, 2428, 2409, -2902, 506, -1286, -3764, 102, 116, 113, 35, 36, 73, 263, 176
74437181, 6968, 3804, -14324, -497, 2428, 2409, -2902, 506, -1286, -3764, 70, 88, 80, 41, 35, 61, 214, 169
74437945, 6968, 3804, -14324, -497, 2428, 2409, -2902, 506, -1286, -3764, 70, 88, 80, 41, 35, 61, 214, 169
74438890, 6709, 4392, -14268, -752, 2186, 2565, -2892, 591, -1296, -3450, 70, 88, 80, 41, 35, 61, 214, 169
74451437, 6709, 4392, -14268, -752, 2186, 2565, -2892, 591, -1296, -3450, 56, 58, 60, 39, 40, 61, 192, 173
74452214, 6709, 4392, -14268, -752, 2186, 2565, -2892, 591, -1296, -3450, 56, 58, 60, 39, 40, 61, 192, 173
74458375, 6428, 4917, -14212, -975, 2183, 2651, -2907, 637, -1399, -3097, 56, 58, 60, 39, 40, 61, 192, 173
74474653, 6428, 4917, -14212, -975, 2183, 2651, -2907, 637, -1399, -3097, 47, 42, 58, 38, 41, 77, 173, 125
74475435, 6428, 4917, -14212, -975, 2183, 2651, -2907, 637, -1399, -3097, 47, 42, 58, 38, 41, 77, 173, 125
74476357, 6148, 5369, -14156, -1188, 2315, 2608, -2933, 508, -1429, -2751, 47, 42, 58, 38, 41, 77, 173, 125
74497146, 6148, 5369, -14156, -1188, 2315, 2608, -2933, 508, -1429, -2751, 34, 45, 49, 38, 42, 77, 157, 112
74497975, 6148, 5369, -14156, -1188, 2315, 2608, -2933, 508, -1429, -2751, 34, 45, 49, 38, 42, 77, 157, 112
74498890, 5885, 5756, -14099, -1371, 2321, 2626, -3026, 485, -1338, -2395, 34, 45, 49, 38, 42, 77, 157, 112
74511426, 5885, 5756, -14099, -1371, 2321, 2626, -3026, 485, -1338, -2395, 32, 42, 42, 38, 49, 76, 146, 104
74512259, 5885, 5756, -14099, -1371, 2321, 2626, -3026, 485, -1338, -2395, 32, 42, 42, 38, 49, 76, 146, 104
74518400, 5640, 6079, -14047, -1536, 2356, 2727, -3042, 417, -1269, -2044, 32, 42, 42, 38, 49, 76, 146, 104
74534661, 5640, 6079, -14047, -1536, 2356, 2727, -3042, 417, -1269, -2044, 35, 41, 42, 31, 49, 93, 143, 97
74535448, 5640, 6079, -14047, -1536, 2356, 2727, -3042, 417, -1269, -2044, 35, 41, 42, 31, 49, 93, 143, 97
74536366, 5437, 6332, -13998, -1686, 2380, 2671, -3026, 258, -1111, -1674, 35, 41, 42, 31, 49, 93, 143, 97
74557111, 5437, 6332, -13998, -1686, 2380, 2671, -3026, 258, -1111, -1674, 38, 42, 36, 46, 47, 114, 140, 84
74557914, 5437, 6332, -13998, -1686, 2380, 2671, -3026, 258, -1111, -1674, 38, 42, 36, 46, 47, 114, 140, 84
74558832, 5305, 6515, -13943, -1860, 2304, 2573, -2982, 109, -1026, -1305, 38, 42, 36, 46, 47, 114, 140, 84
74571429, 5305, 6515, -13943, -1860, 2304, 2573, -2982, 109, -1026, -1305, 43, 42, 34, 53, 46, 103, 132, 89
74572260, 5305, 6515, -13943, -1860, 2304, 2573, -2982, 109, -1026, -1305, 43, 42, 34, 53, 46, 103, 132, 89
74578431, 5201, 6630, -13911, -1983, 2372, 2495, -3011, 129, -923, -902, 43, 42, 34, 53, 46, 103, 132, 89
74594697, 5201, 6630, -13911, -1983, 2372, 2495, -3011, 129, -923, -902, 43, 32, 31, 52, 41, 108, 121, 83
74595441, 5201, 6630, -13911, -1983, 2372, 2495, -3011, 129, -923, -902, 43, 32, 31, 52, 41, 108, 121, 83
74596432, 5140, 6680, -13900, -2045, 2473, 2413, -2924, 205, -747, -483, 43, 32, 31, 52, 41, 108, 121, 83
74617132, 5140, 6680, -13900, -2045, 2473, 2413, -2924, 205, -747, -483, 48, 31, 31, 52, 43, 146, 129, 97
74617931, 5140, 6680, -13900, -2045, 2473, 2413, -2924, 205, -747, -483, 48, 31, 31, 52, 43, 146, 129, 97
74618866, 5128, 6647, -13920, -2049, 2635, 2304, -2730, 256, -609, 53, 48, 31, 31, 52, 43, 146, 129, 97
74631424, 5128, 6647, -13920, -2049, 2635, 2304, -2730, 256, -609, 53, 48, 32, 34, 59, 73, 138, 136, 108
74632307, 5128, 6647, -13920, -2049, 2635, 2304, -2730, 256, -609, 53, 48, 32, 34, 59, 73, 138, 136, 108
74638419, 5151, 6530, -13973, -2005, 2846, 2119, -2552, 254, -574, 556, 48, 32, 34, 59, 73, 138, 136, 108
74654667, 5151, 6530, -13973, -2005, 2846, 2119, -2552, 254, -574, 556, 48, 32, 35, 50, 73, 125, 145, 109
74655463, 5151, 6530, -13973, -2005, 2846, 2119, -2552, 254, -574, 556, 48, 32, 35, 50, 73, 125, 145, 109
74656395, 5183, 6370, -14051, -1886, 2974, 1912, -2563, 469, -471, 911, 48, 32, 35, 50, 73, 125, 145, 109
74677127, 5183, 6370, -14051, -1886, 2974, 1912, -2563, 469, -471, 911, 45, 32, 42, 52, 74, 127, 148, 95
74677937, 5183, 6370, -14051, -1886, 2974, 1912, -2563, 469, -471, 911, 45, 32, 42, 52, 74, 127, 148, 95
74678864, 5202, 6189, -14151, -1683, 2951, 1673, -2633, 796, -350, 1205, 45, 32, 42, 52, 74, 127, 148, 95
74691438, 5202, 6189, -14151, -1683, 2951, 1673, -2633, 796, -350, 1205, 48, 33, 43, 52, 76, 140, 172, 104
74692305, 5202, 6189, -14151, -1683, 2951, 1673, -2633, 796, -350, 1205, 48, 33, 43, 52, 76, 140, 172, 104
74698416, 5218, 6005, -14245, -1492, 2783, 1668, -2698, 765, -273, 1275, 48, 33, 43, 52, 76, 140, 172, 104
74714630, 5218, 6005, -14245, -1492, 2783, 1668, -2698, 765, -273, 1275, 48, 40, 109, 55, 76, 114, 181, 120
74715415, 5218, 6005, -14245, -1492, 2783, 1668, -2698, 765, -273, 1275, 48, 40, 109, 55, 76, 114, 181, 120
74716395, 5252, 5803, -14327, -1389, 2640, 1807, -2668, 350, -276, 1302, 48, 40, 109, 55, 76, 114, 181, 120
74737154, 5252, 5803, -14327, -1389, 2640, 1807, -2668, 350, -276, 1302, 59, 47, 124, 56, 95, 270, 213, 123
74737949, 5252, 5803, -14327, -1389, 2640, 1807, -2668, 350, -276, 1302, 59, 47, 124, 56, 95, 270, 213, 123
74738890, 5328, 5569, -14396, -1341, 2877, 1446, -2470, -174, -310, 1231, 59, 47, 124, 56, 95, 270, 213, 123
74751429, 5328, 5569, -14396, -1341, 2877, 1446, -2470, -174, -310, 1231, 59, 54, 163, 77, 138, 305, 244, 125
74752213, 5328, 5569, -14396, -1341, 2877, 1446, -2470, -174, -310, 1231, 59, 54, 163, 77, 138, 305, 244, 125
74758407, 5431, 5331, -14450, -1312, 3045, 1024, -2497, -514, -217, 1072, 59, 54, 163, 77, 138, 305, 244, 125
74774670, 5431, 5331, -14450, -1312, 3045, 1024, -2497, -514, -217, 1072, 60, 54, 175, 72, 148, 319, 249, 124
74775452, 5431, 5331, -14450, -1312, 3045, 1024, -2497, -514, -217, 1072, 60, 54, 175, 72, 148, 319, 249, 124
74776369, 5512, 5139, -14495, -1247, 2856, 804, -2722, -345, -39, 880, 60, 54, 175, 72, 148, 319, 249, 124
74797185, 5512, 5139, -14495, -1247, 2856, 804, -2722, -345, -39, 880, 55, 53, 178, 72, 148, 331, 277, 129
74797992, 5512, 5139, -14495, -1247, 2856, 804, -2722, -345, -39, 880, 55, 53, 178, 72, 148, 331, 277, 129
74798891, 5561, 5030, -14519, -1188, 2618, 1149, -2804, -27, 12, 577, 55, 53, 178, 72, 148, 331, 277, 129
74811456, 5561, 5030, -14519, -1188, 2618, 1149, -2804, -27, 12, 577, 51, 50, 149, 78, 152, 330, 292, 125
74812241, 5561, 5030, -14519, -1188, 2618, 1149, -2804, -27, 12, 577, 51, 50, 149, 78, 152, 330, 292, 125
74818365, 5602, 4989, -14516, -1210, 2479, 1610, -2879, -127, 12, 208, 51, 50, 149, 78, 152, 330, 292, 125
74834693, 5602, 4989, -14516, -1210, 2479, 1610, -2879, -127, 12, 208, 48, 45, 139, 73, 131, 249, 277, 113
74835482, 5602, 4989, -14516, -1210, 2479, 1610, -2879, -127, 12, 208, 48, 45, 139, 73, 131, 249, 277, 113
74836394, 5642, 4983, -14497, -1265, 2423, 1701, -2899, -205, 29, -25, 48, 45, 139, 73, 131, 249, 277, 113
74857089, 5642, 4983, -14497, -1265, 2423, 1701, -2899, -205, 29, -25, 55, 43, 90, 50, 85, 229, 363, 120
74857905, 5642, 4983, -14497, -1265, 2423, 1701, -2899, -205, 29, -25, 55, 43, 90, 50, 85, 229, 363, 120
74858816, 5675, 5000, -14474, -1322, 2398, 1817, -2866, -117, 17, -123, 55, 43, 90, 50, 85, 229, 363, 120
74871407, 5675, 5000, -14474, -1322, 2398, 1817, -2866, -117, 17, -123, 58, 44, 66, 53, 86, 223, 465, 139
74872227, 5675, 5000, -14474, -1322, 2398, 1817, -2866, -117, 17, -123, 58, 44, 66, 53, 86, 223, 465, 139
74878388, 5713, 5023, -14447, -1368, 2367, 1964, -2802, -11, 70, -89, 58, 44, 66, 53, 86, 223, 465, 139
74894700, 5713, 5023, -14447, -1368, 2367, 1964, -2802, -11, 70, -89, 63, 52, 65, 65, 145, 276, 478, 135
74895465, 5713, 5023, -14447, -1368, 2367, 1964, -2802, -11, 70, -89, 63, 52, 65, 65, 145, 276, 478, 135
74896391, 5752, 5047, -14421, -1386, 2271, 2078, -2831, 161, 181, 12, 63, 52, 65, 65, 145, 276, 478, 135
74917097, 5752, 5047, -14421, -1386, 2271, 2078, -2831, 161, 181, 12, 66, 54, 70, 58, 149, 284, 480, 120
74917925, 5752, 5047, -14421, -1386, 2271, 2078, -2831, 161, 181, 12, 66, 54, 70, 58, 149, 284, 480, 120
74918866, 5782, 5076, -14397, -1407, 2265, 2195, -2970, 185, 181, 20, 66, 54, 70, 58, 149, 284, 480, 120
74931467, 5782, 5076, -14397, -1407, 2265, 2195, -2970, 185, 181, 20, 59, 55, 65, 57, 149, 283, 489, 117
74932238, 5782, 5076, -14397, -1407, 2265, 2195, -2970, 185, 181, 20, 59, 55, 65, 57, 149, 283, 489, 117
74938417, 5831, 5080, -14370, -1463, 2288, 2217, -2944, -73, 196, 73, 59, 55, 65, 57, 149, 283, 489, 117
74954588, 5831, 5080, -14370, -1463, 2288, 2217, -2944, -73, 196, 73, 59, 53, 63, 57, 150, 262, 409, 112
74955413, 5831, 5080, -14370, -1463, 2288, 2217, -2944, -73, 196, 73, 59, 53, 63, 57, 150, 262, 409, 112
74956340, 5869, 5085, -14347, -1520, 2221, 2169, -2980, -110, 187, 53, 59, 53, 63, 57, 150, 262, 409, 112
74977129, 5869, 5085, -14347, -1520, 2221, 2169, -2980, -110, 187, 53, 64, 60, 59, 53, 139, 258, 287, 100
74977964, 5869, 5085, -14347, -1520, 2221, 2169, -2980, -110, 187, 53, 64, 60, 59, 53, 139, 258, 287, 100
74978865, 5899, 5092, -14326, -1574, 2283, 2102, -2938, -103, 113, 10, 64, 60, 59, 53, 139, 258, 287, 100
74991412, 5899, 5092, -14326, -1574, 2283, 2102, -2938, -103, 113, 10, 78, 76, 58, 40, 107, 224, 226, 135
74992214, 5899, 5092, -14326, -1574, 2283, 2102, -2938, -103, 113, 10, 78, 76, 58, 40, 107, 224, 226, 135
74998441, 5940, 5103, -14300, -1623, 2352, 2069, -2906, -117, 154, -39, 78, 76, 58, 40, 107, 224, 226, 135
75014612, 5940, 5103, -14300, -1623, 2352, 2069, -2906, -117, 154, -39, 92, 80, 63, 70, 149, 330, 317, 143
75015414, 5940, 5103, -14300, -1623, 2352, 2069, -2906, -117, 154, -39, 92, 80, 63, 70, 149, 330, 317, 143
75016352, 5983, 5128, -14269, -1653, 2440, 1853, -2891, -102, 191, -169, 92, 80, 63, 70, 149, 330, 317, 143
75037114, 5983, 5128, -14269, -1653, 2440, 1853, -2891, -102, 191, -169, 105, 100, 75, 76, 175, 315, 413, 162
75037953, 5983, 5128, -14269, -1653, 2440, 1853, -2891, -102, 191, -169, 105, 100, 75, 76, 175, 315, 413, 162
75038865, 6042, 5170, -14226, -1684, 2562, 1763, -2912, -169, 267, -334, 105, 100, 75, 76, 175, 315, 413, 162
75050766, 6042, 5170, -14226, -1684, 2562, 1763, -2912, -169, 267, -334, 106, 116, 87, 153, 187, 334, 450, 163
75058966, 6042, 5170, -14226, -1684, 2562, 1763, -2912, -169, 267, -334, 106, 116, 87, 153, 187, 334, 450, 163
75059903, 6111, 5236, -14164, -1745, 2519, 1916, -2865, -246, 329, -494, 106, 116, 87, 153, 187, 334, 450, 163
75074662, 6111, 5236, -14164, -1745, 2519, 1916, -2865, -246, 329, -494, 109, 147, 89, 160, 188, 332, 464, 172
75075438, 6111, 5236, -14164, -1745, 2519, 1916, -2865, -246, 329, -494, 109, 147, 89, 160, 188, 332, 464, 172
75076365, 6179, 5329, -14087, -1850, 2448, 1975, -2833, -412, 321, -737, 109, 147, 89, 160, 188, 332, 464, 172
75097077, 6179, 5329, -14087, -1850, 2448, 1975, -2833, -412, 321, -737, 113, 170, 97, 168, 195, 324, 470, 153
75097894, 6179, 5329, -14087, -1850, 2448, 1975, -2833, -412, 321, -737, 113, 170, 97, 168, 195, 324, 470, 153
75098842, 6248, 5434, -13998, -1986, 2491, 1876, -2704, -598, 256, -948, 113, 170, 97, 168, 195, 324, 470, 153
75110745, 6248, 5434, -13998, -1986, 2491, 1876, -2704, -598, 256, -948, 133, 183, 135, 189, 173, 222, 404, 169
75118916, 6248, 5434, -13998, -1986, 2491, 1876, -2704, -598, 256, -948, 133, 183, 135, 189, 173, 222, 404, 169
75119843, 6335, 5556, -13886, -2146, 2585, 1842, -2676, -782, 322, -1189, 133, 183, 135, 189, 173, 222, 404, 169
75134692, 6335, 5556, -13886, -2146, 2585, 1842, -2676, -782, 322, -1189, 136, 228, 153, 262, 160, 239, 303, 165
75135409, 6335, 5556, -13886, -2146, 2585, 1842, -2676, -782, 322, -1189, 136, 228, 153, 262, 160, 239, 303, 165
75136382, 6424, 5705, -13757, -2316, 2492, 1742, -2668, -874, 410, -1423, 136, 228, 153, 262, 160, 239, 303, 165
75157137, 6424, 5705, -13757, -2316, 2492, 1742, -2668, -874, 410, -1423, 167, 246, 164, 248, 200, 301, 323, 188
75157922, 6424, 5705, -13757, -2316, 2492, 1742, -2668, -874, 410, -1423, 167, 246, 164, 248, 200, 301, 323, 188
75158841, 6479, 5897, -13629, -2436, 2399, 1702, -2622, -527, 403, -1565, 167, 246, 164, 248, 200, 301, 323, 188
75179694, 6479, 5897, -13629, -2436, 2399, 1702, -2622, -527, 403, -1565, 218, 243, 171, 291, 225, 314, 435, 191
75180463, 6479, 5897, -13629, -2436, 2399, 1702, -2622, -527, 403, -1565, 218, 243, 171, 291, 225, 314, 435, 191
75181393, 6498, 6143, -13482, -2592, 2475, 2082, -2522, -353, 273, -1807, 218, 243, 171, 291, 225, 314, 435, 191
75194707, 6498, 6143, -13482, -2592, 2475, 2082, -2522, -353, 273, -1807, 228, 247, 168, 297, 216, 297, 666, 183
75195445, 6498, 6143, -13482, -2592, 2475, 2082, -2522, -353, 273, -1807, 228, 247, 168, 297, 216, 297, 666, 183
75196364, 6517, 6390, -13319, -2780, 2392, 2597, -2598, -487, 252, -1888, 228, 247, 168, 297, 216, 297, 666, 183
75217071, 6517, 6390, -13319, -2780, 2392, 2597, -2598, -487, 252, -1888, 216, 244, 147, 281, 209, 297, 806, 173
75217926, 6517, 6390, -13319, -2780, 2392, 2597, -2598, -487, 252, -1888, 216, 244, 147, 281, 209, 297, 806, 173
75218856, 6534, 6639, -13147, -2970, 1989, 2352, -2733, -545, 299, -1926, 216, 244, 147, 281, 209, 297, 806, 173
75239674, 6534, 6639, -13147, -2970, 1989, 2352, -2733, -545, 299, -1926, 224, 208, 128, 237, 216, 299, 919, 247
75240417, 6534, 6639, -13147, -2970, 1989, 2352, -2733, -545, 299, -1926, 224, 208, 128, 237, 216, 299, 919, 247
75241407, 6516, 6889, -12990, -3129, 1660, 2272, -2660, -313, 195, -1851, 224, 208, 128, 237, 216, 299, 919, 247
75254590, 6516, 6889, -12990, -3129, 1660, 2272, -2660, -313, 195, -1851, 204, 186, 115, 230, 175, 227, 1016, 247
75255405, 6516, 6889, -12990, -3129, 1660, 2272, -2660, -313, 195, -1851, 204, 186, 115, 230, 175, 227, 1016, 247
75256317, 6480, 7117, -12853, -3255, 1686, 2182, -2651, -171, 112, -1668, 204, 186, 115, 230, 175, 227, 1016, 247
75277061, 6480, 7117, -12853, -3255, 1686, 2182, -2651, -171, 112, -1668, 159, 246, 154, 306, 200, 259, 1008, 252
75277877, 6480, 7117, -12853, -3255, 1686, 2182, -2651, -171, 112, -1668, 159, 246, 154, 306, 200, 259, 1008, 252
75278805, 6426, 7324, -12741, -3341, 1653, 2387, -2740, -125, 127, -1478, 159, 246, 154, 306, 200, 259, 1008, 252
75299630, 6426, 7324, -12741, -3341, 1653, 2387, -2740, -125, 127, -1478, 161, 277, 154, 337, 223, 289, 1052, 261
75300489, 6426, 7324, -12741, -3341, 1653, 2387, -2740, -125, 127, -1478, 161, 277, 154, 337, 223, 289, 1052, 261
75301347, 6389, 7497, -12626, -3464, 1563, 2546, -2715, -363, 74, -1370, 161, 277, 154, 337, 223, 289, 1052, 261
75313938, 6373, 7630, -12523, -3575, 1628, 2351, -2658, -518, 67, -1219, 161, 277, 154, 337, 223, 289, 1052, 261
75314803, 6373, 7630, -12523, -3575, 1628, 2351, -2658, -518, 67, -1219, 167, 299, 142, 341, 225, 294, 1032, 273
75320754, 6373, 7630, -12523, -3575, 1628, 2351, -2658, -518, 67, -1219, 167, 299, 142, 341, 225, 294, 1032, 273
75337089, 6349, 7760, -12435, -3643, 1596, 2203, -2673, -367, 101, -1127, 167, 299, 142, 341, 225, 294, 1032, 273
75337939, 6349, 7760, -12435, -3643, 1596, 2203, -2673, -367, 101, -1127, 153, 298, 140, 335, 208, 294, 949, 212
75338714, 6349, 7760, -12435, -3643, 1596, 2203, -2673, -367, 101, -1127, 153, 298, 140, 335, 208, 294, 949, 212
75350765, 6298, 7888, -12375, -3662, 1420, 2094, -2713, -106, 102, -943, 153, 298, 140, 335, 208, 294, 949, 212
75358924, 6298, 7888, -12375, -3662, 1420, 2094, -2713, -106, 102, -943, 158, 304, 143, 363, 230, 289, 834, 250
75359744, 6298, 7888, -12375, -3662, 1420, 2094, -2713, -106, 102, -943, 158, 304, 143, 363, 230, 289, 834, 250
75373942, 6251, 7999, -12335, -3635, 1364, 2211, -2630, 140, 159, -674, 158, 304, 143, 363, 230, 289, 834, 250
75374714, 6251, 7999, -12335, -3635, 1364, 2211, -2630, 140, 159, -674, 154, 270, 92, 268, 188, 296, 807, 241
75380803, 6251, 7999, -12335, -3635, 1364, 2211, -2630, 140, 159, -674, 154, 270, 92, 268, 188, 296, 807, 241
75397141, 6240, 8079, -12294, -3617, 1410, 2480, -2597, 47, 221, -491, 154, 270, 92, 268, 188, 296, 807, 241
75397925, 6240, 8079, -12294, -3617, 1410, 2480, -2597, 47, 221, -491, 140, 227, 91, 241, 160, 280, 563, 243
75398715, 6240, 8079, -12294, -3617, 1410, 2480, -2597, 47, 221, -491, 140, 227, 91, 241, 160, 280, 563, 243
75410806, 6263, 8109, -12258, -3634, 1404, 2428, -2533, -293, 186, -315, 140, 227, 91, 241, 160, 280, 563, 243
75418890, 6263, 8109, -12258, -3634, 1404, 2428, -2533, -293, 186, -315, 139, 246, 96, 234, 149, 261, 487, 245
75419755, 6263, 8109, -12258, -3634, 1404, 2428, -2533, -293, 186, -315, 139, 246, 96, 234, 149, 261, 487, 245
75433971, 6291, 8123, -12227, -3658, 1520, 2171, -2489, -446, 108, -345, 139, 246, 96, 234, 149, 261, 487, 245
75434763, 6291, 8123, -12227, -3658, 1520, 2171, -2489, -446, 108, -345, 132, 248, 103, 236, 156, 249, 472, 257
75440766, 6291, 8123, -12227, -3658, 1520, 2171, -2489, -446, 108, -345, 132, 248, 103, 236, 156, 249, 472, 257
75457091, 6299, 8150, -12210, -3640, 1580, 2053, -2587, -248, 131, -336, 132, 248, 103, 236, 156, 249, 472, 257
75457925, 6299, 8150, -12210, -3640, 1580, 2053, -2587, -248, 131, -336, 141, 271, 119, 179, 110, 247, 485, 202
75458713, 6299, 8150, -12210, -3640, 1580, 2053, -2587, -248, 131, -336, 141, 271, 119, 179, 110, 247, 485, 202
75470806, 6279, 8177, -12211, -3610, 1408, 2163, -2719, -106, 81, -207, 141, 271, 119, 179, 110, 247, 485, 202
75478918, 6279, 8177, -12211, -3610, 1408, 2163, -2719, -106, 81, -207, 162, 270, 117, 165, 104, 182, 468, 211
75479784, 6279, 8177, -12211, -3610, 1408, 2163, -2719, -106, 81, -207, 162, 270, 117, 165, 104, 182, 468, 211
75493915, 6287, 8175, -12217, -3579, 1398, 2337, -2760, -189, 172, 11, 162, 270, 117, 165, 104, 182, 468, 211
75494749, 6287, 8175, -12217, -3579, 1398, 2337, -2760, -189, 172, 11, 209, 300, 158, 131, 93, 142, 454, 267
75500785, 6287, 8175, -12217, -3579, 1398, 2337, -2760, -189, 172, 11, 209, 300, 158, 131, 93, 142, 454, 267
75517116, 6330, 8142, -12213, -3594, 1450, 2508, -2689, -480, 157, 73, 209, 300, 158, 131, 93, 142, 454, 267
75517978, 6330, 8142, -12213, -3594, 1450, 2508, -2689, -480, 157, 73, 206, 337, 171, 132, 108, 159, 344, 257
75518764, 6330, 8142, -12213, -3594, 1450, 2508, -2689, -480, 157, 73, 206, 337, 171, 132, 108, 159, 344, 257
75530797, 6353, 8099, -12231, -3591, 1533, 2276, -2749, -448, 48, 116, 206, 337, 171, 132, 108, 159, 344, 257
75538896, 6353, 8099, -12231, -3591, 1533, 2276, -2749, -448, 48, 116, 241, 345, 169, 102, 97, 147, 306, 258
75539728, 6353, 8099, -12231, -3591, 1533, 2276, -2749, -448, 48, 116, 241, 345, 169, 102, 97, 147, 306, 258
75553947, 6380, 8043, -12262, -3560, 1324, 2235, -2759, -371, 183, 355, 241, 345, 169, 102, 97, 147, 306, 258
75554800, 6380, 8043, -12262, -3560, 1324, 2235, -2759, -371, 183, 355, 252, 350, 169, 133, 98, 144, 242, 279
75560738, 6380, 8043, -12262, -3560, 1324, 2235, -2759, -371, 183, 355, 252, 350, 169, 133, 98, 144, 242, 279
75577105, 6402, 7970, -12307, -3532, 869, 2453, -2762, -312, 275, 689, 252, 350, 169, 133, 98, 144, 242, 279
75577925, 6402, 7970, -12307, -3532, 869, 2453, -2762, -312, 275, 689, 292, 429, 188, 149, 92, 145, 194, 276
75578778, 6402, 7970, -12307, -3532, 869, 2453, -2762, -312, 275, 689, 292, 429, 188, 149, 92, 145, 194, 276
75590771, 6469, 7833, -12368, -3501, 1404, 2546, -2577, -439, 163, 901, 292, 429, 188, 149, 92, 145, 194, 276
75598862, 6469, 7833, -12368, -3501, 1404, 2546, -2577, -439, 163, 901, 318, 535, 184, 161, 84, 165, 318, 225
75599731, 6469, 7833, -12368, -3501, 1404, 2546, -2577, -439, 163, 901, 318, 535, 184, 161, 84, 165, 318, 225
75613916, 6549, 7711, -12408, -3480, 1480, 2457, -2568, -539, 251, 743, 318, 535, 184, 161, 84, 165, 318, 225
75614761, 6549, 7711, -12408, -3480, 1480, 2457, -2568, -539, 251, 743, 338, 586, 180, 164, 71, 145, 398, 224
75620716, 6549, 7711, -12408, -3480, 1480, 2457, -2568, -539, 251, 743, 338, 586, 180, 164, 71, 145, 398, 224
75637115, 6600, 7625, -12441, -3459, 1141, 2154, -2561, -490, 312, 616, 338, 586, 180, 164, 71, 145, 398, 224
75637980, 6600, 7625, -12441, -3459, 1141, 2154, -2561, -490, 312, 616, 328, 607, 190, 170, 68, 157, 483, 247
75638763, 6600, 7625, -12441, -3459, 1141, 2154, -2561, -490, 312, 616, 328, 607, 190, 170, 68, 157, 483, 247
75650764, 6610, 7548, -12491, -3427, 1036, 2230, -2611, -284, 198, 666, 328, 607, 190, 170, 68, 157, 483, 247
75658887, 6610, 7548, -12491, -3427, 1036, 2230, -2611, -284, 198, 666, 363, 832, 185, 152, 72, 156, 484, 248
75659740, 6610, 7548, -12491, -3427, 1036, 2230, -2611, -284, 198, 666, 363, 832, 185, 152, 72, 156, 484, 248
75673291, 6623, 7474, -12540, -3385, 1220, 2274, -2577, -209, 184, 632, 363, 832, 185, 152, 72, 156, 484, 248
75681414, 6623, 7474, -12540, -3385, 1220, 2274, -2577, -209, 184, 632, 341, 804, 200, 147, 77, 163, 490, 279
75682236, 6623, 7474, -12540, -3385, 1220, 2274, -2577, -209, 184, 632, 341, 804, 200, 147, 77, 163, 490, 279
75697115, 6618, 7418, -12582, -3364, 1034, 2241, -2622, -238, 164, 538, 341, 804, 200, 147, 77, 163, 490, 279
75697941, 6618, 7418, -12582, -3364, 1034, 2241, -2622, -238, 164, 538, 320, 792, 195, 144, 123, 189, 485, 304
75698714, 6618, 7418, -12582, -3364, 1034, 2241, -2622, -238, 164, 538, 320, 792, 195, 144, 123, 189, 485, 304
75710793, 6599, 7350, -12635, -3350, 1080, 2208, -2617, -241, 38, 567, 320, 792, 195, 144, 123, 189, 485, 304
75718863, 6599, 7350, -12635, -3350, 1080, 2208, -2617, -241, 38, 567, 330, 818, 219, 262, 133, 188, 432, 340
75719686, 6599, 7350, -12635, -3350, 1080, 2208, -2617, -241, 38, 567, 330, 818, 219, 262, 133, 188, 432, 340
75733915, 6578, 7300, -12675, -3352, 1151, 2262, -2552, -238, 3, 410, 330, 818, 219, 262, 133, 188, 432, 340
75734751, 6578, 7300, -12675, -3352, 1151, 2262, -2552, -238, 3, 410, 435, 805, 215, 701, 136, 201, 336, 318
75740713, 6578, 7300, -12675, -3352, 1151, 2262, -2552, -238, 3, 410, 435, 805, 215, 701, 136, 201, 336, 318
75757141, 6528, 7272, -12715, -3357, 1025, 2127, -2602, -185, -61, 283, 435, 805, 215, 701, 136, 201, 336, 318
75757967, 6528, 7272, -12715, -3357, 1025, 2127, -2602, -185, -61, 283, 453, 698, 213, 959, 151, 233, 380, 366
75758786, 6528, 7272, -12715, -3357, 1025, 2127, -2602, -185, -61, 283, 453, 698, 213, 959, 151, 233, 380, 366
75770751, 6454, 7254, -12763, -3358, 1004, 2094, -2615, -69, -160, 239, 453, 698, 213, 959, 151, 233, 380, 366
75778894, 6454, 7254, -12763, -3358, 1004, 2094, -2615, -69, -160, 239, 596, 761, 188, 991, 196, 235, 391, 356
75779691, 6454, 7254, -12763, -3358, 1004, 2094, -2615, -69, -160, 239, 596, 761, 188, 991, 196, 235, 391, 356
75793943, 6373, 7240, -12813, -3354, 1063, 2153, -2593, 16, -215, 222, 596, 761, 188, 991, 196, 235, 391, 356
75794773, 6373, 7240, -12813, -3354, 1063, 2153, -2593, 16, -215, 222, 621, 761, 190, 1167, 217, 243, 313, 356
75800763, 6373, 7240, -12813, -3354, 1063, 2153, -2593, 16, -215, 222, 621, 761, 190, 1167, 217, 243, 313, 356
75817106, 6323, 7204, -12854, -3365, 1174, 2186, -2568, -152, -172, 259, 621, 761, 190, 1167, 217, 243, 313, 356
75817912, 6323, 7204, -12854, -3365, 1174, 2186, -2568, -152, -172, 259, 636, 836, 166, 1287, 228, 255, 311, 327
75818780, 6323, 7204, -12854, -3365, 1174, 2186, -2568, -152, -172, 259, 636, 836, 166, 1287, 228, 255, 311, 327
75830784, 6289, 7169, -12886, -3383, 1354, 2262, -2477, -167, -191, 192, 636, 836, 166, 1287, 228, 255, 311, 327
75838885, 6289, 7169, -12886, -3383, 1354, 2262, -2477, -167, -191, 192, 599, 868, 180, 1200, 230, 249, 304, 327
75839717, 6289, 7169, -12886, -3383, 1354, 2262, -2477, -167, -191, 192, 599, 868, 180, 1200, 230, 249, 304, 327
75853922, 6262, 7137, -12911, -3408, 1467, 2306, -2446, -187, -204, 115, 599, 868, 180, 1200, 230, 249, 304, 327
75854741, 6262, 7137, -12911, -3408, 1467, 2306, -2446, -187, -204, 115, 586, 781, 216, 1012, 219, 228, 239, 255
75860715, 6262, 7137, -12911, -3408, 1467, 2306, -2446, -187, -204, 115, 586, 781, 216, 1012, 219, 228, 239, 255
75877065, 6223, 7115, -12935, -3431, 1556, 2318, -2426, -113, -280, 27, 586, 781, 216, 1012, 219, 228, 239, 255
75877929, 6223, 7115, -12935, -3431, 1556, 2318, -2426, -113, -280, 27, 426, 725, 227, 979, 176, 236, 223, 234
75878711, 6223, 7115, -12935, -3431, 1556, 2318, -2426, -113, -280, 27, 426, 725, 227, 979, 176, 236, 223, 234
75890758, 6172, 7103, -12961, -3451, 1583, 2320, -2417, -38, -342, -37, 426, 725, 227, 979, 176, 236, 223, 234
75898951, 6172, 7103, -12961, -3451, 1583, 2320, -2417, -38, -342, -37, 368, 652, 213, 760, 115, 209, 201, 183
75899743, 6172, 7103, -12961, -3451, 1583, 2320, -2417, -38, -342, -37, 368, 652, 213, 760, 115, 209, 201, 183
75913962, 6115, 7092, -12990, -3465, 1684, 2377, -2388, 52, -408, -54, 368, 652, 213, 760, 115, 209, 201, 183
75914791, 6115, 7092, -12990, -3465, 1684, 2377, -2388, 52, -408, -54, 388, 458, 207, 484, 72, 219, 161, 162
75920739, 6115, 7092, -12990, -3465, 1684, 2377, -2388, 52, -408, -54, 388, 458, 207, 484, 72, 219, 161, 162
75937133, 6084, 7070, -13011, -3487, 1829, 2480, -2407, -55, -365, -44, 388, 458, 207, 484, 72, 219, 161, 162
75937935, 6084, 7070, -13011, -3487, 1829, 2480, -2407, -55, -365, -44, 419, 587, 211, 180, 71, 245, 163, 193
75938750, 6084, 7070, -13011, -3487, 1829, 2480, -2407, -55, -365, -44, 419, 587, 211, 180, 71, 245, 163, 193
75950775, 6068, 7041, -13027, -3513, 1853, 2408, -2422, -156, -311, -45, 419, 587, 211, 180, 71, 245, 163, 193
75958864, 6068, 7041, -13027, -3513, 1853, 2408, -2422, -156, -311, -45, 553, 782, 193, 141, 74, 272, 187, 204
75959728, 6068, 7041, -13027, -3513, 1853, 2408, -2422, -156, -311, -45, 553, 782, 193, 141, 74, 272, 187, 204
75973915, 6050, 7008, -13050, -3526, 1854, 2373, -2419, -105, -310, 4, 553, 782, 193, 141, 74, 272, 187, 204
75974779, 6050, 7008, -13050, -3526, 1854, 2373, -2419, -105, -310, 4, 559, 818, 180, 146, 95, 279, 176, 208
75980730, 6050, 7008, -13050, -3526, 1854, 2373, -2419, -105, -310, 4, 559, 818, 180, 146, 95, 279, 176, 208
75997114, 6022, 6969, -13084, -3525, 1827, 2325, -2461, -39, -339, 74, 559, 818, 180, 146, 95, 279, 176, 208
75997913, 6022, 6969, -13084, -3525, 1827, 2325, -2461, -39, -339, 74, 577, 837, 175, 150, 92, 268, 170, 215
75998715, 6022, 6969, -13084, -3525, 1827, 2325, -2461, -39, -339, 74, 577, 837, 175, 150, 92, 268, 170, 215
76010746, 6001, 6921, -13123, -3507, 1841, 2325, -2456, 11, -292, 176, 577, 837, 175, 150, 92, 268, 170, 215
76018880, 6001, 6921, -13123, -3507, 1841, 2325, -2456, 11, -292, 176, 658, 890, 182, 149, 98, 267, 176, 225
76019708, 6001, 6921, -13123, -3507, 1841, 2325, -2456, 11, -292, 176, 658, 890, 182, 149, 98, 267, 176, 225
76033933, 6012, 6861, -13154, -3491, 1825, 2313, -2447, -101, -140, 254, 658, 890, 182, 149, 98, 267, 176, 225
76034760, 6012, 6861, -13154, -3491, 1825, 2313, -2447, -101, -140, 254, 646, 813, 168, 131, 95, 230, 186, 196
76040735, 6012, 6861, -13154, -3491, 1825, 2313, -2447, -101, -140, 254, 646, 813, 168, 131, 95, 230, 186, 196
76057117, 6022, 6812, -13183, -3460, 1754, 2248, -2437, -24, -61, 258, 646, 813, 168, 131, 95, 230, 186, 196
76057913, 6022, 6812, -13183, -3460, 1754, 2248, -2437, -24, -61, 258, 511, 614, 142, 120, 93, 190, 193, 170
76058766, 6022, 6812, -13183, -3460, 1754, 2248, -2437, -24, -61, 258, 511, 614, 142, 120, 93, 190, 193, 170
76070779, 6032, 6762, -13215, -3420, 1712, 2249, -2409, 36, -37, 307, 511, 614, 142, 120, 93, 190, 193, 170
76078865, 6032, 6762, -13215, -3420, 1712, 2249, -2409, 36, -37, 307, 524, 594, 159, 121, 80, 202, 199, 174
76079714, 6032, 6762, -13215, -3420, 1712, 2249, -2409, 36, -37, 307, 524, 594, 159, 121, 80, 202, 199, 174
76093275, 6048, 6708, -13245, -3380, 1742, 2318, -2370, 57, -21, 345, 524, 594, 159, 121, 80, 202, 199, 174
76101390, 6048, 6708, -13245, -3380, 1742, 2318, -2370, 57, -21, 345, 528, 634, 166, 109, 80, 219, 208, 175
76102188, 6048, 6708, -13245, -3380, 1742, 2318, -2370, 57, -21, 345, 528, 634, 166, 109, 80, 219, 208, 175
76117077, 6079, 6645, -13271, -3349, 1750, 2373, -2351, -14, 29, 405, 528, 634, 166, 109, 80, 219, 208, 175
76117873, 6079, 6645, -13271, -3349, 1750, 2373, -2351, -14, 29, 405, 498, 667, 233, 137, 71, 211, 228, 217
76118690, 6079, 6645, -13271, -3349, 1750, 2373, -2351, -14, 29, 405, 498, 667, 233, 137, 71, 211, 228, 217
