Timestamp, Orientation x, Orientation y, Orientation z, Orientation w, Acceleration x, Acceleration y, Acceleration z, Rotation x, Rotation y, Rotation z, EMG 0, EMG 1, EMG 2, EMG 3, EMG 4, EMG 5, EMG 6, EMG 7
344059742, 6622, 12295, -8567, -63, 1554, 2260, -2520, 4, 23, -7, 0, 0, 0, 0, 0, 0, 0, 0
344067201, 6621, 12295, -8568, -62, 1544, 2247, -2513, 7, 6, 1, 0, 0, 0, 0, 0, 0, 0, 0
344089736, 6621, 12295, -8568, -62, 1541, 2246, -2498, 10, -8, -4, 0, 0, 0, 0, 0, 0, 0, 0
344104722, 6620, 12296, -8568, -62, 1546, 2246, -2522, 14, -12, 11, 0, 0, 0, 0, 0, 0, 0, 0
344128565, 6620, 12294, -8571, -61, 1569, 2267, -2522, -5, -8, 16, 0, 0, 0, 0, 0, 0, 0, 0
344129364, 6620, 12294, -8571, -61, 1569, 2267, -2522, -5, -8, 16, 40, 40, 65, 41, 52, 92, 68, 56
344130193, 6620, 12294, -8571, -61, 1569, 2267, -2522, -5, -8, 16, 40, 40, 65, 41, 52, 92, 68, 56
344151041, 6619, 12291, -8577, -62, 1548, 2252, -2547, -28, -12, 23, 40, 40, 65, 41, 52, 92, 68, 56
344151821, 6619, 12291, -8577, -62, 1548, 2252, -2547, -28, -12, 23, 40, 35, 79, 36, 53, 74, 62, 60
344152676, 6619, 12291, -8577, -62, 1548, 2252, -2547, -28, -12, 23, 40, 35, 79, 36, 53, 74, 62, 60
344164710, 6620, 12285, -8583, -60, 1547, 2216, -2520, -36, 3, 35, 40, 35, 79, 36, 53, 74, 62, 60
344172787, 6620, 12285, -8583, -60, 1547, 2216, -2520, -36, 3, 35, 38, 37, 85, 35, 53, 70, 69, 54
344173705, 6620, 12285, -8583, -60, 1547, 2216, -2520, -36, 3, 35, 38, 37, 85, 35, 53, 70, 69, 54
344188538, 6621, 12281, -8588, -60, 1532, 2261, -2533, -24, 6, 42, 38, 37, 85, 35, 53, 70, 69, 54
344189325, 6621, 12281, -8588, -60, 1532, 2261, -2533, -24, 6, 42, 39, 39, 81, 35, 44, 79, 77, 51
344190113, 6621, 12281, -8588, -60, 1532, 2261, -2533, -24, 6, 42, 39, 39, 81, 35, 44, 79, 77, 51
344211046, 6624, 12277, -8592, -61, 1548, 2274, -2516, -28, 3, 33, 39, 39, 81, 35, 44, 79, 77, 51
344211846, 6624, 12277, -8592, -61, 1548, 2274, -2516, -28, 3, 33, 35, 42, 84, 35, 44, 75, 71, 49
344212663, 6624, 12277, -8592, -61, 1548, 2274, -2516, -28, 3, 33, 35, 42, 84, 35, 44, 75, 71, 49
344224721, 6628, 12273, -8595, -63, 1547, 2275, -2507, -32, 2, 22, 35, 42, 84, 35, 44, 75, 71, 49
344232800, 6628, 12273, -8595, -63, 1547, 2275, -2507, -32, 2, 22, 35, 39, 76, 33, 47, 82, 76, 48
344233663, 6628, 12273, -8595, -63, 1547, 2275, -2507, -32, 2, 22, 35, 39, 76, 33, 47, 82, 76, 48
344248544, 6626, 12270, -8600, -63, 1538, 2253, -2513, -8, -8, 31, 35, 39, 76, 33, 47, 82, 76, 48
344249319, 6626, 12270, -8600, -63, 1538, 2253, -2513, -8, -8, 31, 37, 44, 67, 36, 55, 82, 79, 43
344250179, 6626, 12270, -8600, -63, 1538, 2253, -2513, -8, -8, 31, 37, 44, 67, 36, 55, 82, 79, 43
344271051, 6623, 12268, -8606, -61, 1553, 2291, -2536, 12, -7, 43, 37, 44, 67, 36, 55, 82, 79, 43
344271846, 6623, 12268, -8606, -61, 1553, 2291, -2536, 12, -7, 43, 36, 43, 63, 37, 55, 81, 220, 46
344272663, 6623, 12268, -8606, -61, 1553, 2291, -2536, 12, -7, 43, 36, 43, 63, 37, 55, 81, 220, 46
344284716, 6623, 12265, -8610, -60, 1548, 2274, -2532, -9, 3, 35, 36, 43, 63, 37, 55, 81, 220, 46
344292813, 6623, 12265, -8610, -60, 1548, 2274, -2532, -9, 3, 35, 35, 40, 65, 36, 56, 68, 278, 46
344293703, 6623, 12265, -8610, -60, 1548, 2274, -2532, -9, 3, 35, 35, 40, 65, 36, 56, 68, 278, 46
344308545, 6625, 12260, -8616, -59, 1556, 2255, -2525, -31, 3, 40, 35, 40, 65, 36, 56, 68, 278, 46
344309326, 6625, 12260, -8616, -59, 1556, 2255, -2525, -31, 3, 40, 40, 38, 64, 35, 55, 71, 300, 47
344310174, 6625, 12260, -8616, -59, 1556, 2255, -2525, -31, 3, 40, 40, 38, 64, 35, 55, 71, 300, 47
344330991, 6624, 12256, -8622, -52, 1570, 2223, -2516, -4, 18, 41, 40, 38, 64, 35, 55, 71, 300, 47
344331780, 6624, 12256, -8622, -52, 1570, 2223, -2516, -4, 18, 41, 40, 39, 66, 35, 43, 64, 301, 42
344332638, 6624, 12256, -8622, -52, 1570, 2223, -2516, -4, 18, 41, 40, 39, 66, 35, 43, 64, 301, 42
344344680, 6620, 12255, -8627, -39, 1576, 2223, -2523, 34, 27, 42, 40, 39, 66, 35, 43, 64, 301, 42
344352813, 6620, 12255, -8627, -39, 1576, 2223, -2523, 34, 27, 42, 39, 35, 56, 31, 28, 55, 306, 39
344353665, 6620, 12255, -8627, -39, 1576, 2223, -2523, 34, 27, 42, 39, 35, 56, 31, 28, 55, 306, 39
344368520, 6617, 12253, -8633, -24, 1602, 2223, -2520, 39, 36, 49, 39, 35, 56, 31, 28, 55, 306, 39
344369335, 6617, 12253, -8633, -24, 1602, 2223, -2520, 39, 36, 49, 38, 39, 57, 29, 36, 51, 226, 37
344370162, 6617, 12253, -8633, -24, 1602, 2223, -2520, 39, 36, 49, 38, 39, 57, 29, 36, 51, 226, 37
344391040, 6614, 12250, -8638, -8, 1608, 2216, -2509, 38, 38, 49, 38, 39, 57, 29, 36, 51, 226, 37
344391824, 6614, 12250, -8638, -8, 1608, 2216, -2509, 38, 38, 49, 41, 44, 55, 31, 33, 60, 148, 38
344392699, 6614, 12250, -8638, -8, 1608, 2216, -2509, 38, 38, 49, 41, 44, 55, 31, 33, 60, 148, 38
344404699, 6616, 12244, -8645, 10, 1628, 2211, -2509, 16, 48, 67, 41, 44, 55, 31, 33, 60, 148, 38
344412814, 6616, 12244, -8645, 10, 1628, 2211, -2509, 16, 48, 67, 36, 45, 53, 33, 33, 59, 97, 41
344413693, 6616, 12244, -8645, 10, 1628, 2211, -2509, 16, 48, 67, 36, 45, 53, 33, 33, 59, 97, 41
344428564, 6620, 12235, -8656, 34, 1656, 2196, -2506, 20, 64, 94, 36, 45, 53, 33, 33, 59, 97, 41
344429345, 6620, 12235, -8656, 34, 1656, 2196, -2506, 20, 64, 94, 34, 43, 45, 36, 45, 59, 89, 38
344430190, 6620, 12235, -8656, 34, 1656, 2196, -2506, 20, 64, 94, 34, 43, 45, 36, 45, 59, 89, 38
344451016, 6621, 12224, -8670, 63, 1667, 2201, -2514, 44, 72, 133, 34, 43, 45, 36, 45, 59, 89, 38
344451854, 6621, 12224, -8670, 63, 1667, 2201, -2514, 44, 72, 133, 36, 45, 51, 34, 45, 61, 65, 42
344452685, 6621, 12224, -8670, 63, 1667, 2201, -2514, 44, 72, 133, 36, 45, 51, 34, 45, 61, 65, 42
344464676, 6630, 12208, -8685, 89, 1652, 2259, -2494, 17, 91, 167, 36, 45, 51, 34, 45, 61, 65, 42
344472788, 6630, 12208, -8685, 89, 1652, 2259, -2494, 17, 91, 167, 38, 44, 45, 31, 40, 68, 67, 46
344473691, 6630, 12208, -8685, 89, 1652, 2259, -2494, 17, 91, 167, 38, 44, 45, 31, 40, 68, 67, 46
344488504, 6643, 12190, -8700, 118, 1656, 2268, -2503, 8, 122, 187, 38, 44, 45, 31, 40, 68, 67, 46
344489336, 6643, 12190, -8700, 118, 1656, 2268, -2503, 8, 122, 187, 33, 42, 46, 33, 50, 61, 58, 46
344490113, 6643, 12190, -8700, 118, 1656, 2268, -2503, 8, 122, 187, 33, 42, 46, 33, 50, 61, 58, 46
344511042, 6651, 12174, -8715, 147, 1626, 2232, -2529, 13, 131, 193, 33, 42, 46, 33, 50, 61, 58, 46
344511838, 6651, 12174, -8715, 147, 1626, 2232, -2529, 13, 131, 193, 28, 40, 46, 29, 61, 67, 61, 45
344512704, 6651, 12174, -8715, 147, 1626, 2232, -2529, 13, 131, 193, 28, 40, 46, 29, 61, 67, 61, 45
344524689, 6661, 12155, -8734, 172, 1606, 2256, -2543, -9, 123, 227, 28, 40, 46, 29, 61, 67, 61, 45
344532801, 6661, 12155, -8734, 172, 1606, 2256, -2543, -9, 123, 227, 34, 41, 58, 30, 53, 73, 61, 47
344533706, 6661, 12155, -8734, 172, 1606, 2256, -2543, -9, 123, 227, 34, 41, 58, 30, 53, 73, 61, 47
344548505, 6668, 12134, -8757, 195, 1629, 2255, -2542, -5, 101, 239, 34, 41, 58, 30, 53, 73, 61, 47
344549313, 6668, 12134, -8757, 195, 1629, 2255, -2542, -5, 101, 239, 32, 38, 51, 36, 54, 73, 61, 50
344550154, 6668, 12134, -8757, 195, 1629, 2255, -2542, -5, 101, 239, 32, 38, 51, 36, 54, 73, 61, 50
344571017, 6673, 12116, -8777, 217, 1626, 2266, -2546, 8, 105, 230, 32, 38, 51, 36, 54, 73, 61, 50
344571881, 6673, 12116, -8777, 217, 1626, 2266, -2546, 8, 105, 230, 33, 36, 54, 38, 58, 68, 50, 51
344572687, 6673, 12116, -8777, 217, 1626, 2266, -2546, 8, 105, 230, 33, 36, 54, 38, 58, 68, 50, 51
344584675, 6683, 12098, -8795, 234, 1627, 2316, -2547, -6, 108, 229, 33, 36, 54, 38, 58, 68, 50, 51
344592795, 6683, 12098, -8795, 234, 1627, 2316, -2547, -6, 108, 229, 35, 36, 51, 36, 51, 76, 50, 51
344593687, 6683, 12098, -8795, 234, 1627, 2316, -2547, -6, 108, 229, 35, 36, 51, 36, 51, 76, 50, 51
344608519, 6688, 12081, -8813, 250, 1640, 2292, -2550, 9, 89, 213, 35, 36, 51, 36, 51, 76, 50, 51
344609330, 6688, 12081, -8813, 250, 1640, 2292, -2550, 9, 89, 213, 37, 36, 53, 37, 37, 67, 54, 53
344610139, 6688, 12081, -8813, 250, 1640, 2292, -2550, 9, 89, 213, 37, 36, 53, 37, 37, 67, 54, 53
344631014, 6697, 12064, -8830, 260, 1629, 2326, -2527, -12, 79, 217, 37, 36, 53, 37, 37, 67, 54, 53
344631789, 6697, 12064, -8830, 260, 1629, 2326, -2527, -12, 79, 217, 43, 35, 45, 34, 39, 61, 55, 54
344632678, 6697, 12064, -8830, 260, 1629, 2326, -2527, -12, 79, 217, 43, 35, 45, 34, 39, 61, 55, 54
344644666, 6705, 12045, -8849, 269, 1664, 2330, -2531, -10, 62, 219, 43, 35, 45, 34, 39, 61, 55, 54
344652853, 6705, 12045, -8849, 269, 1664, 2330, -2531, -10, 62, 219, 43, 35, 44, 28, 49, 63, 53, 52
344653663, 6705, 12045, -8849, 269, 1664, 2330, -2531, -10, 62, 219, 43, 35, 44, 28, 49, 63, 53, 52
344668615, 6710, 12028, -8868, 281, 1691, 2294, -2557, -7, 64, 204, 43, 35, 44, 28, 49, 63, 53, 52
344669358, 6710, 12028, -8868, 281, 1691, 2294, -2557, -7, 64, 204, 40, 37, 45, 32, 44, 63, 48, 46
344670138, 6710, 12028, -8868, 281, 1691, 2294, -2557, -7, 64, 204, 40, 37, 45, 32, 44, 63, 48, 46
344691000, 6717, 12012, -8885, 292, 1696, 2302, -2567, -17, 77, 198, 40, 37, 45, 32, 44, 63, 48, 46
344691856, 6717, 12012, -8885, 292, 1696, 2302, -2567, -17, 77, 198, 43, 38, 49, 36, 44, 52, 49, 46
344692665, 6717, 12012, -8885, 292, 1696, 2302, -2567, -17, 77, 198, 43, 38, 49, 36, 44, 52, 49, 46
344704663, 6721, 12000, -8898, 305, 1702, 2280, -2557, 9, 78, 167, 43, 38, 49, 36, 44, 52, 49, 46
344712838, 6721, 12000, -8898, 305, 1702, 2280, -2557, 9, 78, 167, 44, 38, 46, 36, 46, 55, 42, 41
344713692, 6721, 12000, -8898, 305, 1702, 2280, -2557, 9, 78, 167, 44, 38, 46, 36, 46, 55, 42, 41
344727815, 6724, 11988, -8911, 318, 1700, 2275, -2559, 11, 85, 173, 44, 38, 46, 36, 46, 55, 42, 41
344728704, 6724, 11988, -8911, 318, 1700, 2275, -2559, 11, 85, 173, 36, 41, 44, 36, 53, 58, 45, 45
344734685, 6724, 11988, -8911, 318, 1700, 2275, -2559, 11, 85, 173, 36, 41, 44, 36, 53, 58, 45, 45
344751037, 6727, 11976, -8924, 335, 1725, 2297, -2546, 40, 86, 186, 36, 41, 44, 36, 53, 58, 45, 45
344751837, 6727, 11976, -8924, 335, 1725, 2297, -2546, 40, 86, 186, 36, 41, 47, 36, 45, 55, 42, 42
344752685, 6727, 11976, -8924, 335, 1725, 2297, -2546, 40, 86, 186, 36, 41, 47, 36, 45, 55, 42, 42
344764690, 6727, 11965, -8937, 356, 1746, 2310, -2562, 66, 102, 190, 36, 41, 47, 36, 45, 55, 42, 42
344772797, 6727, 11965, -8937, 356, 1746, 2310, -2562, 66, 102, 190, 39, 41, 44, 34, 45, 58, 46, 45
344773665, 6727, 11965, -8937, 356, 1746, 2310, -2562, 66, 102, 190, 39, 41, 44, 34, 45, 58, 46, 45
344787859, 6730, 11954, -8949, 375, 1745, 2315, -2550, 55, 101, 190, 39, 41, 44, 34, 45, 58, 46, 45
344788690, 6730, 11954, -8949, 375, 1745, 2315, -2550, 55, 101, 190, 34, 39, 46, 30, 48, 66, 43, 43
344794665, 6730, 11954, -8949, 375, 1745, 2315, -2550, 55, 101, 190, 34, 39, 46, 30, 48, 66, 43, 43
344811003, 6733, 11941, -8963, 397, 1777, 2282, -2558, 50, 106, 195, 34, 39, 46, 30, 48, 66, 43, 43
344811813, 6733, 11941, -8963, 397, 1777, 2282, -2558, 50, 106, 195, 35, 53, 50, 28, 45, 63, 39, 44
344812704, 6733, 11941, -8963, 397, 1777, 2282, -2558, 50, 106, 195, 35, 53, 50, 28, 45, 63, 39, 44
344824665, 6735, 11929, -8977, 421, 1782, 2270, -2567, 51, 115, 202, 35, 53, 50, 28, 45, 63, 39, 44
344832789, 6735, 11929, -8977, 421, 1782, 2270, -2567, 51, 115, 202, 36, 51, 57, 29, 37, 64, 46, 40
344833566, 6735, 11929, -8977, 421, 1782, 2270, -2567, 51, 115, 202, 36, 51, 57, 29, 37, 64, 46, 40
344847143, 6739, 11916, -8990, 444, 1796, 2289, -2546, 61, 112, 202, 36, 51, 57, 29, 37, 64, 46, 40
344855344, 6739, 11916, -8990, 444, 1796, 2289, -2546, 61, 112, 202, 36, 51, 57, 31, 37, 71, 48, 39
344856153, 6739, 11916, -8990, 444, 1796, 2289, -2546, 61, 112, 202, 36, 51, 57, 31, 37, 71, 48, 39
344871018, 6739, 11906, -9003, 467, 1799, 2278, -2545, 78, 108, 193, 36, 51, 57, 31, 37, 71, 48, 39
344871828, 6739, 11906, -9003, 467, 1799, 2278, -2545, 78, 108, 193, 33, 50, 58, 29, 44, 68, 51, 34
344872639, 6739, 11906, -9003, 467, 1799, 2278, -2545, 78, 108, 193, 33, 50, 58, 29, 44, 68, 51, 34
344884678, 6746, 11892, -9015, 480, 1764, 2326, -2533, 36, 96, 207, 33, 50, 58, 29, 44, 68, 51, 34
344892780, 6746, 11892, -9015, 480, 1764, 2326, -2533, 36, 96, 207, 34, 49, 61, 30, 41, 59, 63, 36
344893654, 6746, 11892, -9015, 480, 1764, 2326, -2533, 36, 96, 207, 34, 49, 61, 30, 41, 59, 63, 36
344907220, 6751, 11879, -9028, 485, 1759, 2333, -2551, 16, 69, 193, 34, 49, 61, 30, 41, 59, 63, 36
344915289, 6751, 11879, -9028, 485, 1759, 2333, -2551, 16, 69, 193, 31, 35, 63, 34, 41, 63, 73, 44
344916121, 6751, 11879, -9028, 485, 1759, 2333, -2551, 16, 69, 193, 31, 35, 63, 34, 41, 63, 73, 44
344930790, 6756, 11868, -9038, 479, 1747, 2342, -2555, -11, 40, 163, 31, 35, 63, 34, 41, 63, 73, 44
344931691, 6756, 11868, -9038, 479, 1747, 2342, -2555, -11, 40, 163, 31, 35, 63, 34, 41, 63, 73, 44
344939813, 6756, 11868, -9038, 479, 1747, 2342, -2555, -11, 40, 163, 43, 35, 45, 34, 39, 61, 55, 54
344940661, 6756, 11868, -9038, 479, 1747, 2342, -2555, -11, 40, 163, 43, 35, 45, 34, 39, 61, 55, 54
344941566, 6705, 12045, -8849, 269, 1664, 2330, -2531, -10, 62, 219, 43, 35, 45, 34, 39, 61, 55, 54
344942427, 6705, 12045, -8849, 269, 1664, 2330, -2531, -10, 62, 219, 43, 35, 44, 28, 49, 63, 53, 52
344947392, 6705, 12045, -8849, 269, 1664, 2330, -2531, -10, 62, 219, 43, 35, 44, 28, 49, 63, 53, 52
344948235, 6705, 12045, -8849, 269, 1664, 2330, -2531, -10, 62, 219, 43, 35, 44, 28, 49, 63, 53, 52
344949054, 6705, 12045, -8849, 269, 1664, 2330, -2531, -10, 62, 219, 43, 35, 44, 28, 49, 63, 53, 52
344949838, 6705, 12045, -8849, 269, 1664, 2330, -2531, -10, 62, 219, 43, 35, 44, 28, 49, 63, 53, 52
344954162, 6705, 12045, -8849, 269, 1664, 2330, -2531, -10, 62, 219, 43, 35, 44, 28, 49, 63, 53, 52
344954960, 6705, 12045, -8849, 269, 1664, 2330, -2531, -10, 62, 219, 43, 35, 44, 28, 49, 63, 53, 52
344955755, 6705, 12045, -8849, 269, 1664, 2330, -2531, -10, 62, 219, 35, 35, 64, 31, 44, 71, 71, 49
344956684, 6705, 12045, -8849, 269, 1664, 2330, -2531, -10, 62, 219, 35, 35, 64, 31, 44, 71, 71, 49
344967140, 6769, 11849, -9056, 442, 1761, 2338, -2560, -68, -20, 100, 35, 35, 64, 31, 44, 71, 71, 49
344975304, 6769, 11849, -9056, 442, 1761, 2338, -2560, -68, -20, 100, 36, 35, 70, 30, 38, 72, 67, 52
344976114, 6769, 11849, -9056, 442, 1761, 2338, -2560, -68, -20, 100, 36, 35, 70, 30, 38, 72, 67, 52
344992404, 6773, 11844, -9060, 420, 1766, 2339, -2573, -54, -21, 68, 36, 35, 70, 30, 38, 72, 67, 52
344993217, 6773, 11844, -9060, 420, 1766, 2339, -2573, -54, -21, 68, 36, 35, 70, 30, 38, 72, 67, 52
344994040, 6773, 11844, -9060, 420, 1766, 2339, -2573, -54, -21, 68, 43, 38, 49, 36, 44, 52, 49, 46
344994843, 6773, 11844, -9060, 420, 1766, 2339, -2573, -54, -21, 68, 43, 38, 49, 36, 44, 52, 49, 46
344999897, 6721, 12000, -8898, 305, 1702, 2280, -2557, 9, 78, 167, 43, 38, 49, 36, 44, 52, 49, 46
345000714, 6721, 12000, -8898, 305, 1702, 2280, -2557, 9, 78, 167, 44, 38, 46, 36, 46, 55, 42, 41
345001515, 6721, 12000, -8898, 305, 1702, 2280, -2557, 9, 78, 167, 44, 38, 46, 36, 46, 55, 42, 41
345002343, 6721, 12000, -8898, 305, 1702, 2280, -2557, 9, 78, 167, 44, 38, 46, 36, 46, 55, 42, 41
345007264, 6721, 12000, -8898, 305, 1702, 2280, -2557, 9, 78, 167, 44, 38, 46, 36, 46, 55, 42, 41
345008091, 6721, 12000, -8898, 305, 1702, 2280, -2557, 9, 78, 167, 44, 38, 46, 36, 46, 55, 42, 41
345008887, 6721, 12000, -8898, 305, 1702, 2280, -2557, 9, 78, 167, 44, 38, 46, 36, 46, 55, 42, 41
345009678, 6721, 12000, -8898, 305, 1702, 2280, -2557, 9, 78, 167, 44, 38, 46, 36, 46, 55, 42, 41
345014813, 6721, 12000, -8898, 305, 1702, 2280, -2557, 9, 78, 167, 44, 38, 46, 36, 46, 55, 42, 41
345015806, 6724, 11988, -8911, 318, 1700, 2275, -2559, 11, 85, 173, 44, 38, 46, 36, 46, 55, 42, 41
345016568, 6724, 11988, -8911, 318, 1700, 2275, -2559, 11, 85, 173, 36, 41, 44, 36, 53, 58, 45, 45
345017411, 6724, 11988, -8911, 318, 1700, 2275, -2559, 11, 85, 173, 36, 41, 44, 36, 53, 58, 45, 45
345022389, 6724, 11988, -8911, 318, 1700, 2275, -2559, 11, 85, 173, 36, 41, 44, 36, 53, 58, 45, 45
345023215, 6724, 11988, -8911, 318, 1700, 2275, -2559, 11, 85, 173, 36, 41, 44, 36, 53, 58, 45, 45
345024022, 6724, 11988, -8911, 318, 1700, 2275, -2559, 11, 85, 173, 36, 41, 44, 36, 53, 58, 45, 45
345024838, 6724, 11988, -8911, 318, 1700, 2275, -2559, 11, 85, 173, 36, 41, 44, 36, 53, 58, 45, 45
345029787, 6724, 11988, -8911, 318, 1700, 2275, -2559, 11, 85, 173, 36, 41, 44, 36, 53, 58, 45, 45
345030692, 6724, 11988, -8911, 318, 1700, 2275, -2559, 11, 85, 173, 36, 41, 44, 36, 53, 58, 45, 45
345031388, 6724, 11988, -8911, 318, 1700, 2275, -2559, 11, 85, 173, 36, 41, 44, 36, 53, 58, 45, 45
345032265, 6724, 11988, -8911, 318, 1700, 2275, -2559, 11, 85, 173, 36, 41, 44, 36, 53, 58, 45, 45
345037289, 6724, 11988, -8911, 318, 1700, 2275, -2559, 11, 85, 173, 36, 41, 44, 36, 53, 58, 45, 45
345038238, 6727, 11976, -8924, 335, 1725, 2297, -2546, 40, 86, 186, 36, 41, 44, 36, 53, 58, 45, 45
345039031, 6727, 11976, -8924, 335, 1725, 2297, -2546, 40, 86, 186, 36, 41, 47, 36, 45, 55, 42, 42
345039844, 6727, 11976, -8924, 335, 1725, 2297, -2546, 40, 86, 186, 36, 41, 47, 36, 45, 55, 42, 42
345044838, 6727, 11976, -8924, 335, 1725, 2297, -2546, 40, 86, 186, 36, 41, 47, 36, 45, 55, 42, 42
345045662, 6727, 11976, -8924, 335, 1725, 2297, -2546, 40, 86, 186, 36, 41, 47, 36, 45, 55, 42, 42
345046465, 6727, 11976, -8924, 335, 1725, 2297, -2546, 40, 86, 186, 36, 41, 47, 36, 45, 55, 42, 42
345047312, 6727, 11976, -8924, 335, 1725, 2297, -2546, 40, 86, 186, 36, 41, 47, 36, 45, 55, 42, 42
345052263, 6727, 11976, -8924, 335, 1725, 2297, -2546, 40, 86, 186, 36, 41, 47, 36, 45, 55, 42, 42
345053128, 6727, 11976, -8924, 335, 1725, 2297, -2546, 40, 86, 186, 36, 41, 47, 36, 45, 55, 42, 42
345053888, 6727, 11976, -8924, 335, 1725, 2297, -2546, 40, 86, 186, 36, 41, 47, 36, 45, 55, 42, 42
345054741, 6727, 11976, -8924, 335, 1725, 2297, -2546, 40, 86, 186, 36, 41, 47, 36, 45, 55, 42, 42
345059788, 6727, 11976, -8924, 335, 1725, 2297, -2546, 40, 86, 186, 36, 41, 47, 36, 45, 55, 42, 42
345060737, 6727, 11965, -8937, 356, 1746, 2310, -2562, 66, 102, 190, 36, 41, 47, 36, 45, 55, 42, 42
345061518, 6727, 11965, -8937, 356, 1746, 2310, -2562, 66, 102, 190, 39, 41, 44, 34, 45, 58, 46, 45
345062373, 6727, 11965, -8937, 356, 1746, 2310, -2562, 66, 102, 190, 39, 41, 44, 34, 45, 58, 46, 45
345067340, 6727, 11965, -8937, 356, 1746, 2310, -2562, 66, 102, 190, 39, 41, 44, 34, 45, 58, 46, 45
345068188, 6727, 11965, -8937, 356, 1746, 2310, -2562, 66, 102, 190, 39, 41, 44, 34, 45, 58, 46, 45
345068988, 6727, 11965, -8937, 356, 1746, 2310, -2562, 66, 102, 190, 39, 41, 44, 34, 45, 58, 46, 45
345069829, 6727, 11965, -8937, 356, 1746, 2310, -2562, 66, 102, 190, 39, 41, 44, 34, 45, 58, 46, 45
345074744, 6727, 11965, -8937, 356, 1746, 2310, -2562, 66, 102, 190, 39, 41, 44, 34, 45, 58, 46, 45
345075588, 6727, 11965, -8937, 356, 1746, 2310, -2562, 66, 102, 190, 39, 41, 44, 34, 45, 58, 46, 45
345076386, 6727, 11965, -8937, 356, 1746, 2310, -2562, 66, 102, 190, 39, 41, 44, 34, 45, 58, 46, 45
345077215, 6727, 11965, -8937, 356, 1746, 2310, -2562, 66, 102, 190, 39, 41, 44, 34, 45, 58, 46, 45
345082354, 6727, 11965, -8937, 356, 1746, 2310, -2562, 66, 102, 190, 39, 41, 44, 34, 45, 58, 46, 45
345083270, 6730, 11954, -8949, 375, 1745, 2315, -2550, 55, 101, 190, 39, 41, 44, 34, 45, 58, 46, 45
345084067, 6730, 11954, -8949, 375, 1745, 2315, -2550, 55, 101, 190, 34, 39, 46, 30, 48, 66, 43, 43
345084887, 6730, 11954, -8949, 375, 1745, 2315, -2550, 55, 101, 190, 34, 39, 46, 30, 48, 66, 43, 43
345089898, 6730, 11954, -8949, 375, 1745, 2315, -2550, 55, 101, 190, 34, 39, 46, 30, 48, 66, 43, 43
345090683, 6730, 11954, -8949, 375, 1745, 2315, -2550, 55, 101, 190, 34, 39, 46, 30, 48, 66, 43, 43
345091494, 6730, 11954, -8949, 375, 1745, 2315, -2550, 55, 101, 190, 34, 39, 46, 30, 48, 66, 43, 43
345092313, 6730, 11954, -8949, 375, 1745, 2315, -2550, 55, 101, 190, 34, 39, 46, 30, 48, 66, 43, 43
345095938, 6730, 11954, -8949, 375, 1745, 2315, -2550, 55, 101, 190, 34, 39, 46, 30, 48, 66, 43, 43
345096762, 6730, 11954, -8949, 375, 1745, 2315, -2550, 55, 101, 190, 34, 39, 46, 30, 48, 66, 43, 43
345097637, 6730, 11954, -8949, 375, 1745, 2315, -2550, 55, 101, 190, 34, 39, 46, 30, 48, 66, 43, 43
345109665, 6768, 11863, -9042, 354, 1841, 2265, -2553, 37, 11, -28, 34, 39, 46, 30, 48, 66, 43, 43
345117740, 6768, 11863, -9042, 354, 1841, 2265, -2553, 37, 11, -28, 36, 30, 43, 30, 38, 48, 50, 53
345118568, 6768, 11863, -9042, 354, 1841, 2265, -2553, 37, 11, -28, 36, 30, 43, 30, 38, 48, 50, 53
345124788, 6763, 11869, -9039, 358, 1853, 2241, -2543, 53, 17, -5, 36, 30, 43, 30, 38, 48, 50, 53
345132799, 6763, 11869, -9039, 358, 1853, 2241, -2543, 53, 17, -5, 33, 32, 39, 26, 34, 46, 49, 53
345133559, 6763, 11869, -9039, 358, 1853, 2241, -2543, 53, 17, -5, 33, 32, 39, 26, 34, 46, 49, 53
345147152, 6761, 11870, -9039, 361, 1844, 2257, -2542, 36, 20, 28, 33, 32, 39, 26, 34, 46, 49, 53
345155279, 6761, 11870, -9039, 361, 1844, 2257, -2542, 36, 20, 28, 38, 36, 34, 26, 40, 44, 38, 53
345156086, 6761, 11870, -9039, 361, 1844, 2257, -2542, 36, 20, 28, 38, 36, 34, 26, 40, 44, 38, 53
345172344, 6764, 11864, -9044, 367, 1878, 2265, -2529, 18, 20, 66, 38, 36, 34, 26, 40, 44, 38, 53
345173186, 6764, 11864, -9044, 367, 1878, 2265, -2529, 18, 20, 66, 38, 36, 34, 26, 40, 44, 38, 53
345173963, 6764, 11864, -9044, 367, 1878, 2265, -2529, 18, 20, 66, 33, 50, 58, 29, 44, 68, 51, 34
345174828, 6764, 11864, -9044, 367, 1878, 2265, -2529, 18, 20, 66, 33, 50, 58, 29, 44, 68, 51, 34
345179909, 6746, 11892, -9015, 480, 1764, 2326, -2533, 36, 96, 207, 33, 50, 58, 29, 44, 68, 51, 34
345180717, 6746, 11892, -9015, 480, 1764, 2326, -2533, 36, 96, 207, 34, 49, 61, 30, 41, 59, 63, 36
345181516, 6746, 11892, -9015, 480, 1764, 2326, -2533, 36, 96, 207, 34, 49, 61, 30, 41, 59, 63, 36
345182401, 6746, 11892, -9015, 480, 1764, 2326, -2533, 36, 96, 207, 34, 49, 61, 30, 41, 59, 63, 36
345187262, 6746, 11892, -9015, 480, 1764, 2326, -2533, 36, 96, 207, 34, 49, 61, 30, 41, 59, 63, 36
345188104, 6746, 11892, -9015, 480, 1764, 2326, -2533, 36, 96, 207, 34, 49, 61, 30, 41, 59, 63, 36
345188888, 6746, 11892, -9015, 480, 1764, 2326, -2533, 36, 96, 207, 34, 49, 61, 30, 41, 59, 63, 36
345189697, 6746, 11892, -9015, 480, 1764, 2326, -2533, 36, 96, 207, 34, 49, 61, 30, 41, 59, 63, 36
345194840, 6746, 11892, -9015, 480, 1764, 2326, -2533, 36, 96, 207, 34, 49, 61, 30, 41, 59, 63, 36
345195764, 6751, 11879, -9028, 485, 1759, 2333, -2551, 16, 69, 193, 34, 49, 61, 30, 41, 59, 63, 36
345196608, 6751, 11879, -9028, 485, 1759, 2333, -2551, 16, 69, 193, 31, 35, 63, 34, 41, 63, 73, 44
345197391, 6751, 11879, -9028, 485, 1759, 2333, -2551, 16, 69, 193, 31, 35, 63, 34, 41, 63, 73, 44
345202391, 6751, 11879, -9028, 485, 1759, 2333, -2551, 16, 69, 193, 31, 35, 63, 34, 41, 63, 73, 44
345203219, 6751, 11879, -9028, 485, 1759, 2333, -2551, 16, 69, 193, 31, 35, 63, 34, 41, 63, 73, 44
345204028, 6751, 11879, -9028, 485, 1759, 2333, -2551, 16, 69, 193, 31, 35, 63, 34, 41, 63, 73, 44
345204837, 6751, 11879, -9028, 485, 1759, 2333, -2551, 16, 69, 193, 31, 35, 63, 34, 41, 63, 73, 44
345208436, 6751, 11879, -9028, 485, 1759, 2333, -2551, 16, 69, 193, 31, 35, 63, 34, 41, 63, 73, 44
345209238, 6751, 11879, -9028, 485, 1759, 2333, -2551, 16, 69, 193, 31, 35, 63, 34, 41, 63, 73, 44
345210078, 6751, 11879, -9028, 485, 1759, 2333, -2551, 16, 69, 193, 31, 35, 63, 34, 41, 63, 73, 44
345215263, 6751, 11879, -9028, 485, 1759, 2333, -2551, 16, 69, 193, 43, 43, 48, 32, 46, 47, 37, 43
345216128, 6751, 11879, -9028, 485, 1759, 2333, -2551, 16, 69, 193, 43, 43, 48, 32, 46, 47, 37, 43
345232366, 6788, 11823, -9078, 397, 1920, 2241, -2550, -18, 43, 136, 43, 43, 48, 32, 46, 47, 37, 43
345233186, 6788, 11823, -9078, 397, 1920, 2241, -2550, -18, 43, 136, 43, 43, 48, 32, 46, 47, 37, 43
345234002, 6763, 11859, -9047, 463, 1730, 2355, -2564, -47, 8, 135, 43, 43, 48, 32, 46, 47, 37, 43
345234813, 6763, 11859, -9047, 463, 1730, 2355, -2564, -47, 8, 135, 35, 35, 64, 31, 44, 71, 71, 49
345239789, 6763, 11859, -9047, 463, 1730, 2355, -2564, -47, 8, 135, 35, 35, 64, 31, 44, 71, 71, 49
345240705, 6769, 11849, -9056, 442, 1761, 2338, -2560, -68, -20, 100, 35, 35, 64, 31, 44, 71, 71, 49
345241518, 6769, 11849, -9056, 442, 1761, 2338, -2560, -68, -20, 100, 36, 35, 70, 30, 38, 72, 67, 52
345242311, 6769, 11849, -9056, 442, 1761, 2338, -2560, -68, -20, 100, 36, 35, 70, 30, 38, 72, 67, 52
345247328, 6769, 11849, -9056, 442, 1761, 2338, -2560, -68, -20, 100, 36, 35, 70, 30, 38, 72, 67, 52
345248184, 6769, 11849, -9056, 442, 1761, 2338, -2560, -68, -20, 100, 36, 35, 70, 30, 38, 72, 67, 52
345248965, 6769, 11849, -9056, 442, 1761, 2338, -2560, -68, -20, 100, 36, 35, 70, 30, 38, 72, 67, 52
345249803, 6769, 11849, -9056, 442, 1761, 2338, -2560, -68, -20, 100, 36, 35, 70, 30, 38, 72, 67, 52
345254787, 6769, 11849, -9056, 442, 1761, 2338, -2560, -68, -20, 100, 36, 35, 70, 30, 38, 72, 67, 52
345255703, 6769, 11849, -9056, 442, 1761, 2338, -2560, -68, -20, 100, 36, 35, 70, 30, 38, 72, 67, 52
345256439, 6769, 11849, -9056, 442, 1761, 2338, -2560, -68, -20, 100, 36, 35, 70, 30, 38, 72, 67, 52
345257266, 6769, 11849, -9056, 442, 1761, 2338, -2560, -68, -20, 100, 36, 35, 70, 30, 38, 72, 67, 52
345262312, 6769, 11849, -9056, 442, 1761, 2338, -2560, -68, -20, 100, 36, 35, 70, 30, 38, 72, 67, 52
345263270, 6773, 11844, -9060, 420, 1766, 2339, -2573, -54, -21, 68, 36, 35, 70, 30, 38, 72, 67, 52
345264085, 6773, 11844, -9060, 420, 1766, 2339, -2573, -54, -21, 68, 40, 35, 81, 31, 44, 81, 58, 54
345264892, 6773, 11844, -9060, 420, 1766, 2339, -2573, -54, -21, 68, 40, 35, 81, 31, 44, 81, 58, 54
345269890, 6773, 11844, -9060, 420, 1766, 2339, -2573, -54, -21, 68, 40, 35, 81, 31, 44, 81, 58, 54
345270685, 6773, 11844, -9060, 420, 1766, 2339, -2573, -54, -21, 68, 40, 35, 81, 31, 44, 81, 58, 54
345271513, 6773, 11844, -9060, 420, 1766, 2339, -2573, -54, -21, 68, 40, 35, 81, 31, 44, 81, 58, 54
345272323, 6773, 11844, -9060, 420, 1766, 2339, -2573, -54, -21, 68, 40, 35, 81, 31, 44, 81, 58, 54
345277267, 6773, 11844, -9060, 420, 1766, 2339, -2573, -54, -21, 68, 40, 35, 81, 31, 44, 81, 58, 54
345278084, 6773, 11844, -9060, 420, 1766, 2339, -2573, -54, -21, 68, 40, 35, 81, 31, 44, 81, 58, 54
345278885, 6773, 11844, -9060, 420, 1766, 2339, -2573, -54, -21, 68, 40, 35, 81, 31, 44, 81, 58, 54
345279747, 6773, 11844, -9060, 420, 1766, 2339, -2573, -54, -21, 68, 40, 35, 81, 31, 44, 81, 58, 54
345284799, 6773, 11844, -9060, 420, 1766, 2339, -2573, -54, -21, 68, 40, 35, 81, 31, 44, 81, 58, 54
345285739, 6774, 11842, -9064, 399, 1773, 2349, -2583, -37, -32, 54, 40, 35, 81, 31, 44, 81, 58, 54
345286542, 6774, 11842, -9064, 399, 1773, 2349, -2583, -37, -32, 54, 43, 35, 79, 29, 47, 81, 46, 48
345287366, 6774, 11842, -9064, 399, 1773, 2349, -2583, -37, -32, 54, 43, 35, 79, 29, 47, 81, 46, 48
345292363, 6774, 11842, -9064, 399, 1773, 2349, -2583, -37, -32, 54, 43, 35, 79, 29, 47, 81, 46, 48
345293170, 6774, 11842, -9064, 399, 1773, 2349, -2583, -37, -32, 54, 43, 35, 79, 29, 47, 81, 46, 48
345293996, 6774, 11842, -9064, 399, 1773, 2349, -2583, -37, -32, 54, 43, 35, 79, 29, 47, 81, 46, 48
345294789, 6774, 11842, -9064, 399, 1773, 2349, -2583, -37, -32, 54, 43, 35, 79, 29, 47, 81, 46, 48
345299767, 6774, 11842, -9064, 399, 1773, 2349, -2583, -37, -32, 54, 43, 35, 79, 29, 47, 81, 46, 48
345300566, 6774, 11842, -9064, 399, 1773, 2349, -2583, -37, -32, 54, 43, 35, 79, 29, 47, 81, 46, 48
345301386, 6774, 11842, -9064, 399, 1773, 2349, -2583, -37, -32, 54, 43, 35, 79, 29, 47, 81, 46, 48
345302187, 6774, 11842, -9064, 399, 1773, 2349, -2583, -37, -32, 54, 43, 35, 79, 29, 47, 81, 46, 48
345307303, 6774, 11842, -9064, 399, 1773, 2349, -2583, -37, -32, 54, 43, 35, 79, 29, 47, 81, 46, 48
345308190, 6773, 11843, -9063, 380, 1799, 2348, -2565, -10, -34, 21, 43, 35, 79, 29, 47, 81, 46, 48
345309053, 6773, 11843, -9063, 380, 1799, 2348, -2565, -10, -34, 21, 40, 32, 76, 33, 47, 64, 43, 44
345309826, 6773, 11843, -9063, 380, 1799, 2348, -2565, -10, -34, 21, 43, 35, 79, 29, 47, 81, 46, 48
345314899, 6773, 11843, -9063, 380, 1799, 2348, -2565, -10, -34, 21, 40, 32, 76, 33, 47, 64, 43, 44
345315713, 6773, 11843, -9063, 380, 1799, 2348, -2565, -10, -34, 21, 40, 32, 76, 33, 47, 64, 43, 44
345316556, 6773, 11843, -9063, 380, 1799, 2348, -2565, -10, -34, 21, 40, 32, 76, 33, 47, 64, 43, 44
345317344, 6773, 11843, -9063, 380, 1799, 2348, -2565, -10, -34, 21, 40, 32, 76, 33, 47, 64, 43, 44
345322295, 6773, 11843, -9063, 380, 1799, 2348, -2565, -10, -34, 21, 40, 32, 76, 33, 47, 64, 43, 44
345323109, 6773, 11843, -9063, 380, 1799, 2348, -2565, -10, -34, 21, 40, 32, 76, 33, 47, 64, 43, 44
345323914, 6773, 11843, -9063, 380, 1799, 2348, -2565, -10, -34, 21, 40, 32, 76, 33, 47, 64, 43, 44
345324740, 6773, 11843, -9063, 380, 1799, 2348, -2565, -10, -34, 21, 40, 32, 76, 33, 47, 64, 43, 44
345329834, 6773, 11843, -9063, 380, 1799, 2348, -2565, -10, -34, 21, 40, 32, 76, 33, 47, 64, 43, 44
345330781, 6774, 11844, -9062, 377, 1820, 2343, -2552, -1, -16, -6, 40, 32, 76, 33, 47, 64, 43, 44
345331565, 6774, 11844, -9062, 377, 1820, 2343, -2552, -1, -16, -6, 40, 31, 75, 31, 49, 63, 53, 46
345332390, 6774, 11844, -9062, 377, 1820, 2343, -2552, -1, -16, -6, 40, 31, 75, 31, 49, 63, 53, 46
345337379, 6774, 11844, -9062, 377, 1820, 2343, -2552, -1, -16, -6, 40, 31, 75, 31, 49, 63, 53, 46
345338189, 6774, 11844, -9062, 377, 1820, 2343, -2552, -1, -16, -6, 40, 31, 75, 31, 49, 63, 53, 46
345338990, 6774, 11844, -9062, 377, 1820, 2343, -2552, -1, -16, -6, 40, 31, 75, 31, 49, 63, 53, 46
345339812, 6774, 11844, -9062, 377, 1820, 2343, -2552, -1, -16, -6, 40, 31, 75, 31, 49, 63, 53, 46
345344760, 6774, 11844, -9062, 377, 1820, 2343, -2552, -1, -16, -6, 40, 31, 75, 31, 49, 63, 53, 46
345345558, 6774, 11844, -9062, 377, 1820, 2343, -2552, -1, -16, -6, 40, 31, 75, 31, 49, 63, 53, 46
345346385, 6774, 11844, -9062, 377, 1820, 2343, -2552, -1, -16, -6, 40, 31, 75, 31, 49, 63, 53, 46
345347210, 6774, 11844, -9062, 377, 1820, 2343, -2552, -1, -16, -6, 40, 31, 75, 31, 49, 63, 53, 46
345352284, 6774, 11844, -9062, 377, 1820, 2343, -2552, -1, -16, -6, 40, 31, 75, 31, 49, 63, 53, 46
345353214, 6773, 11850, -9055, 364, 1825, 2330, -2572, 10, -9, -25, 40, 31, 75, 31, 49, 63, 53, 46
345354005, 6773, 11850, -9055, 364, 1825, 2330, -2572, 10, -9, -25, 40, 31, 69, 33, 48, 62, 51, 54
345354813, 6773, 11850, -9055, 364, 1825, 2330, -2572, 10, -9, -25, 40, 31, 69, 33, 48, 62, 51, 54
345359837, 6773, 11850, -9055, 364, 1825, 2330, -2572, 10, -9, -25, 40, 31, 69, 33, 48, 62, 51, 54
345360704, 6773, 11850, -9055, 364, 1825, 2330, -2572, 10, -9, -25, 40, 31, 69, 33, 48, 62, 51, 54
345361466, 6773, 11850, -9055, 364, 1825, 2330, -2572, 10, -9, -25, 40, 31, 69, 33, 48, 62, 51, 54
345362315, 6773, 11850, -9055, 364, 1825, 2330, -2572, 10, -9, -25, 40, 31, 69, 33, 48, 62, 51, 54
345367279, 6773, 11850, -9055, 364, 1825, 2330, -2572, 10, -9, -25, 40, 31, 69, 33, 48, 62, 51, 54
345368060, 6773, 11850, -9055, 364, 1825, 2330, -2572, 10, -9, -25, 40, 31, 69, 33, 48, 62, 51, 54
345368903, 6773, 11850, -9055, 364, 1825, 2330, -2572, 10, -9, -25, 40, 31, 69, 33, 48, 62, 51, 54
345369710, 6773, 11850, -9055, 364, 1825, 2330, -2572, 10, -9, -25, 40, 31, 69, 33, 48, 62, 51, 54
345374840, 6773, 11850, -9055, 364, 1825, 2330, -2572, 10, -9, -25, 40, 31, 69, 33, 48, 62, 51, 54
345375738, 6772, 11856, -9048, 357, 1839, 2287, -2553, 18, 1, -32, 40, 31, 69, 33, 48, 62, 51, 54
345376548, 6772, 11856, -9048, 357, 1839, 2287, -2553, 18, 1, -32, 37, 30, 48, 32, 41, 53, 48, 52
345377371, 6772, 11856, -9048, 357, 1839, 2287, -2553, 18, 1, -32, 37, 30, 48, 32, 41, 53, 48, 52
345382411, 6772, 11856, -9048, 357, 1839, 2287, -2553, 18, 1, -32, 37, 30, 48, 32, 41, 53, 48, 52
345383214, 6772, 11856, -9048, 357, 1839, 2287, -2553, 18, 1, -32, 37, 30, 48, 32, 41, 53, 48, 52
345384045, 6772, 11856, -9048, 357, 1839, 2287, -2553, 18, 1, -32, 37, 30, 48, 32, 41, 53, 48, 52
345384840, 6772, 11856, -9048, 357, 1839, 2287, -2553, 18, 1, -32, 37, 30, 48, 32, 41, 53, 48, 52
345389763, 6772, 11856, -9048, 357, 1839, 2287, -2553, 18, 1, -32, 37, 30, 48, 32, 41, 53, 48, 52
345390673, 6772, 11856, -9048, 357, 1839, 2287, -2553, 18, 1, -32, 37, 30, 48, 32, 41, 53, 48, 52
345391367, 6772, 11856, -9048, 357, 1839, 2287, -2553, 18, 1, -32, 37, 30, 48, 32, 41, 53, 48, 52
345392213, 6772, 11856, -9048, 357, 1839, 2287, -2553, 18, 1, -32, 37, 30, 48, 32, 41, 53, 48, 52
345397317, 6772, 11856, -9048, 357, 1839, 2287, -2553, 18, 1, -32, 37, 30, 48, 32, 41, 53, 48, 52
345398215, 6768, 11863, -9042, 354, 1841, 2265, -2553, 37, 11, -28, 37, 30, 48, 32, 41, 53, 48, 52
345399079, 6768, 11863, -9042, 354, 1841, 2265, -2553, 37, 11, -28, 36, 30, 43, 30, 38, 48, 50, 53
345399860, 6768, 11863, -9042, 354, 1841, 2265, -2553, 37, 11, -28, 36, 30, 43, 30, 38, 48, 50, 53
345404887, 6768, 11863, -9042, 354, 1841, 2265, -2553, 37, 11, -28, 36, 30, 43, 30, 38, 48, 50, 53
345405663, 6768, 11863, -9042, 354, 1841, 2265, -2553, 37, 11, -28, 36, 30, 43, 30, 38, 48, 50, 53
345406517, 6768, 11863, -9042, 354, 1841, 2265, -2553, 37, 11, -28, 36, 30, 43, 30, 38, 48, 50, 53
345407287, 6768, 11863, -9042, 354, 1841, 2265, -2553, 37, 11, -28, 36, 30, 43, 30, 38, 48, 50, 53
345412239, 6768, 11863, -9042, 354, 1841, 2265, -2553, 37, 11, -28, 36, 30, 43, 30, 38, 48, 50, 53
345413091, 6768, 11863, -9042, 354, 1841, 2265, -2553, 37, 11, -28, 36, 30, 43, 30, 38, 48, 50, 53
345413888, 6768, 11863, -9042, 354, 1841, 2265, -2553, 37, 11, -28, 36, 30, 43, 30, 38, 48, 50, 53
345414729, 6768, 11863, -9042, 354, 1841, 2265, -2553, 37, 11, -28, 36, 30, 43, 30, 38, 48, 50, 53
345419786, 6768, 11863, -9042, 354, 1841, 2265, -2553, 37, 11, -28, 36, 30, 43, 30, 38, 48, 50, 53
345420718, 6763, 11869, -9039, 358, 1853, 2241, -2543, 53, 17, -5, 36, 30, 43, 30, 38, 48, 50, 53
345421518, 6763, 11869, -9039, 358, 1853, 2241, -2543, 53, 17, -5, 33, 32, 39, 26, 34, 46, 49, 53
345422359, 6763, 11869, -9039, 358, 1853, 2241, -2543, 53, 17, -5, 33, 32, 39, 26, 34, 46, 49, 53
345427338, 6763, 11869, -9039, 358, 1853, 2241, -2543, 53, 17, -5, 33, 32, 39, 26, 34, 46, 49, 53
345428177, 6763, 11869, -9039, 358, 1853, 2241, -2543, 53, 17, -5, 33, 32, 39, 26, 34, 46, 49, 53
345428985, 6763, 11869, -9039, 358, 1853, 2241, -2543, 53, 17, -5, 33, 32, 39, 26, 34, 46, 49, 53
345429828, 6763, 11869, -9039, 358, 1853, 2241, -2543, 53, 17, -5, 33, 32, 39, 26, 34, 46, 49, 53
345434804, 6763, 11869, -9039, 358, 1853, 2241, -2543, 53, 17, -5, 33, 32, 39, 26, 34, 46, 49, 53
345435675, 6763, 11869, -9039, 358, 1853, 2241, -2543, 53, 17, -5, 33, 32, 39, 26, 34, 46, 49, 53
345436394, 6763, 11869, -9039, 358, 1853, 2241, -2543, 53, 17, -5, 33, 32, 39, 26, 34, 46, 49, 53
345437238, 6763, 11869, -9039, 358, 1853, 2241, -2543, 53, 17, -5, 33, 32, 39, 26, 34, 46, 49, 53
345442326, 6763, 11869, -9039, 358, 1853, 2241, -2543, 53, 17, -5, 33, 32, 39, 26, 34, 46, 49, 53
345443262, 6761, 11870, -9039, 361, 1844, 2257, -2542, 36, 20, 28, 33, 32, 39, 26, 34, 46, 49, 53
345444079, 6761, 11870, -9039, 361, 1844, 2257, -2542, 36, 20, 28, 38, 36, 34, 26, 40, 44, 38, 53
345444876, 6761, 11870, -9039, 361, 1844, 2257, -2542, 36, 20, 28, 38, 36, 34, 26, 40, 44, 38, 53
345449868, 6761, 11870, -9039, 361, 1844, 2257, -2542, 36, 20, 28, 38, 36, 34, 26, 40, 44, 38, 53
345450662, 6761, 11870, -9039, 361, 1844, 2257, -2542, 36, 20, 28, 38, 36, 34, 26, 40, 44, 38, 53
345451502, 6761, 11870, -9039, 361, 1844, 2257, -2542, 36, 20, 28, 38, 36, 34, 26, 40, 44, 38, 53
345452319, 6761, 11870, -9039, 361, 1844, 2257, -2542, 36, 20, 28, 38, 36, 34, 26, 40, 44, 38, 53
345455982, 6761, 11870, -9039, 361, 1844, 2257, -2542, 36, 20, 28, 38, 36, 34, 26, 40, 44, 38, 53
345456776, 6761, 11870, -9039, 361, 1844, 2257, -2542, 36, 20, 28, 49, 48, 129, 63, 53, 53, 132, 172
345457677, 6761, 11870, -9039, 361, 1844, 2257, -2542, 36, 20, 28, 49, 48, 129, 63, 53, 53, 132, 172
345472365, 6850, 11760, -9113, 379, 1831, 2393, -2578, 19, -7, -86, 49, 48, 129, 63, 53, 53, 132, 172
345473215, 6850, 11760, -9113, 379, 1831, 2393, -2578, 19, -7, -86, 49, 48, 129, 63, 53, 53, 132, 172
345474040, 6770, 11853, -9053, 375, 1893, 2251, -2536, -15, 29, 95, 49, 48, 129, 63, 53, 53, 132, 172
345474864, 6770, 11853, -9053, 375, 1893, 2251, -2536, -15, 29, 95, 42, 44, 42, 31, 45, 45, 39, 45
345479800, 6770, 11853, -9053, 375, 1893, 2251, -2536, -15, 29, 95, 42, 44, 42, 31, 45, 45, 39, 45
345480768, 6781, 11838, -9064, 384, 1895, 2230, -2530, -41, 46, 123, 42, 44, 42, 31, 45, 45, 39, 45
345481543, 6781, 11838, -9064, 384, 1895, 2230, -2530, -41, 46, 123, 43, 43, 48, 32, 46, 47, 37, 43
345482395, 6781, 11838, -9064, 384, 1895, 2230, -2530, -41, 46, 123, 43, 43, 48, 32, 46, 47, 37, 43
345487387, 6781, 11838, -9064, 384, 1895, 2230, -2530, -41, 46, 123, 43, 43, 48, 32, 46, 47, 37, 43
345488202, 6781, 11838, -9064, 384, 1895, 2230, -2530, -41, 46, 123, 43, 43, 48, 32, 46, 47, 37, 43
345488988, 6781, 11838, -9064, 384, 1895, 2230, -2530, -41, 46, 123, 43, 43, 48, 32, 46, 47, 37, 43
345489839, 6781, 11838, -9064, 384, 1895, 2230, -2530, -41, 46, 123, 43, 43, 48, 32, 46, 47, 37, 43
345494763, 6781, 11838, -9064, 384, 1895, 2230, -2530, -41, 46, 123, 43, 43, 48, 32, 46, 47, 37, 43
345495605, 6781, 11838, -9064, 384, 1895, 2230, -2530, -41, 46, 123, 43, 43, 48, 32, 46, 47, 37, 43
345496413, 6781, 11838, -9064, 384, 1895, 2230, -2530, -41, 46, 123, 43, 43, 48, 32, 46, 47, 37, 43
345497235, 6781, 11838, -9064, 384, 1895, 2230, -2530, -41, 46, 123, 43, 43, 48, 32, 46, 47, 37, 43
345502262, 6781, 11838, -9064, 384, 1895, 2230, -2530, -41, 46, 123, 43, 43, 48, 32, 46, 47, 37, 43
345503256, 6788, 11823, -9078, 397, 1920, 2241, -2550, -18, 43, 136, 43, 43, 48, 32, 46, 47, 37, 43
345504040, 6788, 11823, -9078, 397, 1920, 2241, -2550, -18, 43, 136, 52, 41, 51, 38, 44, 50, 34, 40
345504854, 6788, 11823, -9078, 397, 1920, 2241, -2550, -18, 43, 136, 52, 41, 51, 38, 44, 50, 34, 40
345509850, 6788, 11823, -9078, 397, 1920, 2241, -2550, -18, 43, 136, 52, 41, 51, 38, 44, 50, 34, 40
345510691, 6788, 11823, -9078, 397, 1920, 2241, -2550, -18, 43, 136, 52, 41, 51, 38, 44, 50, 34, 40
345511466, 6788, 11823, -9078, 397, 1920, 2241, -2550, -18, 43, 136, 52, 41, 51, 38, 44, 50, 34, 40
345512286, 6788, 11823, -9078, 397, 1920, 2241, -2550, -18, 43, 136, 52, 41, 51, 38, 44, 50, 34, 40
345517236, 6788, 11823, -9078, 397, 1920, 2241, -2550, -18, 43, 136, 52, 41, 51, 38, 44, 50, 34, 40
345518084, 6788, 11823, -9078, 397, 1920, 2241, -2550, -18, 43, 136, 52, 41, 51, 38, 44, 50, 34, 40
345518863, 6788, 11823, -9078, 397, 1920, 2241, -2550, -18, 43, 136, 52, 41, 51, 38, 44, 50, 34, 40
345519678, 6788, 11823, -9078, 397, 1920, 2241, -2550, -18, 43, 136, 52, 41, 51, 38, 44, 50, 34, 40
345524788, 6788, 11823, -9078, 397, 1920, 2241, -2550, -18, 43, 136, 52, 41, 51, 38, 44, 50, 34, 40
345525737, 6796, 11805, -9094, 414, 1933, 2247, -2535, -13, 57, 163, 52, 41, 51, 38, 44, 50, 34, 40
345526544, 6796, 11805, -9094, 414, 1933, 2247, -2535, -13, 57, 163, 51, 39, 58, 38, 39, 49, 41, 34
345527365, 6796, 11805, -9094, 414, 1933, 2247, -2535, -13, 57, 163, 51, 39, 58, 38, 39, 49, 41, 34
345532398, 6796, 11805, -9094, 414, 1933, 2247, -2535, -13, 57, 163, 51, 39, 58, 38, 39, 49, 41, 34
345533168, 6796, 11805, -9094, 414, 1933, 2247, -2535, -13, 57, 163, 51, 39, 58, 38, 39, 49, 41, 34
345533988, 6796, 11805, -9094, 414, 1933, 2247, -2535, -13, 57, 163, 51, 39, 58, 38, 39, 49, 41, 34
345534813, 6796, 11805, -9094, 414, 1933, 2247, -2535, -13, 57, 163, 51, 39, 58, 38, 39, 49, 41, 34
345539806, 6796, 11805, -9094, 414, 1933, 2247, -2535, -13, 57, 163, 51, 39, 58, 38, 39, 49, 41, 34
345540704, 6796, 11805, -9094, 414, 1933, 2247, -2535, -13, 57, 163, 51, 39, 58, 38, 39, 49, 41, 34
345541341, 6796, 11805, -9094, 414, 1933, 2247, -2535, -13, 57, 163, 51, 39, 58, 38, 39, 49, 41, 34
345542253, 6796, 11805, -9094, 414, 1933, 2247, -2535, -13, 57, 163, 51, 39, 58, 38, 39, 49, 41, 34
345547288, 6796, 11805, -9094, 414, 1933, 2247, -2535, -13, 57, 163, 51, 39, 58, 38, 39, 49, 41, 34
345548258, 6808, 11788, -9108, 428, 1920, 2312, -2550, -14, 72, 176, 51, 39, 58, 38, 39, 49, 41, 34
345549060, 6808, 11788, -9108, 428, 1920, 2312, -2550, -14, 72, 176, 52, 36, 89, 40, 44, 51, 43, 34
345549903, 6808, 11788, -9108, 428, 1920, 2312, -2550, -14, 72, 176, 52, 36, 89, 40, 44, 51, 43, 34
345554864, 6808, 11788, -9108, 428, 1920, 2312, -2550, -14, 72, 176, 52, 36, 89, 40, 44, 51, 43, 34
345555730, 6808, 11788, -9108, 428, 1920, 2312, -2550, -14, 72, 176, 52, 36, 89, 40, 44, 51, 43, 34
345556494, 6808, 11788, -9108, 428, 1920, 2312, -2550, -14, 72, 176, 52, 36, 89, 40, 44, 51, 43, 34
345557315, 6808, 11788, -9108, 428, 1920, 2312, -2550, -14, 72, 176, 52, 36, 89, 40, 44, 51, 43, 34
345562265, 6808, 11788, -9108, 428, 1920, 2312, -2550, -14, 72, 176, 52, 36, 89, 40, 44, 51, 43, 34
345563062, 6808, 11788, -9108, 428, 1920, 2312, -2550, -14, 72, 176, 52, 36, 89, 40, 44, 51, 43, 34
345563886, 6808, 11788, -9108, 428, 1920, 2312, -2550, -14, 72, 176, 52, 36, 89, 40, 44, 51, 43, 34
345564717, 6808, 11788, -9108, 428, 1920, 2312, -2550, -14, 72, 176, 52, 36, 89, 40, 44, 51, 43, 34
345569769, 6808, 11788, -9108, 428, 1920, 2312, -2550, -14, 72, 176, 52, 36, 89, 40, 44, 51, 43, 34
345570738, 6822, 11770, -9120, 434, 1893, 2332, -2549, -43, 68, 168, 52, 36, 89, 40, 44, 51, 43, 34
345571517, 6822, 11770, -9120, 434, 1893, 2332, -2549, -43, 68, 168, 49, 33, 91, 40, 45, 49, 45, 36
345572356, 6822, 11770, -9120, 434, 1893, 2332, -2549, -43, 68, 168, 49, 33, 91, 40, 45, 49, 45, 36
345577346, 6822, 11770, -9120, 434, 1893, 2332, -2549, -43, 68, 168, 49, 33, 91, 40, 45, 49, 45, 36
345578171, 6822, 11770, -9120, 434, 1893, 2332, -2549, -43, 68, 168, 49, 33, 91, 40, 45, 49, 45, 36
345578963, 6822, 11770, -9120, 434, 1893, 2332, -2549, -43, 68, 168, 49, 33, 91, 40, 45, 49, 45, 36
345579828, 6822, 11770, -9120, 434, 1893, 2332, -2549, -43, 68, 168, 49, 33, 91, 40, 45, 49, 45, 36
345584730, 6822, 11770, -9120, 434, 1893, 2332, -2549, -43, 68, 168, 49, 33, 91, 40, 45, 49, 45, 36
345585556, 6822, 11770, -9120, 434, 1893, 2332, -2549, -43, 68, 168, 49, 33, 91, 40, 45, 49, 45, 36
345586369, 6822, 11770, -9120, 434, 1893, 2332, -2549, -43, 68, 168, 49, 33, 91, 40, 45, 49, 45, 36
345587215, 6822, 11770, -9120, 434, 1893, 2332, -2549, -43, 68, 168, 49, 33, 91, 40, 45, 49, 45, 36
345592320, 6822, 11770, -9120, 434, 1893, 2332, -2549, -43, 68, 168, 49, 33, 91, 40, 45, 49, 45, 36
345593267, 6833, 11753, -9133, 440, 1867, 2286, -2558, -46, 72, 173, 49, 33, 91, 40, 45, 49, 45, 36
345594081, 6833, 11753, -9133, 440, 1867, 2286, -2558, -46, 72, 173, 50, 36, 91, 39, 47, 54, 43, 39
345594875, 6833, 11753, -9133, 440, 1867, 2286, -2558, -46, 72, 173, 50, 36, 91, 39, 47, 54, 43, 39
345599891, 6833, 11753, -9133, 440, 1867, 2286, -2558, -46, 72, 173, 50, 36, 91, 39, 47, 54, 43, 39
345600687, 6833, 11753, -9133, 440, 1867, 2286, -2558, -46, 72, 173, 50, 36, 91, 39, 47, 54, 43, 39
345601530, 6833, 11753, -9133, 440, 1867, 2286, -2558, -46, 72, 173, 50, 36, 91, 39, 47, 54, 43, 39
345602318, 6833, 11753, -9133, 440, 1867, 2286, -2558, -46, 72, 173, 50, 36, 91, 39, 47, 54, 43, 39
345607276, 6833, 11753, -9133, 440, 1867, 2286, -2558, -46, 72, 173, 50, 36, 91, 39, 47, 54, 43, 39
345608082, 6833, 11753, -9133, 440, 1867, 2286, -2558, -46, 72, 173, 50, 36, 91, 39, 47, 54, 43, 39
345608902, 6833, 11753, -9133, 440, 1867, 2286, -2558, -46, 72, 173, 50, 36, 91, 39, 47, 54, 43, 39
345609712, 6833, 11753, -9133, 440, 1867, 2286, -2558, -46, 72, 173, 50, 36, 91, 39, 47, 54, 43, 39
345614799, 6833, 11753, -9133, 440, 1867, 2286, -2558, -46, 72, 173, 50, 36, 91, 39, 47, 54, 43, 39
345615715, 6843, 11738, -9145, 446, 1867, 2330, -2567, -26, 74, 171, 50, 36, 91, 39, 47, 54, 43, 39
345616571, 6843, 11738, -9145, 446, 1867, 2330, -2567, -26, 74, 171, 41, 39, 94, 39, 47, 53, 42, 40
345617345, 6843, 11738, -9145, 446, 1867, 2330, -2567, -26, 74, 171, 41, 39, 94, 39, 47, 53, 42, 40
345622404, 6843, 11738, -9145, 446, 1867, 2330, -2567, -26, 74, 171, 41, 39, 94, 39, 47, 53, 42, 40
345623166, 6843, 11738, -9145, 446, 1867, 2330, -2567, -26, 74, 171, 41, 39, 94, 39, 47, 53, 42, 40
345624015, 6843, 11738, -9145, 446, 1867, 2330, -2567, -26, 74, 171, 41, 39, 94, 39, 47, 53, 42, 40
345624789, 6843, 11738, -9145, 446, 1867, 2330, -2567, -26, 74, 171, 41, 39, 94, 39, 47, 53, 42, 40
345629779, 6843, 11738, -9145, 446, 1867, 2330, -2567, -26, 74, 171, 41, 39, 94, 39, 47, 53, 42, 40
345630569, 6843, 11738, -9145, 446, 1867, 2330, -2567, -26, 74, 171, 41, 39, 94, 39, 47, 53, 42, 40
345631390, 6843, 11738, -9145, 446, 1867, 2330, -2567, -26, 74, 171, 41, 39, 94, 39, 47, 53, 42, 40
345632194, 6843, 11738, -9145, 446, 1867, 2330, -2567, -26, 74, 171, 41, 39, 94, 39, 47, 53, 42, 40
345637262, 6843, 11738, -9145, 446, 1867, 2330, -2567, -26, 74, 171, 41, 39, 94, 39, 47, 53, 42, 40
345638230, 6850, 11727, -9154, 452, 1872, 2349, -2570, 0, 75, 152, 41, 39, 94, 39, 47, 53, 42, 40
345639013, 6850, 11727, -9154, 452, 1872, 2349, -2570, 0, 75, 152, 48, 40, 102, 42, 47, 55, 35, 40
345639853, 6850, 11727, -9154, 452, 1872, 2349, -2570, 0, 75, 152, 48, 40, 102, 42, 47, 55, 35, 40
345644862, 6850, 11727, -9154, 452, 1872, 2349, -2570, 0, 75, 152, 48, 40, 102, 42, 47, 55, 35, 40
345645674, 6850, 11727, -9154, 452, 1872, 2349, -2570, 0, 75, 152, 48, 40, 102, 42, 47, 55, 35, 40
345646466, 6850, 11727, -9154, 452, 1872, 2349, -2570, 0, 75, 152, 48, 40, 102, 42, 47, 55, 35, 40
345647292, 6850, 11727, -9154, 452, 1872, 2349, -2570, 0, 75, 152, 48, 40, 102, 42, 47, 55, 35, 40
345652257, 6850, 11727, -9154, 452, 1872, 2349, -2570, 0, 75, 152, 48, 40, 102, 42, 47, 55, 35, 40
345653039, 6850, 11727, -9154, 452, 1872, 2349, -2570, 0, 75, 152, 48, 40, 102, 42, 47, 55, 35, 40
345653890, 6850, 11727, -9154, 452, 1872, 2349, -2570, 0, 75, 152, 48, 40, 102, 42, 47, 55, 35, 40
345654663, 6850, 11727, -9154, 452, 1872, 2349, -2570, 0, 75, 152, 48, 40, 102, 42, 47, 55, 35, 40
345659816, 6850, 11727, -9154, 452, 1872, 2349, -2570, 0, 75, 152, 48, 40, 102, 42, 47, 55, 35, 40
345660740, 6859, 11718, -9158, 449, 1825, 2374, -2580, -28, 76, 131, 48, 40, 102, 42, 47, 55, 35, 40
345661584, 6859, 11718, -9158, 449, 1825, 2374, -2580, -28, 76, 131, 58, 43, 133, 64, 49, 53, 108, 152
345662381, 6859, 11718, -9158, 449, 1825, 2374, -2580, -28, 76, 131, 58, 43, 133, 64, 49, 53, 108, 152
345667390, 6859, 11718, -9158, 449, 1825, 2374, -2580, -28, 76, 131, 58, 43, 133, 64, 49, 53, 108, 152
345668188, 6859, 11718, -9158, 449, 1825, 2374, -2580, -28, 76, 131, 58, 43, 133, 64, 49, 53, 108, 152
345669017, 6859, 11718, -9158, 449, 1825, 2374, -2580, -28, 76, 131, 58, 43, 133, 64, 49, 53, 108, 152
345669812, 6859, 11718, -9158, 449, 1825, 2374, -2580, -28, 76, 131, 58, 43, 133, 64, 49, 53, 108, 152
345674789, 6859, 11718, -9158, 449, 1825, 2374, -2580, -28, 76, 131, 58, 43, 133, 64, 49, 53, 108, 152
345675565, 6859, 11718, -9158, 449, 1825, 2374, -2580, -28, 76, 131, 58, 43, 133, 64, 49, 53, 108, 152
345676387, 6859, 11718, -9158, 449, 1825, 2374, -2580, -28, 76, 131, 58, 43, 133, 64, 49, 53, 108, 152
345677213, 6859, 11718, -9158, 449, 1825, 2374, -2580, -28, 76, 131, 58, 43, 133, 64, 49, 53, 108, 152
345682290, 6859, 11718, -9158, 449, 1825, 2374, -2580, -28, 76, 131, 58, 43, 133, 64, 49, 53, 108, 152
345683215, 6874, 11711, -9157, 441, 1827, 2369, -2565, -60, 89, 87, 58, 43, 133, 64, 49, 53, 108, 152
345684027, 6874, 11711, -9157, 441, 1827, 2369, -2565, -60, 89, 87, 58, 46, 136, 63, 47, 55, 122, 166
345684838, 6874, 11711, -9157, 441, 1827, 2369, -2565, -60, 89, 87, 58, 46, 136, 63, 47, 55, 122, 166
345689891, 6874, 11711, -9157, 441, 1827, 2369, -2565, -60, 89, 87, 58, 46, 136, 63, 47, 55, 122, 166
345690646, 6874, 11711, -9157, 441, 1827, 2369, -2565, -60, 89, 87, 58, 46, 136, 63, 47, 55, 122, 166
345691441, 6874, 11711, -9157, 441, 1827, 2369, -2565, -60, 89, 87, 58, 46, 136, 63, 47, 55, 122, 166
345692262, 6874, 11711, -9157, 441, 1827, 2369, -2565, -60, 89, 87, 58, 46, 136, 63, 47, 55, 122, 166
345694987, 6874, 11711, -9157, 441, 1827, 2369, -2565, -60, 89, 87, 58, 46, 136, 63, 47, 55, 122, 166
345704797, 6874, 11711, -9157, 441, 1827, 2369, -2565, -60, 89, 87, 58, 46, 136, 63, 47, 55, 122, 166
345705662, 6874, 11711, -9157, 441, 1827, 2369, -2565, -60, 89, 87, 58, 46, 136, 63, 47, 55, 122, 166
345706445, 6874, 11711, -9157, 441, 1827, 2369, -2565, -60, 89, 87, 58, 46, 136, 63, 47, 55, 122, 166
345707238, 6874, 11711, -9157, 441, 1827, 2369, -2565, -60, 89, 87, 58, 46, 136, 63, 47, 55, 122, 166
345712394, 6871, 11718, -9149, 433, 1819, 2345, -2607, 21, 52, 11, 58, 46, 136, 63, 47, 55, 122, 166
345713188, 6871, 11718, -9149, 433, 1819, 2345, -2607, 21, 52, 11, 56, 47, 136, 65, 48, 54, 127, 167
345714054, 6871, 11718, -9149, 433, 1819, 2345, -2607, 21, 52, 11, 56, 47, 136, 65, 48, 54, 127, 167
345714835, 6871, 11718, -9149, 433, 1819, 2345, -2607, 21, 52, 11, 56, 47, 136, 65, 48, 54, 127, 167
345718491, 6871, 11718, -9149, 433, 1819, 2345, -2607, 21, 52, 11, 56, 47, 136, 65, 48, 54, 127, 167
345719262, 6871, 11718, -9149, 433, 1819, 2345, -2607, 21, 52, 11, 92, 78, 124, 136, 65, 155, 250, 266
345720086, 6871, 11718, -9149, 433, 1819, 2345, -2607, 21, 52, 11, 92, 78, 124, 136, 65, 155, 250, 266
345724715, 6724, 12106, -8753, -221, 1543, 2329, -2436, -277, -205, -310, 92, 78, 124, 136, 65, 155, 250, 266
345740315, 6724, 12106, -8753, -221, 1543, 2329, -2436, -277, -205, -310, 195, 100, 162, 371, 108, 266, 263, 331
345741113, 6724, 12106, -8753, -221, 1543, 2329, -2436, -277, -205, -310, 195, 100, 162, 371, 108, 266, 263, 331
345747292, 6760, 12096, -8737, -292, 1662, 2101, -2292, -412, -236, -294, 195, 100, 162, 371, 108, 266, 263, 331
345755238, 6760, 12096, -8737, -292, 1662, 2101, -2292, -412, -236, -294, 238, 134, 182, 549, 280, 374, 359, 434
345756062, 6760, 12096, -8737, -292, 1662, 2101, -2292, -412, -236, -294, 238, 134, 182, 549, 280, 374, 359, 434
345769664, 6847, 12006, -8789, -364, 1775, 2378, -2878, -940, -143, 243, 238, 134, 182, 549, 280, 374, 359, 434
345777807, 6847, 12006, -8789, -364, 1775, 2378, -2878, -940, -143, 243, 307, 150, 239, 753, 327, 449, 567, 598
345778663, 6847, 12006, -8789, -364, 1775, 2378, -2878, -940, -143, 243, 307, 150, 239, 753, 327, 449, 567, 598
345784771, 6844, 11969, -8843, -341, 2020, 2005, -2297, -84, -240, 142, 307, 150, 239, 753, 327, 449, 567, 598
345800325, 6844, 11969, -8843, -341, 2020, 2005, -2297, -84, -240, 142, 446, 223, 288, 922, 386, 468, 670, 903
345801089, 6844, 11969, -8843, -341, 2020, 2005, -2297, -84, -240, 142, 446, 223, 288, 922, 386, 468, 670, 903
345807252, 6705, 12087, -8790, -330, 1725, 3185, -2869, 1055, -225, -437, 446, 223, 288, 922, 386, 468, 670, 903
345815237, 6705, 12087, -8790, -330, 1725, 3185, -2869, 1055, -225, -437, 470, 265, 311, 1031, 420, 539, 772, 928
345816080, 6705, 12087, -8790, -330, 1725, 3185, -2869, 1055, -225, -437, 470, 265, 311, 1031, 420, 539, 772, 928
345829666, 6702, 12104, -8767, -366, 1597, 1927, -2608, -261, -107, -354, 470, 265, 311, 1031, 420, 539, 772, 928
345837817, 6702, 12104, -8767, -366, 1597, 1927, -2608, -261, -107, -354, 461, 304, 404, 1191, 517, 534, 849, 1016
345838664, 6702, 12104, -8767, -366, 1597, 1927, -2608, -261, -107, -354, 461, 304, 404, 1191, 517, 534, 849, 1016
345844765, 6660, 12124, -8773, -361, 1578, 2210, -2718, 112, -93, -85, 461, 304, 404, 1191, 517, 534, 849, 1016
345860269, 6660, 12124, -8773, -361, 1578, 2210, -2718, 112, -93, -85, 467, 321, 423, 1215, 481, 557, 830, 1075
345861089, 6660, 12124, -8773, -361, 1578, 2210, -2718, 112, -93, -85, 467, 321, 423, 1215, 481, 557, 830, 1075
345867262, 6648, 12145, -8755, -262, 2081, 2056, -2773, 194, 271, -165, 467, 321, 423, 1215, 481, 557, 830, 1075
345875323, 6648, 12145, -8755, -262, 2081, 2056, -2773, 194, 271, -165, 436, 330, 415, 1303, 513, 515, 775, 1012
345876089, 6648, 12145, -8755, -262, 2081, 2056, -2773, 194, 271, -165, 436, 330, 415, 1303, 513, 515, 775, 1012
345889679, 6581, 12246, -8669, -7, 2463, 4966, -2097, 1263, 1063, -88, 436, 330, 415, 1303, 513, 515, 775, 1012
345897773, 6581, 12246, -8669, -7, 2463, 4966, -2097, 1263, 1063, -88, 303, 309, 509, 1249, 505, 523, 713, 801
345898679, 6581, 12246, -8669, -7, 2463, 4966, -2097, 1263, 1063, -88, 303, 309, 509, 1249, 505, 523, 713, 801
345904740, 6974, 12289, -8292, -64, -1731, -391, -5818, -1714, 1770, -1832, 303, 309, 509, 1249, 505, 523, 713, 801
345920291, 6974, 12289, -8292, -64, -1731, -391, -5818, -1714, 1770, -1832, 295, 354, 678, 1186, 484, 452, 620, 789
345921087, 6974, 12289, -8292, -64, -1731, -391, -5818, -1714, 1770, -1832, 295, 354, 678, 1186, 484, 452, 620, 789
345927256, 7123, 12089, -8458, -51, 3260, -1104, -1159, -1063, 81, 1299, 295, 354, 678, 1186, 484, 452, 620, 789
345935265, 7123, 12089, -8458, -51, 3260, -1104, -1159, -1063, 81, 1299, 266, 346, 655, 973, 378, 413, 491, 627
345936095, 7123, 12089, -8458, -51, 3260, -1104, -1159, -1063, 81, 1299, 266, 346, 655, 973, 378, 413, 491, 627
345949590, 6686, 12405, -8356, 160, 1911, 3161, -2686, 3245, -155, -801, 266, 346, 655, 973, 378, 413, 491, 627
345957796, 6686, 12405, -8356, 160, 1911, 3161, -2686, 3245, -155, -801, 256, 332, 644, 854, 342, 324, 488, 505
345958567, 6686, 12405, -8356, 160, 1911, 3161, -2686, 3245, -155, -801, 256, 332, 644, 854, 342, 324, 488, 505
345964719, 6677, 12452, -8292, 199, 1708, 3477, -2861, 593, 332, -56, 256, 332, 644, 854, 342, 324, 488, 505
345980262, 6677, 12452, -8292, 199, 1708, 3477, -2861, 593, 332, -56, 238, 324, 654, 493, 247, 328, 389, 458
345981063, 6677, 12452, -8292, 199, 1708, 3477, -2861, 593, 332, -56, 238, 324, 654, 493, 247, 328, 389, 458
345987257, 6781, 12437, -8230, 167, 1654, 2078, -2406, -631, 271, -375, 238, 324, 654, 493, 247, 328, 389, 458
345995264, 6781, 12437, -8230, 167, 1654, 2078, -2406, -631, 271, -375, 228, 309, 575, 323, 175, 305, 341, 376
345996129, 6781, 12437, -8230, 167, 1654, 2078, -2406, -631, 271, -375, 228, 309, 575, 323, 175, 305, 341, 376
346009665, 6783, 12470, -8179, 120, 1314, 2264, -2400, -65, 5, -337, 228, 309, 575, 323, 175, 305, 341, 376
346017770, 6783, 12470, -8179, 120, 1314, 2264, -2400, -65, 5, -337, 192, 224, 399, 251, 161, 300, 294, 338
346018587, 6783, 12470, -8179, 120, 1314, 2264, -2400, -65, 5, -337, 192, 224, 399, 251, 161, 300, 294, 338
346024714, 6734, 12510, -8159, 85, 1397, 2254, -2374, 212, -205, -238, 192, 224, 399, 251, 161, 300, 294, 338
346040251, 6734, 12510, -8159, 85, 1397, 2254, -2374, 212, -205, -238, 188, 176, 346, 298, 148, 312, 282, 346
346041064, 6734, 12510, -8159, 85, 1397, 2254, -2374, 212, -205, -238, 188, 176, 346, 298, 148, 312, 282, 346
346047256, 6701, 12540, -8141, 46, 1506, 2351, -2530, 96, -195, -231, 188, 176, 346, 298, 148, 312, 282, 346
346055239, 6701, 12540, -8141, 46, 1506, 2351, -2530, 96, -195, -231, 131, 151, 413, 322, 138, 272, 218, 258
346056065, 6701, 12540, -8141, 46, 1506, 2351, -2530, 96, -195, -231, 131, 151, 413, 322, 138, 272, 218, 258
346069694, 6715, 12518, -8162, -9, 1642, 2052, -2547, -393, -274, -85, 131, 151, 413, 322, 138, 272, 218, 258
346077767, 6715, 12518, -8162, -9, 1642, 2052, -2547, -393, -274, -85, 130, 132, 393, 350, 126, 237, 177, 255
346078589, 6715, 12518, -8162, -9, 1642, 2052, -2547, -393, -274, -85, 130, 132, 393, 350, 126, 237, 177, 255
346084753, 6695, 12504, -8201, -45, 1751, 2060, -2650, -210, -354, -26, 130, 132, 393, 350, 126, 237, 177, 255
346100254, 6695, 12504, -8201, -45, 1751, 2060, -2650, -210, -354, -26, 122, 112, 383, 352, 115, 212, 168, 249
346101063, 6695, 12504, -8201, -45, 1751, 2060, -2650, -210, -354, -26, 122, 112, 383, 352, 115, 212, 168, 249
346107256, 6682, 12495, -8224, -72, 1851, 2300, -2630, -102, -304, -72, 122, 112, 383, 352, 115, 212, 168, 249
346115245, 6682, 12495, -8224, -72, 1851, 2300, -2630, -102, -304, -72, 107, 81, 330, 331, 98, 212, 153, 225
346116103, 6682, 12495, -8224, -72, 1851, 2300, -2630, -102, -304, -72, 107, 81, 330, 331, 98, 212, 153, 225
346129730, 6690, 12486, -8232, -105, 1749, 2248, -2603, -231, -209, -128, 107, 81, 330, 331, 98, 212, 153, 225
346137762, 6690, 12486, -8232, -105, 1749, 2248, -2603, -231, -209, -128, 89, 78, 328, 272, 88, 213, 168, 201
346138569, 6690, 12486, -8232, -105, 1749, 2248, -2603, -231, -209, -128, 89, 78, 328, 272, 88, 213, 168, 201
346144715, 6687, 12484, -8236, -133, 1645, 2221, -2604, -158, -169, -126, 89, 78, 328, 272, 88, 213, 168, 201
346160275, 6687, 12484, -8236, -133, 1645, 2221, -2604, -158, -169, -126, 88, 72, 217, 238, 84, 204, 197, 168
346161080, 6687, 12484, -8236, -133, 1645, 2221, -2604, -158, -169, -126, 88, 72, 217, 238, 84, 204, 197, 168
346167191, 6675, 12485, -8244, -143, 1653, 2240, -2605, -53, -136, -80, 88, 72, 217, 238, 84, 204, 197, 168
346174606, 6675, 12485, -8244, -143, 1653, 2240, -2605, -53, -136, -80, 68, 60, 182, 188, 85, 187, 187, 155
346182072, 6675, 12485, -8244, -143, 1653, 2240, -2605, -53, -136, -80, 68, 60, 182, 188, 85, 187, 187, 155
346189721, 6661, 12487, -8253, -149, 1622, 2255, -2603, -27, -119, -56, 68, 60, 182, 188, 85, 187, 187, 155
346197739, 6661, 12487, -8253, -149, 1622, 2255, -2603, -27, -119, -56, 65, 62, 163, 155, 83, 177, 185, 134
346198590, 6661, 12487, -8253, -149, 1622, 2255, -2603, -27, -119, -56, 65, 62, 163, 155, 83, 177, 185, 134
346204716, 6649, 12486, -8264, -159, 1607, 2293, -2577, -28, -136, -31, 65, 62, 163, 155, 83, 177, 185, 134
346220266, 6649, 12486, -8264, -159, 1607, 2293, -2577, -28, -136, -31, 60, 57, 141, 94, 86, 165, 169, 125
346221039, 6649, 12486, -8264, -159, 1607, 2293, -2577, -28, -136, -31, 60, 57, 141, 94, 86, 165, 169, 125
346227194, 6644, 12484, -8270, -163, 1608, 2262, -2549, -39, -89, -48, 60, 57, 141, 94, 86, 165, 169, 125
346234588, 6644, 12484, -8270, -163, 1608, 2262, -2549, -39, -89, -48, 55, 49, 115, 72, 74, 121, 148, 91
346242751, 6644, 12484, -8270, -163, 1608, 2262, -2549, -39, -89, -48, 55, 49, 115, 72, 74, 121, 148, 91
346243690, 6640, 12483, -8276, -162, 1566, 2221, -2548, -45, -46, -31, 55, 49, 115, 72, 74, 121, 148, 91
346257755, 6640, 12483, -8276, -162, 1566, 2221, -2548, -45, -46, -31, 58, 42, 106, 62, 65, 114, 97, 78
346258565, 6640, 12483, -8276, -162, 1566, 2221, -2548, -45, -46, -31, 58, 42, 106, 62, 65, 114, 97, 78
346264743, 6636, 12480, -8283, -162, 1578, 2257, -2546, -32, -56, -16, 58, 42, 106, 62, 65, 114, 97, 78
346280213, 6636, 12480, -8283, -162, 1578, 2257, -2546, -32, -56, -16, 56, 41, 88, 58, 56, 116, 90, 71
346281066, 6636, 12480, -8283, -162, 1578, 2257, -2546, -32, -56, -16, 56, 41, 88, 58, 56, 116, 90, 71
346287234, 6627, 12481, -8290, -155, 1572, 2249, -2543, 17, -46, -12, 56, 41, 88, 58, 56, 116, 90, 71
346303463, 6627, 12481, -8290, -155, 1572, 2249, -2543, 17, -46, -12, 50, 38, 71, 56, 49, 103, 74, 62
346304246, 6627, 12481, -8290, -155, 1572, 2249, -2543, 17, -46, -12, 50, 38, 71, 56, 49, 103, 74, 62
346305189, 6613, 12483, -8298, -138, 1604, 2255, -2553, 74, -23, 5, 50, 38, 71, 56, 49, 103, 74, 62
346317785, 6613, 12483, -8298, -138, 1604, 2255, -2553, 74, -23, 5, 51, 38, 66, 49, 46, 98, 69, 68
346318663, 6613, 12483, -8298, -138, 1604, 2255, -2553, 74, -23, 5, 51, 38, 66, 49, 46, 98, 69, 68
346324782, 6608, 12483, -8301, -115, 1642, 2315, -2540, 73, 22, 7, 51, 38, 66, 49, 46, 98, 69, 68
346340263, 6608, 12483, -8301, -115, 1642, 2315, -2540, 73, 22, 7, 49, 46, 73, 43, 47, 91, 66, 65
346341104, 6608, 12483, -8301, -115, 1642, 2315, -2540, 73, 22, 7, 49, 46, 73, 43, 47, 91, 66, 65
346347226, 6607, 12487, -8297, -93, 1576, 2297, -2518, 69, 69, -10, 49, 46, 73, 43, 47, 91, 66, 65
