Timestamp, Orientation x, Orientation y, Orientation z, Orientation w, Acceleration x, Acceleration y, Acceleration z, Rotation x, Rotation y, Rotation z, EMG 0, EMG 1, EMG 2, EMG 3, EMG 4, EMG 5, EMG 6, EMG 7
439749963, 3909, 7687, -10018, 9680, 4015, 718, -2181, 5, 2, -10, 0, 0, 0, 0, 0, 0, 0, 0
439750675, 3909, 7687, -10018, 9680, 4018, 712, -2196, -6, -1, -4, 0, 0, 0, 0, 0, 0, 0, 0
439771686, 3909, 7687, -10018, 9680, 4012, 706, -2178, -14, -5, -6, 0, 0, 0, 0, 0, 0, 0, 0
439801692, 3909, 7687, -10018, 9680, 4018, 719, -2208, 0, -5, -1, 0, 0, 0, 0, 0, 0, 0, 0
439809155, 3909, 7687, -10018, 9680, 4026, 737, -2203, -1, -13, 8, 0, 0, 0, 0, 0, 0, 0, 0
439817252, 3909, 7687, -10018, 9680, 4026, 737, -2203, -1, -13, 8, 29, 22, 24, 25, 67, 59, 70, 26
439818085, 3909, 7687, -10018, 9680, 4026, 737, -2203, -1, -13, 8, 29, 22, 24, 25, 67, 59, 70, 26
439831665, 3908, 7687, -10021, 9677, 4037, 734, -2192, -18, -18, 10, 29, 22, 24, 25, 67, 59, 70, 26
439840233, 3908, 7687, -10021, 9677, 4037, 734, -2192, -18, -18, 10, 29, 22, 23, 24, 50, 61, 74, 25
439846573, 3908, 7687, -10021, 9677, 4037, 734, -2192, -18, -18, 10, 29, 22, 23, 24, 50, 61, 74, 25
439854205, 3908, 7687, -10021, 9677, 4053, 728, -2189, 1, -14, 1, 29, 22, 23, 24, 50, 61, 74, 25
439862238, 3908, 7687, -10021, 9677, 4053, 728, -2189, 1, -14, 1, 25, 21, 25, 31, 46, 45, 78, 25
439863092, 3908, 7687, -10021, 9677, 4053, 728, -2189, 1, -14, 1, 25, 21, 25, 31, 46, 45, 78, 25
439869215, 3908, 7687, -10021, 9677, 4032, 721, -2195, 3, -5, -14, 25, 21, 25, 31, 46, 45, 78, 25
439877269, 3908, 7687, -10021, 9677, 4032, 721, -2195, 3, -5, -14, 25, 22, 28, 31, 49, 59, 78, 26
439878062, 3908, 7687, -10021, 9677, 4032, 721, -2195, 3, -5, -14, 25, 22, 28, 31, 49, 59, 78, 26
439891683, 3910, 7691, -10019, 9676, 4015, 708, -2194, 2, -6, -31, 25, 22, 28, 31, 49, 59, 78, 26
439899753, 3910, 7691, -10019, 9676, 4015, 708, -2194, 2, -6, -31, 23, 21, 25, 31, 50, 58, 61, 25
439900566, 3910, 7691, -10019, 9676, 4015, 708, -2194, 2, -6, -31, 23, 21, 25, 31, 50, 58, 61, 25
439916903, 3914, 7693, -10019, 9672, 4031, 707, -2181, -19, -8, -27, 23, 21, 25, 31, 50, 58, 61, 25
439917743, 3914, 7693, -10019, 9672, 4031, 707, -2181, -19, -8, -27, 23, 21, 25, 31, 50, 58, 61, 25
439918586, 3909, 7687, -10018, 9680, 4015, 718, -2181, 5, 2, -10, 23, 21, 25, 31, 50, 58, 61, 25
439919393, 3909, 7687, -10018, 9680, 4018, 712, -2196, -6, -1, -4, 23, 21, 25, 31, 50, 58, 61, 25
439924369, 3909, 7687, -10018, 9680, 4012, 706, -2178, -14, -5, -6, 23, 21, 25, 31, 50, 58, 61, 25
439925165, 3909, 7687, -10018, 9680, 4018, 719, -2208, 0, -5, -1, 23, 21, 25, 31, 50, 58, 61, 25
439926031, 3909, 7687, -10018, 9680, 4026, 737, -2203, -1, -13, 8, 23, 21, 25, 31, 50, 58, 61, 25
439926815, 3909, 7687, -10018, 9680, 4026, 737, -2203, -1, -13, 8, 29, 22, 24, 25, 67, 59, 70, 26
439931862, 3909, 7687, -10018, 9680, 4026, 737, -2203, -1, -13, 8, 29, 22, 23, 24, 50, 61, 74, 25
439932664, 3909, 7687, -10018, 9680, 4026, 737, -2203, -1, -13, 8, 29, 22, 23, 24, 50, 61, 74, 25
439933519, 3909, 7687, -10018, 9680, 4026, 737, -2203, -1, -13, 8, 29, 22, 23, 24, 50, 61, 74, 25
439934312, 3909, 7687, -10018, 9680, 4026, 737, -2203, -1, -13, 8, 29, 22, 23, 24, 50, 61, 74, 25
439939265, 3909, 7687, -10018, 9680, 4026, 737, -2203, -1, -13, 8, 29, 22, 23, 24, 50, 61, 74, 25
439940063, 3909, 7687, -10018, 9680, 4026, 737, -2203, -1, -13, 8, 29, 22, 23, 24, 50, 61, 74, 25
439940929, 3909, 7687, -10018, 9680, 4026, 737, -2203, -1, -13, 8, 29, 22, 23, 24, 50, 61, 74, 25
439941688, 3909, 7687, -10018, 9680, 4026, 737, -2203, -1, -13, 8, 29, 22, 23, 24, 50, 61, 74, 25
439954250, 3909, 7687, -10018, 9680, 4026, 737, -2203, -1, -13, 8, 29, 22, 23, 24, 50, 61, 74, 25
439955191, 3908, 7687, -10021, 9677, 4053, 728, -2189, 1, -14, 1, 29, 22, 23, 24, 50, 61, 74, 25
439956028, 3908, 7687, -10021, 9677, 4053, 728, -2189, 1, -14, 1, 25, 21, 25, 31, 46, 45, 78, 25
439956819, 3908, 7687, -10021, 9677, 4053, 728, -2189, 1, -14, 1, 29, 22, 23, 24, 50, 61, 74, 25
439961799, 3908, 7687, -10021, 9677, 4053, 728, -2189, 1, -14, 1, 25, 21, 25, 31, 46, 45, 78, 25
439962685, 3908, 7687, -10021, 9677, 4053, 728, -2189, 1, -14, 1, 25, 21, 25, 31, 46, 45, 78, 25
439963441, 3908, 7687, -10021, 9677, 4053, 728, -2189, 1, -14, 1, 25, 21, 25, 31, 46, 45, 78, 25
439964292, 3908, 7687, -10021, 9677, 4053, 728, -2189, 1, -14, 1, 25, 21, 25, 31, 46, 45, 78, 25
439969204, 3908, 7687, -10021, 9677, 4053, 728, -2189, 1, -14, 1, 25, 21, 25, 31, 46, 45, 78, 25
439970012, 3908, 7687, -10021, 9677, 4053, 728, -2189, 1, -14, 1, 25, 21, 25, 31, 46, 45, 78, 25
439970863, 3908, 7687, -10021, 9677, 4053, 728, -2189, 1, -14, 1, 25, 21, 25, 31, 46, 45, 78, 25
439971661, 3908, 7687, -10021, 9677, 4053, 728, -2189, 1, -14, 1, 25, 21, 25, 31, 46, 45, 78, 25
439976800, 3908, 7687, -10021, 9677, 4053, 728, -2189, 1, -14, 1, 25, 21, 25, 31, 46, 45, 78, 25
439977737, 3908, 7687, -10021, 9677, 4032, 721, -2195, 3, -5, -14, 25, 21, 25, 31, 46, 45, 78, 25
439978568, 3908, 7687, -10021, 9677, 4032, 721, -2195, 3, -5, -14, 25, 22, 28, 31, 49, 59, 78, 26
439979345, 3908, 7687, -10021, 9677, 4032, 721, -2195, 3, -5, -14, 25, 22, 28, 31, 49, 59, 78, 26
439984369, 3908, 7687, -10021, 9677, 4032, 721, -2195, 3, -5, -14, 25, 22, 28, 31, 49, 59, 78, 26
439985192, 3908, 7687, -10021, 9677, 4032, 721, -2195, 3, -5, -14, 25, 22, 28, 31, 49, 59, 78, 26
439985989, 3908, 7687, -10021, 9677, 4032, 721, -2195, 3, -5, -14, 25, 22, 28, 31, 49, 59, 78, 26
439986815, 3908, 7687, -10021, 9677, 4032, 721, -2195, 3, -5, -14, 25, 22, 28, 31, 49, 59, 78, 26
439991737, 3908, 7687, -10021, 9677, 4032, 721, -2195, 3, -5, -14, 25, 22, 28, 31, 49, 59, 78, 26
439992588, 3908, 7687, -10021, 9677, 4032, 721, -2195, 3, -5, -14, 25, 22, 28, 31, 49, 59, 78, 26
439993363, 3908, 7687, -10021, 9677, 4032, 721, -2195, 3, -5, -14, 25, 22, 28, 31, 49, 59, 78, 26
439994185, 3908, 7687, -10021, 9677, 4032, 721, -2195, 3, -5, -14, 25, 22, 28, 31, 49, 59, 78, 26
439999255, 3908, 7687, -10021, 9677, 4032, 721, -2195, 3, -5, -14, 25, 22, 28, 31, 49, 59, 78, 26
440000197, 3910, 7691, -10019, 9676, 4015, 708, -2194, 2, -6, -31, 25, 22, 28, 31, 49, 59, 78, 26
440001015, 3910, 7691, -10019, 9676, 4015, 708, -2194, 2, -6, -31, 23, 21, 25, 31, 50, 58, 61, 25
440001812, 3910, 7691, -10019, 9676, 4015, 708, -2194, 2, -6, -31, 23, 21, 25, 31, 50, 58, 61, 25
440006843, 3910, 7691, -10019, 9676, 4015, 708, -2194, 2, -6, -31, 23, 21, 25, 31, 50, 58, 61, 25
440007662, 3910, 7691, -10019, 9676, 4015, 708, -2194, 2, -6, -31, 23, 21, 25, 31, 50, 58, 61, 25
440008491, 3910, 7691, -10019, 9676, 4015, 708, -2194, 2, -6, -31, 23, 21, 25, 31, 50, 58, 61, 25
440009277, 3910, 7691, -10019, 9676, 4015, 708, -2194, 2, -6, -31, 23, 21, 25, 31, 50, 58, 61, 25
440021791, 3910, 7691, -10019, 9676, 4015, 708, -2194, 2, -6, -31, 23, 21, 25, 31, 50, 58, 61, 25
440022570, 3910, 7691, -10019, 9676, 4015, 708, -2194, 2, -6, -31, 23, 21, 25, 31, 50, 58, 61, 25
440023363, 3910, 7691, -10019, 9676, 4015, 708, -2194, 2, -6, -31, 23, 21, 25, 31, 50, 58, 61, 25
440024214, 3910, 7691, -10019, 9676, 4015, 708, -2194, 2, -6, -31, 23, 21, 25, 31, 50, 58, 61, 25
440029266, 3910, 7691, -10019, 9676, 4015, 708, -2194, 2, -6, -31, 23, 21, 25, 31, 50, 58, 61, 25
440030206, 3914, 7693, -10019, 9672, 4031, 707, -2181, -19, -8, -27, 23, 21, 25, 31, 50, 58, 61, 25
440030990, 3914, 7693, -10019, 9672, 4031, 707, -2181, -19, -8, -27, 20, 22, 26, 30, 82, 67, 72, 25
440031867, 3914, 7693, -10019, 9672, 4031, 707, -2181, -19, -8, -27, 20, 22, 26, 30, 82, 67, 72, 25
440036835, 3914, 7693, -10019, 9672, 4031, 707, -2181, -19, -8, -27, 20, 22, 26, 30, 82, 67, 72, 25
440037685, 3914, 7693, -10019, 9672, 4031, 707, -2181, -19, -8, -27, 20, 22, 26, 30, 82, 67, 72, 25
440038475, 3914, 7693, -10019, 9672, 4031, 707, -2181, -19, -8, -27, 20, 22, 26, 30, 82, 67, 72, 25
440039317, 3914, 7693, -10019, 9672, 4031, 707, -2181, -19, -8, -27, 20, 22, 26, 30, 82, 67, 72, 25
440044238, 3914, 7693, -10019, 9672, 4031, 707, -2181, -19, -8, -27, 20, 22, 26, 30, 82, 67, 72, 25
440045092, 3914, 7693, -10019, 9672, 4031, 707, -2181, -19, -8, -27, 20, 22, 26, 30, 82, 67, 72, 25
440045863, 3914, 7693, -10019, 9672, 4031, 707, -2181, -19, -8, -27, 20, 22, 26, 30, 82, 67, 72, 25
440046718, 3914, 7693, -10019, 9672, 4031, 707, -2181, -19, -8, -27, 20, 22, 26, 30, 82, 67, 72, 25
440051805, 3914, 7693, -10019, 9672, 4031, 707, -2181, -19, -8, -27, 20, 22, 26, 30, 82, 67, 72, 25
440052691, 3915, 7696, -10018, 9670, 4034, 708, -2183, -7, -7, -17, 20, 22, 26, 30, 82, 67, 72, 25
440053523, 3915, 7696, -10018, 9670, 4034, 708, -2183, -7, -7, -17, 23, 22, 25, 31, 83, 68, 70, 29
440054314, 3915, 7696, -10018, 9670, 4034, 708, -2183, -7, -7, -17, 23, 22, 25, 31, 83, 68, 70, 29
440059351, 3915, 7696, -10018, 9670, 4034, 708, -2183, -7, -7, -17, 23, 22, 25, 31, 83, 68, 70, 29
440060138, 3915, 7696, -10018, 9670, 4034, 708, -2183, -7, -7, -17, 23, 22, 25, 31, 83, 68, 70, 29
440060989, 3915, 7696, -10018, 9670, 4034, 708, -2183, -7, -7, -17, 23, 22, 25, 31, 83, 68, 70, 29
440061763, 3915, 7696, -10018, 9670, 4034, 708, -2183, -7, -7, -17, 23, 22, 25, 31, 83, 68, 70, 29
440066725, 3915, 7696, -10018, 9670, 4034, 708, -2183, -7, -7, -17, 23, 22, 25, 31, 83, 68, 70, 29
440067542, 3915, 7696, -10018, 9670, 4034, 708, -2183, -7, -7, -17, 23, 22, 25, 31, 83, 68, 70, 29
440068346, 3915, 7696, -10018, 9670, 4034, 708, -2183, -7, -7, -17, 23, 22, 25, 31, 83, 68, 70, 29
440069165, 3915, 7696, -10018, 9670, 4034, 708, -2183, -7, -7, -17, 23, 22, 25, 31, 83, 68, 70, 29
440074247, 3915, 7696, -10018, 9670, 4034, 708, -2183, -7, -7, -17, 23, 22, 25, 31, 83, 68, 70, 29
440075163, 3915, 7696, -10018, 9670, 4039, 713, -2185, 9, -12, -10, 23, 22, 25, 31, 83, 68, 70, 29
440076029, 3915, 7696, -10018, 9670, 4039, 713, -2185, 9, -12, -10, 26, 22, 25, 24, 82, 70, 69, 30
440076777, 3915, 7696, -10018, 9670, 4039, 713, -2185, 9, -12, -10, 26, 22, 25, 24, 82, 70, 69, 30
440081816, 3915, 7696, -10018, 9670, 4039, 713, -2185, 9, -12, -10, 26, 22, 25, 24, 82, 70, 69, 30
440082669, 3915, 7696, -10018, 9670, 4039, 713, -2185, 9, -12, -10, 26, 22, 25, 24, 82, 70, 69, 30
440083424, 3915, 7696, -10018, 9670, 4039, 713, -2185, 9, -12, -10, 26, 22, 25, 24, 82, 70, 69, 30
440084254, 3915, 7696, -10018, 9670, 4039, 713, -2185, 9, -12, -10, 26, 22, 25, 24, 82, 70, 69, 30
440089263, 3915, 7696, -10018, 9670, 4039, 713, -2185, 9, -12, -10, 26, 22, 25, 24, 82, 70, 69, 30
440090089, 3915, 7696, -10018, 9670, 4039, 713, -2185, 9, -12, -10, 26, 22, 25, 24, 82, 70, 69, 30
440090911, 3915, 7696, -10018, 9670, 4039, 713, -2185, 9, -12, -10, 26, 22, 25, 24, 82, 70, 69, 30
440091701, 3915, 7696, -10018, 9670, 4039, 713, -2185, 9, -12, -10, 26, 22, 25, 24, 82, 70, 69, 30
440096793, 3915, 7696, -10018, 9670, 4039, 713, -2185, 9, -12, -10, 26, 22, 25, 24, 82, 70, 69, 30
440097716, 3915, 7696, -10018, 9670, 4012, 723, -2185, -3, -10, -7, 26, 22, 25, 24, 82, 70, 69, 30
440098544, 3915, 7696, -10018, 9670, 4012, 723, -2185, -3, -10, -7, 25, 21, 23, 24, 82, 57, 70, 29
440099344, 3915, 7696, -10018, 9670, 4012, 723, -2185, -3, -10, -7, 25, 21, 23, 24, 82, 57, 70, 29
440104336, 3915, 7696, -10018, 9670, 4012, 723, -2185, -3, -10, -7, 25, 21, 23, 24, 82, 57, 70, 29
440105161, 3915, 7696, -10018, 9670, 4012, 723, -2185, -3, -10, -7, 25, 21, 23, 24, 82, 57, 70, 29
440105960, 3915, 7696, -10018, 9670, 4012, 723, -2185, -3, -10, -7, 25, 21, 23, 24, 82, 57, 70, 29
440106827, 3915, 7696, -10018, 9670, 4012, 723, -2185, -3, -10, -7, 25, 21, 23, 24, 82, 57, 70, 29
440111740, 3915, 7696, -10018, 9670, 4012, 723, -2185, -3, -10, -7, 25, 21, 23, 24, 82, 57, 70, 29
440112582, 3915, 7696, -10018, 9670, 4012, 723, -2185, -3, -10, -7, 25, 21, 23, 24, 82, 57, 70, 29
440113369, 3915, 7696, -10018, 9670, 4012, 723, -2185, -3, -10, -7, 25, 21, 23, 24, 82, 57, 70, 29
440114217, 3915, 7696, -10018, 9670, 4012, 723, -2185, -3, -10, -7, 25, 21, 23, 24, 82, 57, 70, 29
440126783, 3915, 7696, -10018, 9670, 4012, 723, -2185, -3, -10, -7, 25, 21, 23, 24, 82, 57, 70, 29
440127663, 3918, 7696, -10021, 9666, 4012, 708, -2188, -29, -5, -8, 25, 21, 23, 24, 82, 57, 70, 29
440128484, 3918, 7696, -10021, 9666, 4012, 708, -2188, -29, -5, -8, 25, 22, 25, 24, 81, 69, 73, 30
440129280, 3918, 7696, -10021, 9666, 4012, 708, -2188, -29, -5, -8, 25, 22, 25, 24, 81, 69, 73, 30
440134414, 3918, 7696, -10021, 9666, 4012, 708, -2188, -29, -5, -8, 25, 22, 25, 24, 81, 69, 73, 30
440135208, 3918, 7696, -10021, 9666, 4012, 708, -2188, -29, -5, -8, 25, 22, 25, 24, 81, 69, 73, 30
440136016, 3918, 7696, -10021, 9666, 4012, 708, -2188, -29, -5, -8, 25, 22, 25, 24, 81, 69, 73, 30
440136814, 3918, 7696, -10021, 9666, 4012, 708, -2188, -29, -5, -8, 25, 22, 25, 24, 81, 69, 73, 30
440141765, 3918, 7696, -10021, 9666, 4012, 708, -2188, -29, -5, -8, 25, 22, 25, 24, 81, 69, 73, 30
440142566, 3918, 7696, -10021, 9666, 4012, 708, -2188, -29, -5, -8, 25, 22, 25, 24, 81, 69, 73, 30
440143378, 3918, 7696, -10021, 9666, 4012, 708, -2188, -29, -5, -8, 25, 22, 25, 24, 81, 69, 73, 30
440144196, 3918, 7696, -10021, 9666, 4012, 708, -2188, -29, -5, -8, 25, 22, 25, 24, 81, 69, 73, 30
440149263, 3918, 7696, -10021, 9666, 4012, 708, -2188, -29, -5, -8, 25, 22, 25, 24, 81, 69, 73, 30
440150214, 3922, 7695, -10023, 9662, 4031, 710, -2208, -34, 1, -11, 25, 22, 25, 24, 81, 69, 73, 30
440151013, 3922, 7695, -10023, 9662, 4031, 710, -2208, -34, 1, -11, 26, 22, 26, 30, 59, 64, 61, 29
440151851, 3922, 7695, -10023, 9662, 4031, 710, -2208, -34, 1, -11, 26, 22, 26, 30, 59, 64, 61, 29
440156840, 3922, 7695, -10023, 9662, 4031, 710, -2208, -34, 1, -11, 26, 22, 26, 30, 59, 64, 61, 29
440157666, 3922, 7695, -10023, 9662, 4031, 710, -2208, -34, 1, -11, 26, 22, 26, 30, 59, 64, 61, 29
440158466, 3922, 7695, -10023, 9662, 4031, 710, -2208, -34, 1, -11, 26, 22, 26, 30, 59, 64, 61, 29
440159290, 3922, 7695, -10023, 9662, 4031, 710, -2208, -34, 1, -11, 26, 22, 26, 30, 59, 64, 61, 29
440164237, 3922, 7695, -10023, 9662, 4031, 710, -2208, -34, 1, -11, 26, 22, 26, 30, 59, 64, 61, 29
440165056, 3922, 7695, -10023, 9662, 4031, 710, -2208, -34, 1, -11, 26, 22, 26, 30, 59, 64, 61, 29
440165887, 3922, 7695, -10023, 9662, 4031, 710, -2208, -34, 1, -11, 26, 22, 26, 30, 59, 64, 61, 29
440166729, 3922, 7695, -10023, 9662, 4031, 710, -2208, -34, 1, -11, 26, 22, 26, 30, 59, 64, 61, 29
440171738, 3922, 7695, -10023, 9662, 4031, 710, -2208, -34, 1, -11, 26, 22, 26, 30, 59, 64, 61, 29
440172720, 3922, 7695, -10023, 9662, 4024, 728, -2204, -15, 4, -12, 26, 22, 26, 30, 59, 64, 61, 29
440173494, 3922, 7695, -10023, 9662, 4024, 728, -2204, -15, 4, -12, 25, 22, 26, 33, 58, 63, 75, 29
440174315, 3922, 7695, -10023, 9662, 4024, 728, -2204, -15, 4, -12, 25, 22, 26, 33, 58, 63, 75, 29
440179312, 3922, 7695, -10023, 9662, 4024, 728, -2204, -15, 4, -12, 25, 22, 26, 33, 58, 63, 75, 29
440180149, 3922, 7695, -10023, 9662, 4024, 728, -2204, -15, 4, -12, 25, 22, 26, 33, 58, 63, 75, 29
440180938, 3922, 7695, -10023, 9662, 4024, 728, -2204, -15, 4, -12, 25, 22, 26, 33, 58, 63, 75, 29
440181791, 3922, 7695, -10023, 9662, 4024, 728, -2204, -15, 4, -12, 25, 22, 26, 33, 58, 63, 75, 29
440186755, 3922, 7695, -10023, 9662, 4024, 728, -2204, -15, 4, -12, 25, 22, 26, 33, 58, 63, 75, 29
440187528, 3922, 7695, -10023, 9662, 4024, 728, -2204, -15, 4, -12, 25, 22, 26, 33, 58, 63, 75, 29
440188344, 3922, 7695, -10023, 9662, 4024, 728, -2204, -15, 4, -12, 25, 22, 26, 33, 58, 63, 75, 29
440189190, 3922, 7695, -10023, 9662, 4024, 728, -2204, -15, 4, -12, 25, 22, 26, 33, 58, 63, 75, 29
440194288, 3922, 7695, -10023, 9662, 4024, 728, -2204, -15, 4, -12, 25, 22, 26, 33, 58, 63, 75, 29
440195214, 3922, 7695, -10023, 9662, 4032, 734, -2191, -3, -1, -1, 25, 22, 26, 33, 58, 63, 75, 29
440196036, 3922, 7695, -10023, 9662, 4032, 734, -2191, -3, -1, -1, 26, 22, 26, 33, 57, 65, 82, 27
440196866, 3922, 7695, -10023, 9662, 4032, 734, -2191, -3, -1, -1, 25, 22, 26, 33, 58, 63, 75, 29
440201863, 3922, 7695, -10023, 9662, 4032, 734, -2191, -3, -1, -1, 26, 22, 26, 33, 57, 65, 82, 27
440202704, 3922, 7695, -10023, 9662, 4032, 734, -2191, -3, -1, -1, 26, 22, 26, 33, 57, 65, 82, 27
440203512, 3922, 7695, -10023, 9662, 4032, 734, -2191, -3, -1, -1, 26, 22, 26, 33, 57, 65, 82, 27
440204320, 3922, 7695, -10023, 9662, 4032, 734, -2191, -3, -1, -1, 26, 22, 26, 33, 57, 65, 82, 27
440209243, 3922, 7695, -10023, 9662, 4032, 734, -2191, -3, -1, -1, 26, 22, 26, 33, 57, 65, 82, 27
440210065, 3922, 7695, -10023, 9662, 4032, 734, -2191, -3, -1, -1, 26, 22, 26, 33, 57, 65, 82, 27
440210865, 3922, 7695, -10023, 9662, 4032, 734, -2191, -3, -1, -1, 26, 22, 26, 33, 57, 65, 82, 27
440211743, 3922, 7695, -10023, 9662, 4032, 734, -2191, -3, -1, -1, 26, 22, 26, 33, 57, 65, 82, 27
440216809, 3922, 7695, -10023, 9662, 4032, 734, -2191, -3, -1, -1, 26, 22, 26, 33, 57, 65, 82, 27
440217720, 3922, 7695, -10023, 9662, 4036, 734, -2184, -7, -6, -2, 26, 22, 26, 33, 57, 65, 82, 27
440218518, 3922, 7695, -10023, 9662, 4036, 734, -2184, -7, -6, -2, 27, 19, 28, 33, 59, 69, 82, 26
440219347, 3922, 7695, -10023, 9662, 4036, 734, -2184, -7, -6, -2, 27, 19, 28, 33, 59, 69, 82, 26
440231838, 3922, 7695, -10023, 9662, 4036, 734, -2184, -7, -6, -2, 27, 19, 28, 33, 59, 69, 82, 26
440232704, 3922, 7695, -10023, 9662, 4036, 734, -2184, -7, -6, -2, 27, 19, 28, 33, 59, 69, 82, 26
440233488, 3922, 7695, -10023, 9662, 4036, 734, -2184, -7, -6, -2, 27, 19, 28, 33, 59, 69, 82, 26
440234291, 3922, 7695, -10023, 9662, 4036, 734, -2184, -7, -6, -2, 27, 19, 28, 33, 59, 69, 82, 26
440239213, 3922, 7695, -10023, 9662, 4036, 734, -2184, -7, -6, -2, 27, 19, 28, 33, 59, 69, 82, 26
440240050, 3922, 7695, -10023, 9662, 4036, 734, -2184, -7, -6, -2, 27, 19, 28, 33, 59, 69, 82, 26
440240863, 3922, 7695, -10023, 9662, 4036, 734, -2184, -7, -6, -2, 27, 19, 28, 33, 59, 69, 82, 26
440241672, 3922, 7695, -10023, 9662, 4036, 734, -2184, -7, -6, -2, 27, 19, 28, 33, 59, 69, 82, 26
440246854, 3922, 7695, -10023, 9662, 4036, 734, -2184, -7, -6, -2, 29, 18, 27, 35, 86, 73, 79, 30
440247663, 3922, 7695, -10023, 9662, 4036, 734, -2184, -7, -6, -2, 29, 18, 27, 35, 86, 73, 79, 30
440248488, 3922, 7695, -10023, 9662, 4036, 734, -2184, -7, -6, -2, 29, 18, 27, 35, 86, 73, 79, 30
440249292, 3922, 7695, -10023, 9662, 4036, 734, -2184, -7, -6, -2, 29, 18, 27, 35, 86, 73, 79, 30
440254251, 3922, 7695, -10023, 9662, 4036, 734, -2184, -7, -6, -2, 29, 18, 27, 35, 86, 73, 79, 30
440255068, 3922, 7695, -10023, 9662, 4036, 734, -2184, -7, -6, -2, 29, 18, 27, 35, 86, 73, 79, 30
440255863, 3922, 7695, -10023, 9662, 4036, 734, -2184, -7, -6, -2, 29, 18, 27, 35, 86, 73, 79, 30
440256729, 3922, 7695, -10023, 9662, 4036, 734, -2184, -7, -6, -2, 29, 18, 27, 35, 86, 73, 79, 30
440261744, 3922, 7695, -10023, 9662, 4036, 734, -2184, -7, -6, -2, 29, 18, 27, 35, 86, 73, 79, 30
440262690, 3923, 7697, -10025, 9658, 4036, 706, -2199, -21, -14, -11, 29, 18, 27, 35, 86, 73, 79, 30
440263535, 3923, 7697, -10025, 9658, 4036, 706, -2199, -21, -14, -11, 27, 19, 26, 30, 77, 65, 77, 30
440264316, 3923, 7697, -10025, 9658, 4036, 706, -2199, -21, -14, -11, 27, 19, 26, 30, 77, 65, 77, 30
440269339, 3923, 7697, -10025, 9658, 4036, 706, -2199, -21, -14, -11, 27, 19, 26, 30, 77, 65, 77, 30
440270137, 3923, 7697, -10025, 9658, 4036, 706, -2199, -21, -14, -11, 27, 19, 26, 30, 77, 65, 77, 30
440270947, 3923, 7697, -10025, 9658, 4036, 706, -2199, -21, -14, -11, 27, 19, 26, 30, 77, 65, 77, 30
440271763, 3923, 7697, -10025, 9658, 4036, 706, -2199, -21, -14, -11, 27, 19, 26, 30, 77, 65, 77, 30
440274515, 3923, 7697, -10025, 9658, 4036, 706, -2199, -21, -14, -11, 27, 19, 26, 30, 77, 65, 77, 30
440284286, 3923, 7697, -10025, 9658, 4036, 706, -2199, -21, -14, -11, 27, 19, 26, 30, 77, 65, 77, 30
440285119, 3923, 7697, -10025, 9658, 4036, 706, -2199, -21, -14, -11, 27, 19, 26, 30, 77, 65, 77, 30
440285888, 3923, 7697, -10025, 9658, 4036, 706, -2199, -21, -14, -11, 27, 19, 26, 30, 77, 65, 77, 30
440286755, 3923, 7697, -10025, 9658, 4036, 706, -2199, -21, -14, -11, 27, 19, 26, 30, 77, 65, 77, 30
440291841, 3923, 7697, -10025, 9658, 4027, 722, -2183, -11, -10, -16, 27, 19, 26, 30, 77, 65, 77, 30
440292690, 3923, 7697, -10025, 9658, 4027, 722, -2183, -11, -10, -16, 29, 21, 27, 27, 82, 67, 87, 28
440293465, 3923, 7697, -10025, 9658, 4027, 722, -2183, -11, -10, -16, 29, 21, 27, 27, 82, 67, 87, 28
440294309, 3923, 7697, -10025, 9658, 4027, 722, -2183, -11, -10, -16, 29, 21, 27, 27, 82, 67, 87, 28
440299248, 3923, 7697, -10025, 9658, 4027, 722, -2183, -11, -10, -16, 29, 21, 27, 27, 82, 67, 87, 28
440300040, 3923, 7697, -10025, 9658, 4027, 722, -2183, -11, -10, -16, 29, 21, 27, 27, 82, 67, 87, 28
440300861, 3923, 7697, -10025, 9658, 4027, 722, -2183, -11, -10, -16, 29, 21, 27, 27, 82, 67, 87, 28
440301686, 3923, 7697, -10025, 9658, 4027, 722, -2183, -11, -10, -16, 29, 21, 27, 27, 82, 67, 87, 28
440306770, 3923, 7697, -10025, 9658, 4027, 722, -2183, -11, -10, -16, 29, 21, 27, 27, 82, 67, 87, 28
440307690, 3923, 7697, -10025, 9658, 4044, 733, -2185, -7, -6, -13, 29, 21, 27, 27, 82, 67, 87, 28
440308519, 3923, 7697, -10025, 9658, 4044, 733, -2185, -7, -6, -13, 25, 23, 24, 29, 83, 63, 76, 28
440309313, 3923, 7697, -10025, 9658, 4044, 733, -2185, -7, -6, -13, 25, 23, 24, 29, 83, 63, 76, 28
440314342, 3923, 7697, -10025, 9658, 4044, 733, -2185, -7, -6, -13, 25, 23, 24, 29, 83, 63, 76, 28
440315138, 3923, 7697, -10025, 9658, 4044, 733, -2185, -7, -6, -13, 25, 23, 24, 29, 83, 63, 76, 28
440315961, 3923, 7697, -10025, 9658, 4044, 733, -2185, -7, -6, -13, 25, 23, 24, 29, 83, 63, 76, 28
440316764, 3923, 7697, -10025, 9658, 4044, 733, -2185, -7, -6, -13, 25, 23, 24, 29, 83, 63, 76, 28
440321715, 3923, 7697, -10025, 9658, 4044, 733, -2185, -7, -6, -13, 25, 23, 24, 29, 83, 63, 76, 28
440322518, 3923, 7697, -10025, 9658, 4044, 733, -2185, -7, -6, -13, 25, 23, 24, 29, 83, 63, 76, 28
440323343, 3923, 7697, -10025, 9658, 4044, 733, -2185, -7, -6, -13, 25, 23, 24, 29, 83, 63, 76, 28
440324160, 3923, 7697, -10025, 9658, 4044, 733, -2185, -7, -6, -13, 25, 23, 24, 29, 83, 63, 76, 28
440329263, 3923, 7697, -10025, 9658, 4044, 733, -2185, -7, -6, -13, 25, 23, 24, 29, 83, 63, 76, 28
440330165, 3923, 7697, -10025, 9658, 4038, 715, -2186, 2, 5, -5, 25, 23, 24, 29, 83, 63, 76, 28
440331027, 3923, 7697, -10025, 9658, 4038, 715, -2186, 2, 5, -5, 25, 23, 21, 29, 80, 63, 81, 30
440331811, 3923, 7697, -10025, 9658, 4038, 715, -2186, 2, 5, -5, 25, 23, 21, 29, 80, 63, 81, 30
440336816, 3923, 7697, -10025, 9658, 4038, 715, -2186, 2, 5, -5, 25, 23, 21, 29, 80, 63, 81, 30
440337663, 3923, 7697, -10025, 9658, 4038, 715, -2186, 2, 5, -5, 25, 23, 21, 29, 80, 63, 81, 30
440338467, 3923, 7697, -10025, 9658, 4038, 715, -2186, 2, 5, -5, 25, 23, 21, 29, 80, 63, 81, 30
440339240, 3923, 7697, -10025, 9658, 4038, 715, -2186, 2, 5, -5, 25, 23, 21, 29, 80, 63, 81, 30
440344265, 3923, 7697, -10025, 9658, 4038, 715, -2186, 2, 5, -5, 25, 23, 21, 29, 80, 63, 81, 30
440345064, 3923, 7697, -10025, 9658, 4038, 715, -2186, 2, 5, -5, 25, 23, 21, 29, 80, 63, 81, 30
440345886, 3923, 7697, -10025, 9658, 4038, 715, -2186, 2, 5, -5, 25, 23, 21, 29, 80, 63, 81, 30
440346687, 3923, 7697, -10025, 9658, 4038, 715, -2186, 2, 5, -5, 25, 23, 21, 29, 80, 63, 81, 30
440351771, 3923, 7697, -10025, 9658, 4038, 715, -2186, 2, 5, -5, 25, 23, 21, 29, 80, 63, 81, 30
440352673, 3923, 7697, -10025, 9658, 4014, 735, -2187, -8, 4, -3, 25, 23, 21, 29, 80, 63, 81, 30
440353493, 3923, 7697, -10025, 9658, 4014, 735, -2187, -8, 4, -3, 23, 25, 22, 29, 56, 43, 83, 24
440354312, 3923, 7697, -10025, 9658, 4014, 735, -2187, -8, 4, -3, 23, 25, 22, 29, 56, 43, 83, 24
440359312, 3923, 7697, -10025, 9658, 4014, 735, -2187, -8, 4, -3, 23, 25, 22, 29, 56, 43, 83, 24
440360112, 3923, 7697, -10025, 9658, 4014, 735, -2187, -8, 4, -3, 23, 25, 22, 29, 56, 43, 83, 24
440360937, 3923, 7697, -10025, 9658, 4014, 735, -2187, -8, 4, -3, 23, 25, 22, 29, 56, 43, 83, 24
440361768, 3923, 7697, -10025, 9658, 4014, 735, -2187, -8, 4, -3, 23, 25, 22, 29, 56, 43, 83, 24
440366731, 3923, 7697, -10025, 9658, 4014, 735, -2187, -8, 4, -3, 23, 25, 22, 29, 56, 43, 83, 24
440367575, 3923, 7697, -10025, 9658, 4014, 735, -2187, -8, 4, -3, 23, 25, 22, 29, 56, 43, 83, 24
440368356, 3923, 7697, -10025, 9658, 4014, 735, -2187, -8, 4, -3, 23, 25, 22, 29, 56, 43, 83, 24
440369167, 3923, 7697, -10025, 9658, 4014, 735, -2187, -8, 4, -3, 23, 25, 22, 29, 56, 43, 83, 24
440374273, 3923, 7697, -10025, 9658, 4014, 735, -2187, -8, 4, -3, 23, 25, 22, 29, 56, 43, 83, 24
440375159, 3923, 7697, -10025, 9658, 4034, 734, -2181, -14, 4, -3, 23, 25, 22, 29, 56, 43, 83, 24
440376022, 3923, 7697, -10025, 9658, 4034, 734, -2181, -14, 4, -3, 23, 22, 21, 27, 58, 62, 86, 36
440376830, 3923, 7697, -10025, 9658, 4034, 734, -2181, -14, 4, -3, 23, 22, 21, 27, 58, 62, 86, 36
440381840, 3923, 7697, -10025, 9658, 4034, 734, -2181, -14, 4, -3, 23, 22, 21, 27, 58, 62, 86, 36
440382661, 3923, 7697, -10025, 9658, 4034, 734, -2181, -14, 4, -3, 23, 22, 21, 27, 58, 62, 86, 36
440383432, 3923, 7697, -10025, 9658, 4034, 734, -2181, -14, 4, -3, 23, 22, 21, 27, 58, 62, 86, 36
440384272, 3923, 7697, -10025, 9658, 4034, 734, -2181, -14, 4, -3, 23, 22, 21, 27, 58, 62, 86, 36
440389270, 3923, 7697, -10025, 9658, 4034, 734, -2181, -14, 4, -3, 23, 22, 21, 27, 58, 62, 86, 36
440390059, 3923, 7697, -10025, 9658, 4034, 734, -2181, -14, 4, -3, 23, 22, 21, 27, 58, 62, 86, 36
440390880, 3923, 7697, -10025, 9658, 4034, 734, -2181, -14, 4, -3, 23, 22, 21, 27, 58, 62, 86, 36
440391664, 3923, 7697, -10025, 9658, 4034, 734, -2181, -14, 4, -3, 23, 22, 21, 27, 58, 62, 86, 36
440396786, 3923, 7697, -10025, 9658, 4034, 734, -2181, -14, 4, -3, 23, 22, 21, 27, 58, 62, 86, 36
440397716, 3925, 7695, -10027, 9657, 4024, 704, -2184, -18, 4, 3, 23, 22, 21, 27, 58, 62, 86, 36
440398547, 3925, 7695, -10027, 9657, 4024, 704, -2184, -18, 4, 3, 23, 25, 19, 25, 51, 58, 62, 38
440399347, 3925, 7695, -10027, 9657, 4024, 704, -2184, -18, 4, 3, 23, 25, 19, 25, 51, 58, 62, 38
440404339, 3925, 7695, -10027, 9657, 4024, 704, -2184, -18, 4, 3, 23, 25, 19, 25, 51, 58, 62, 38
440405162, 3925, 7695, -10027, 9657, 4024, 704, -2184, -18, 4, 3, 23, 25, 19, 25, 51, 58, 62, 38
440405987, 3925, 7695, -10027, 9657, 4024, 704, -2184, -18, 4, 3, 23, 25, 19, 25, 51, 58, 62, 38
440406816, 3925, 7695, -10027, 9657, 4024, 704, -2184, -18, 4, 3, 23, 25, 19, 25, 51, 58, 62, 38
440410189, 3925, 7695, -10027, 9657, 4024, 704, -2184, -18, 4, 3, 23, 25, 19, 25, 51, 58, 62, 38
440411015, 3925, 7695, -10027, 9657, 4024, 704, -2184, -18, 4, 3, 23, 25, 19, 25, 51, 58, 62, 38
440419237, 3925, 7695, -10027, 9657, 4024, 704, -2184, -18, 4, 3, 23, 25, 19, 25, 51, 58, 62, 38
440420061, 3925, 7695, -10027, 9657, 4024, 704, -2184, -18, 4, 3, 23, 25, 19, 25, 51, 58, 62, 38
440420886, 3925, 7695, -10027, 9657, 4024, 704, -2184, -18, 4, 3, 23, 25, 19, 25, 51, 58, 62, 38
440421842, 3925, 7695, -10027, 9657, 4022, 721, -2191, -4, 4, 2, 23, 25, 19, 25, 51, 58, 62, 38
440426813, 3925, 7695, -10027, 9657, 4022, 721, -2191, -4, 4, 2, 25, 23, 23, 22, 51, 60, 67, 39
440427675, 3925, 7695, -10027, 9657, 4022, 721, -2191, -4, 4, 2, 25, 23, 23, 22, 51, 60, 67, 39
440428441, 3925, 7695, -10027, 9657, 4022, 721, -2191, -4, 4, 2, 25, 23, 23, 22, 51, 60, 67, 39
440429289, 3925, 7695, -10027, 9657, 4022, 721, -2191, -4, 4, 2, 25, 23, 23, 22, 51, 60, 67, 39
440434212, 3925, 7695, -10027, 9657, 4022, 721, -2191, -4, 4, 2, 25, 23, 23, 22, 51, 60, 67, 39
440435049, 3925, 7695, -10027, 9657, 4022, 721, -2191, -4, 4, 2, 25, 23, 23, 22, 51, 60, 67, 39
440435839, 3925, 7695, -10027, 9657, 4022, 721, -2191, -4, 4, 2, 25, 23, 23, 22, 51, 60, 67, 39
440436689, 3925, 7695, -10027, 9657, 4022, 721, -2191, -4, 4, 2, 25, 23, 23, 22, 51, 60, 67, 39
440441738, 3925, 7695, -10027, 9657, 4022, 721, -2191, -4, 4, 2, 25, 23, 23, 22, 51, 60, 67, 39
440442705, 3925, 7695, -10027, 9657, 4012, 714, -2200, -2, -1, -3, 25, 23, 23, 22, 51, 60, 67, 39
440443468, 3925, 7695, -10027, 9657, 4012, 714, -2200, -2, -1, -3, 23, 24, 21, 22, 50, 55, 73, 38
440444329, 3925, 7695, -10027, 9657, 4012, 714, -2200, -2, -1, -3, 23, 24, 21, 22, 50, 55, 73, 38
440454589, 3925, 7695, -10027, 9657, 4012, 714, -2200, -2, -1, -3, 23, 24, 21, 22, 50, 55, 73, 38
440464198, 3925, 7695, -10027, 9657, 4012, 714, -2200, -2, -1, -3, 23, 24, 21, 22, 50, 55, 73, 38
440465038, 3925, 7695, -10027, 9657, 4012, 714, -2200, -2, -1, -3, 23, 24, 21, 22, 50, 55, 73, 38
440465813, 3925, 7695, -10027, 9657, 4012, 714, -2200, -2, -1, -3, 23, 24, 21, 22, 50, 55, 73, 38
440466671, 3925, 7695, -10027, 9657, 4012, 714, -2200, -2, -1, -3, 23, 24, 21, 22, 50, 55, 73, 38
440471688, 3925, 7695, -10027, 9657, 4012, 714, -2200, -2, -1, -3, 23, 24, 21, 22, 50, 55, 73, 38
440472527, 3925, 7695, -10027, 9657, 4012, 714, -2200, -2, -1, -3, 23, 24, 21, 22, 50, 55, 73, 38
440473331, 3925, 7695, -10027, 9657, 4012, 714, -2200, -2, -1, -3, 23, 24, 21, 22, 50, 55, 73, 38
440474291, 3925, 7695, -10027, 9657, 4012, 714, -2200, -2, -1, -3, 22, 22, 21, 21, 53, 61, 76, 38
440479303, 3925, 7695, -10027, 9657, 4012, 714, -2200, -2, -1, -3, 22, 22, 21, 21, 53, 61, 76, 38
440480157, 3925, 7695, -10027, 9657, 4012, 714, -2200, -2, -1, -3, 22, 22, 21, 21, 53, 61, 76, 38
440480938, 3925, 7695, -10027, 9657, 4012, 714, -2200, -2, -1, -3, 22, 22, 21, 21, 53, 61, 76, 38
440481792, 3925, 7695, -10027, 9657, 4012, 714, -2200, -2, -1, -3, 22, 22, 21, 21, 53, 61, 76, 38
440486737, 3925, 7695, -10027, 9657, 4012, 714, -2200, -2, -1, -3, 22, 22, 21, 21, 53, 61, 76, 38
440487542, 3925, 7695, -10027, 9657, 4012, 714, -2200, -2, -1, -3, 22, 22, 21, 21, 53, 61, 76, 38
440488344, 3925, 7695, -10027, 9657, 4012, 714, -2200, -2, -1, -3, 22, 22, 21, 21, 53, 61, 76, 38
440489153, 3925, 7695, -10027, 9657, 4012, 714, -2200, -2, -1, -3, 22, 22, 21, 21, 53, 61, 76, 38
440492663, 3925, 7695, -10027, 9657, 4012, 714, -2200, -2, -1, -3, 22, 22, 21, 21, 53, 61, 76, 38
440493692, 3925, 7695, -10031, 9654, 4036, 744, -2186, -23, -13, 8, 22, 22, 21, 21, 53, 61, 76, 38
440500237, 3925, 7695, -10031, 9654, 4036, 744, -2186, -23, -13, 8, 28, 23, 23, 28, 57, 45, 78, 31
440501042, 3925, 7695, -10031, 9654, 4036, 744, -2186, -23, -13, 8, 28, 23, 23, 28, 57, 45, 78, 31
440509240, 3925, 7695, -10031, 9654, 4036, 744, -2186, -23, -13, 8, 28, 23, 23, 28, 57, 45, 78, 31
440510054, 3925, 7695, -10031, 9654, 4036, 744, -2186, -23, -13, 8, 28, 23, 23, 28, 57, 45, 78, 31
440510863, 3925, 7695, -10031, 9654, 4036, 744, -2186, -23, -13, 8, 28, 23, 23, 28, 57, 45, 78, 31
440511729, 3925, 7695, -10031, 9654, 4036, 744, -2186, -23, -13, 8, 28, 23, 23, 28, 57, 45, 78, 31
440523366, 3925, 7695, -10031, 9654, 4036, 744, -2186, -23, -13, 8, 28, 23, 23, 28, 57, 45, 78, 31
440524138, 3925, 7695, -10031, 9654, 4036, 744, -2186, -23, -13, 8, 28, 23, 23, 28, 57, 45, 78, 31
440525116, 3926, 7694, -10033, 9651, 4045, 729, -2182, -19, -5, -1, 28, 23, 23, 28, 57, 45, 78, 31
440531802, 3926, 7694, -10033, 9651, 4045, 729, -2182, -19, -5, -1, 26, 19, 24, 30, 73, 47, 77, 30
440532674, 3926, 7694, -10033, 9651, 4045, 729, -2182, -19, -5, -1, 26, 19, 24, 30, 73, 47, 77, 30
440533416, 3926, 7694, -10033, 9651, 4045, 729, -2182, -19, -5, -1, 26, 19, 24, 30, 73, 47, 77, 30
440534236, 3926, 7694, -10033, 9651, 4045, 729, -2182, -19, -5, -1, 26, 19, 24, 30, 73, 47, 77, 30
440539280, 3926, 7694, -10033, 9651, 4045, 729, -2182, -19, -5, -1, 26, 19, 24, 30, 73, 47, 77, 30
440540086, 3926, 7694, -10033, 9651, 4045, 729, -2182, -19, -5, -1, 26, 19, 24, 30, 73, 47, 77, 30
440540874, 3926, 7694, -10033, 9651, 4045, 729, -2182, -19, -5, -1, 26, 19, 24, 30, 73, 47, 77, 30
440541672, 3926, 7694, -10033, 9651, 4045, 729, -2182, -19, -5, -1, 26, 19, 24, 30, 73, 47, 77, 30
440546893, 3926, 7694, -10033, 9651, 4060, 714, -2199, -9, -4, 3, 26, 19, 24, 30, 73, 47, 77, 30
440547728, 3926, 7694, -10033, 9651, 4060, 714, -2199, -9, -4, 3, 26, 25, 21, 30, 80, 46, 73, 29
440548538, 3926, 7694, -10033, 9651, 4060, 714, -2199, -9, -4, 3, 26, 25, 21, 30, 80, 46, 73, 29
440549341, 3926, 7694, -10033, 9651, 4060, 714, -2199, -9, -4, 3, 26, 25, 21, 30, 80, 46, 73, 29
440560826, 3926, 7694, -10033, 9651, 4060, 714, -2199, -9, -4, 3, 26, 25, 21, 30, 80, 46, 73, 29
440561638, 3926, 7694, -10033, 9651, 4060, 714, -2199, -9, -4, 3, 26, 25, 21, 30, 80, 46, 73, 29
440562471, 3926, 7694, -10033, 9651, 4060, 714, -2199, -9, -4, 3, 26, 25, 21, 30, 80, 46, 73, 29
440569268, 3926, 7694, -10033, 9651, 4060, 714, -2199, -9, -4, 3, 26, 25, 21, 30, 80, 46, 73, 29
440570041, 3926, 7694, -10033, 9651, 4060, 714, -2199, -9, -4, 3, 26, 25, 21, 30, 80, 46, 73, 29
440570994, 3926, 7694, -10033, 9651, 4027, 717, -2192, -4, 4, -1, 26, 25, 21, 30, 80, 46, 73, 29
440571802, 3926, 7694, -10033, 9651, 4027, 717, -2192, -4, 4, -1, 29, 24, 23, 29, 82, 52, 77, 30
440576866, 3926, 7694, -10033, 9651, 4027, 717, -2192, -4, 4, -1, 29, 24, 23, 29, 82, 52, 77, 30
440577646, 3926, 7694, -10033, 9651, 4027, 717, -2192, -4, 4, -1, 29, 24, 23, 29, 82, 52, 77, 30
440578454, 3926, 7694, -10033, 9651, 4027, 717, -2192, -4, 4, -1, 29, 24, 23, 29, 82, 52, 77, 30
440579243, 3926, 7694, -10033, 9651, 4027, 717, -2192, -4, 4, -1, 29, 24, 23, 29, 82, 52, 77, 30
440590808, 3926, 7694, -10033, 9651, 4027, 717, -2192, -4, 4, -1, 29, 24, 23, 29, 82, 52, 77, 30
440591711, 3926, 7694, -10033, 9651, 4027, 717, -2192, -4, 4, -1, 29, 24, 23, 29, 82, 52, 77, 30
440599285, 3926, 7694, -10033, 9651, 4027, 717, -2192, -4, 4, -1, 29, 24, 23, 29, 82, 52, 77, 30
440600106, 3926, 7694, -10033, 9651, 4027, 717, -2192, -4, 4, -1, 29, 24, 23, 29, 82, 52, 77, 30
440600883, 3926, 7694, -10033, 9651, 4027, 717, -2192, -4, 4, -1, 29, 24, 23, 29, 82, 52, 77, 30
440601830, 3926, 7694, -10033, 9651, 4009, 721, -2206, -5, 2, -9, 29, 24, 23, 29, 82, 52, 77, 30
440606853, 3926, 7694, -10033, 9651, 4009, 721, -2206, -5, 2, -9, 29, 24, 22, 28, 77, 44, 73, 32
440607649, 3926, 7694, -10033, 9651, 4009, 721, -2206, -5, 2, -9, 29, 24, 22, 28, 77, 44, 73, 32
440608451, 3926, 7694, -10033, 9651, 4009, 721, -2206, -5, 2, -9, 29, 24, 22, 28, 77, 44, 73, 32
440609268, 3926, 7694, -10033, 9651, 4009, 721, -2206, -5, 2, -9, 29, 24, 22, 28, 77, 44, 73, 32
440614287, 3926, 7694, -10033, 9651, 4009, 721, -2206, -5, 2, -9, 29, 24, 22, 28, 77, 44, 73, 32
440615028, 3926, 7694, -10033, 9651, 4009, 721, -2206, -5, 2, -9, 29, 24, 22, 28, 77, 44, 73, 32
440615848, 3926, 7694, -10033, 9651, 4009, 721, -2206, -5, 2, -9, 29, 24, 22, 28, 77, 44, 73, 32
440616654, 3926, 7694, -10033, 9651, 4009, 721, -2206, -5, 2, -9, 29, 24, 22, 28, 77, 44, 73, 32
440619482, 3926, 7694, -10033, 9651, 4009, 721, -2206, -5, 2, -9, 29, 24, 22, 28, 77, 44, 73, 32
440627124, 3926, 7694, -10033, 9651, 4027, 722, -2196, 2, -3, -8, 29, 24, 22, 28, 77, 44, 73, 32
440636845, 3926, 7694, -10033, 9651, 4027, 722, -2196, 2, -3, -8, 24, 26, 20, 23, 73, 46, 67, 27
440637655, 3926, 7694, -10033, 9651, 4027, 722, -2196, 2, -3, -8, 24, 26, 20, 23, 73, 46, 67, 27
440638439, 3926, 7694, -10033, 9651, 4027, 722, -2196, 2, -3, -8, 24, 26, 20, 23, 73, 46, 67, 27
440639260, 3926, 7694, -10033, 9651, 4027, 722, -2196, 2, -3, -8, 24, 26, 20, 23, 73, 46, 67, 27
440644194, 3926, 7694, -10033, 9651, 4027, 722, -2196, 2, -3, -8, 24, 26, 20, 23, 73, 46, 67, 27
440645011, 3926, 7694, -10033, 9651, 4027, 722, -2196, 2, -3, -8, 24, 26, 20, 23, 73, 46, 67, 27
440645806, 3926, 7694, -10033, 9651, 4027, 722, -2196, 2, -3, -8, 24, 26, 20, 23, 73, 46, 67, 27
440646629, 3926, 7694, -10033, 9651, 4027, 722, -2196, 2, -3, -8, 24, 26, 20, 23, 73, 46, 67, 27
440651901, 3926, 7694, -10033, 9651, 4039, 735, -2192, 13, -9, 1, 24, 26, 20, 23, 73, 46, 67, 27
440652656, 3926, 7694, -10033, 9651, 4039, 735, -2192, 13, -9, 1, 25, 26, 20, 21, 56, 45, 68, 28
440653466, 3926, 7694, -10033, 9651, 4039, 735, -2192, 13, -9, 1, 25, 26, 20, 21, 56, 45, 68, 28
440654264, 3926, 7694, -10033, 9651, 4039, 735, -2192, 13, -9, 1, 25, 26, 20, 21, 56, 45, 68, 28
440659222, 3926, 7694, -10033, 9651, 4039, 735, -2192, 13, -9, 1, 25, 26, 20, 21, 56, 45, 68, 28
440660038, 3926, 7694, -10033, 9651, 4039, 735, -2192, 13, -9, 1, 25, 26, 20, 21, 56, 45, 68, 28
440660835, 3926, 7694, -10033, 9651, 4039, 735, -2192, 13, -9, 1, 25, 26, 20, 21, 56, 45, 68, 28
440661659, 3926, 7694, -10033, 9651, 4039, 735, -2192, 13, -9, 1, 25, 26, 20, 21, 56, 45, 68, 28
440666773, 3926, 7694, -10033, 9651, 4039, 735, -2192, 13, -9, 1, 25, 26, 20, 21, 56, 45, 68, 28
440667669, 3923, 7696, -10031, 9653, 4009, 735, -2193, 22, -8, -1, 25, 26, 20, 21, 56, 45, 68, 28
440668490, 3923, 7696, -10031, 9653, 4009, 735, -2193, 22, -8, -1, 25, 22, 22, 22, 44, 46, 69, 30
440669281, 3923, 7696, -10031, 9653, 4009, 735, -2193, 22, -8, -1, 25, 22, 22, 22, 44, 46, 69, 30
440674321, 3923, 7696, -10031, 9653, 4009, 735, -2193, 22, -8, -1, 25, 22, 22, 22, 44, 46, 69, 30
440675112, 3923, 7696, -10031, 9653, 4009, 735, -2193, 22, -8, -1, 25, 22, 22, 22, 44, 46, 69, 30
440675934, 3923, 7696, -10031, 9653, 4009, 735, -2193, 22, -8, -1, 25, 22, 22, 22, 44, 46, 69, 30
440676734, 3923, 7696, -10031, 9653, 4009, 735, -2193, 22, -8, -1, 25, 22, 22, 22, 44, 46, 69, 30
440681715, 3923, 7696, -10031, 9653, 4009, 735, -2193, 22, -8, -1, 25, 22, 22, 22, 44, 46, 69, 30
440682529, 3923, 7696, -10031, 9653, 4009, 735, -2193, 22, -8, -1, 25, 22, 22, 22, 44, 46, 69, 30
440683324, 3923, 7696, -10031, 9653, 4009, 735, -2193, 22, -8, -1, 25, 22, 22, 22, 44, 46, 69, 30
440684153, 3923, 7696, -10031, 9653, 4009, 735, -2193, 22, -8, -1, 25, 22, 22, 22, 44, 46, 69, 30
440704253, 3923, 7696, -10031, 9653, 4009, 735, -2193, 22, -8, -1, 25, 22, 22, 22, 44, 46, 69, 30
440705183, 3923, 7696, -10031, 9653, 4009, 730, -2191, 10, -13, -1, 25, 22, 22, 22, 44, 46, 69, 30
440706190, 3923, 7696, -10031, 9653, 4009, 730, -2191, 10, -13, -1, 23, 22, 21, 28, 39, 42, 50, 30
440706837, 3923, 7696, -10031, 9653, 4009, 730, -2191, 10, -13, -1, 23, 22, 21, 28, 39, 42, 50, 30
440711852, 3923, 7696, -10031, 9653, 4009, 730, -2191, 10, -13, -1, 23, 22, 21, 28, 39, 42, 50, 30
440712678, 3923, 7696, -10031, 9653, 4009, 730, -2191, 10, -13, -1, 23, 22, 21, 28, 39, 42, 50, 30
440713509, 3923, 7696, -10031, 9653, 4009, 730, -2191, 10, -13, -1, 23, 22, 21, 28, 39, 42, 50, 30
440714322, 3923, 7696, -10031, 9653, 4009, 730, -2191, 10, -13, -1, 23, 22, 21, 28, 39, 42, 50, 30
440719229, 3923, 7696, -10031, 9653, 4009, 730, -2191, 10, -13, -1, 23, 22, 21, 28, 39, 42, 50, 30
440720038, 3923, 7696, -10031, 9653, 4009, 730, -2191, 10, -13, -1, 23, 22, 21, 28, 39, 42, 50, 30
440720934, 3923, 7696, -10031, 9653, 4009, 730, -2191, 10, -13, -1, 23, 22, 21, 28, 39, 42, 50, 30
440721734, 3923, 7696, -10031, 9653, 4009, 730, -2191, 10, -13, -1, 23, 22, 21, 28, 39, 42, 50, 30
440734276, 3923, 7696, -10031, 9653, 4009, 730, -2191, 10, -13, -1, 23, 22, 21, 28, 39, 42, 50, 30
440735199, 3923, 7696, -10031, 9653, 4010, 723, -2182, -3, -15, -8, 23, 22, 21, 28, 39, 42, 50, 30
440736004, 3923, 7696, -10031, 9653, 4010, 723, -2182, -3, -15, -8, 29, 23, 22, 30, 48, 43, 62, 33
440736895, 3923, 7696, -10031, 9653, 4010, 723, -2182, -3, -15, -8, 29, 23, 22, 30, 48, 43, 62, 33
440741849, 3923, 7696, -10031, 9653, 4010, 723, -2182, -3, -15, -8, 29, 23, 22, 30, 48, 43, 62, 33
440742652, 3923, 7696, -10031, 9653, 4010, 723, -2182, -3, -15, -8, 29, 23, 22, 30, 48, 43, 62, 33
440743494, 3923, 7696, -10031, 9653, 4010, 723, -2182, -3, -15, -8, 29, 23, 22, 30, 48, 43, 62, 33
440744290, 3923, 7696, -10031, 9653, 4010, 723, -2182, -3, -15, -8, 29, 23, 22, 30, 48, 43, 62, 33
440749248, 3923, 7696, -10031, 9653, 4010, 723, -2182, -3, -15, -8, 29, 23, 22, 30, 48, 43, 62, 33
440750071, 3923, 7696, -10031, 9653, 4010, 723, -2182, -3, -15, -8, 29, 23, 22, 30, 48, 43, 62, 33
440750848, 3923, 7696, -10031, 9653, 4010, 723, -2182, -3, -15, -8, 29, 23, 22, 30, 48, 43, 62, 33
440751662, 3923, 7696, -10031, 9653, 4010, 723, -2182, -3, -15, -8, 29, 23, 22, 30, 48, 43, 62, 33
440756790, 3923, 7696, -10031, 9653, 4010, 723, -2182, -3, -15, -8, 29, 23, 22, 30, 48, 43, 62, 33
440757725, 3923, 7699, -10032, 9650, 4039, 707, -2197, -8, -19, -11, 29, 23, 22, 30, 48, 43, 62, 33
440758503, 3923, 7699, -10032, 9650, 4039, 707, -2197, -8, -19, -11, 30, 22, 21, 29, 46, 37, 68, 35
440759313, 3923, 7699, -10032, 9650, 4039, 707, -2197, -8, -19, -11, 30, 22, 21, 29, 46, 37, 68, 35
440764321, 3923, 7699, -10032, 9650, 4039, 707, -2197, -8, -19, -11, 30, 22, 21, 29, 46, 37, 68, 35
440765145, 3923, 7699, -10032, 9650, 4039, 707, -2197, -8, -19, -11, 30, 22, 21, 29, 46, 37, 68, 35
440765938, 3923, 7699, -10032, 9650, 4039, 707, -2197, -8, -19, -11, 30, 22, 21, 29, 46, 37, 68, 35
440766798, 3923, 7699, -10032, 9650, 4039, 707, -2197, -8, -19, -11, 30, 22, 21, 29, 46, 37, 68, 35
440769557, 3923, 7699, -10032, 9650, 4039, 707, -2197, -8, -19, -11, 30, 22, 21, 29, 46, 37, 68, 35
440779265, 3923, 7699, -10032, 9650, 4039, 707, -2197, -8, -19, -11, 30, 22, 21, 29, 46, 37, 68, 35
440780017, 3923, 7699, -10032, 9650, 4039, 707, -2197, -8, -19, -11, 30, 22, 21, 29, 46, 37, 68, 35
440780867, 3923, 7699, -10032, 9650, 4039, 707, -2197, -8, -19, -11, 30, 22, 21, 29, 46, 37, 68, 35
440781684, 3923, 7699, -10032, 9650, 4039, 707, -2197, -8, -19, -11, 30, 22, 21, 29, 46, 37, 68, 35
440786961, 3922, 7704, -10030, 9648, 4034, 711, -2178, 4, -23, -21, 30, 22, 21, 29, 46, 37, 68, 35
440787736, 3922, 7704, -10030, 9648, 4034, 711, -2178, 4, -23, -21, 29, 22, 25, 29, 47, 40, 77, 35
440788508, 3922, 7704, -10030, 9648, 4034, 711, -2178, 4, -23, -21, 29, 22, 25, 29, 47, 40, 77, 35
440789297, 3922, 7704, -10030, 9648, 4034, 711, -2178, 4, -23, -21, 29, 22, 25, 29, 47, 40, 77, 35
440791980, 3922, 7704, -10030, 9648, 4034, 711, -2178, 4, -23, -21, 29, 22, 25, 29, 47, 40, 77, 35
440801778, 3922, 7704, -10030, 9648, 4034, 711, -2178, 4, -23, -21, 29, 22, 25, 29, 47, 40, 77, 35
440802545, 3922, 7704, -10030, 9648, 4034, 711, -2178, 4, -23, -21, 29, 22, 25, 29, 47, 40, 77, 35
440803425, 3922, 7704, -10030, 9648, 4034, 711, -2178, 4, -23, -21, 29, 22, 25, 29, 47, 40, 77, 35
440804269, 3922, 7704, -10030, 9648, 4034, 711, -2178, 4, -23, -21, 29, 22, 25, 29, 47, 40, 77, 35
440809390, 3922, 7708, -10028, 9647, 4030, 709, -2169, 10, -18, -22, 29, 22, 25, 29, 47, 40, 77, 35
440810184, 3922, 7708, -10028, 9647, 4030, 709, -2169, 10, -18, -22, 29, 21, 24, 30, 49, 45, 101, 34
440810985, 3922, 7708, -10028, 9647, 4030, 709, -2169, 10, -18, -22, 29, 21, 24, 30, 49, 45, 101, 34
440811853, 3922, 7708, -10028, 9647, 4030, 709, -2169, 10, -18, -22, 29, 21, 24, 30, 49, 45, 101, 34
440816773, 3922, 7708, -10028, 9647, 4030, 709, -2169, 10, -18, -22, 29, 21, 24, 30, 49, 45, 101, 34
440817588, 3922, 7708, -10028, 9647, 4030, 709, -2169, 10, -18, -22, 29, 21, 24, 30, 49, 45, 101, 34
440818432, 3922, 7708, -10028, 9647, 4030, 709, -2169, 10, -18, -22, 29, 21, 24, 30, 49, 45, 101, 34
440819225, 3922, 7708, -10028, 9647, 4030, 709, -2169, 10, -18, -22, 29, 21, 24, 30, 49, 45, 101, 34
440824316, 3922, 7708, -10028, 9647, 4030, 709, -2169, 10, -18, -22, 29, 21, 24, 30, 49, 45, 101, 34
440825154, 3921, 7712, -10026, 9646, 4028, 704, -2191, 13, -13, -19, 29, 21, 24, 30, 49, 45, 101, 34
440825976, 3921, 7712, -10026, 9646, 4028, 704, -2191, 13, -13, -19, 31, 20, 24, 26, 51, 48, 102, 36
440826904, 3921, 7712, -10026, 9646, 4028, 704, -2191, 13, -13, -19, 31, 20, 24, 26, 51, 48, 102, 36
440839332, 3921, 7712, -10026, 9646, 4028, 704, -2191, 13, -13, -19, 31, 20, 24, 26, 51, 48, 102, 36
440840118, 3921, 7712, -10026, 9646, 4028, 704, -2191, 13, -13, -19, 31, 20, 24, 26, 51, 48, 102, 36
440840934, 3921, 7712, -10026, 9646, 4028, 704, -2191, 13, -13, -19, 31, 20, 24, 26, 51, 48, 102, 36
440841760, 3921, 7712, -10026, 9646, 4028, 704, -2191, 13, -13, -19, 31, 20, 24, 26, 51, 48, 102, 36
440846747, 3921, 7712, -10026, 9646, 4028, 704, -2191, 13, -13, -19, 31, 20, 24, 26, 51, 48, 102, 36
440847558, 3921, 7712, -10026, 9646, 4028, 704, -2191, 13, -13, -19, 31, 20, 24, 26, 51, 48, 102, 36
440848370, 3921, 7712, -10026, 9646, 4028, 704, -2191, 13, -13, -19, 31, 20, 24, 26, 51, 48, 102, 36
440849229, 3921, 7712, -10026, 9646, 4028, 704, -2191, 13, -13, -19, 31, 20, 24, 26, 51, 48, 102, 36
440854383, 3921, 7712, -10026, 9646, 4028, 704, -2191, 13, -13, -19, 31, 20, 24, 26, 51, 48, 102, 36
440855257, 3921, 7712, -10026, 9646, 4039, 725, -2181, 13, -7, -9, 31, 20, 24, 26, 51, 48, 102, 36
440855994, 3921, 7712, -10026, 9646, 4039, 725, -2181, 13, -7, -9, 25, 23, 24, 30, 47, 55, 96, 33
440856827, 3921, 7712, -10026, 9646, 4039, 725, -2181, 13, -7, -9, 25, 23, 24, 30, 47, 55, 96, 33
440869333, 3921, 7712, -10026, 9646, 4039, 725, -2181, 13, -7, -9, 25, 23, 24, 30, 47, 55, 96, 33
440870140, 3921, 7712, -10026, 9646, 4039, 725, -2181, 13, -7, -9, 25, 23, 24, 30, 47, 55, 96, 33
440871014, 3921, 7712, -10026, 9646, 4039, 725, -2181, 13, -7, -9, 25, 23, 24, 30, 47, 55, 96, 33
440871791, 3921, 7712, -10026, 9646, 4039, 725, -2181, 13, -7, -9, 25, 23, 24, 30, 47, 55, 96, 33
440875207, 3921, 7712, -10026, 9646, 4039, 725, -2181, 13, -7, -9, 25, 23, 24, 30, 47, 55, 96, 33
440875995, 3921, 7712, -10026, 9646, 4039, 725, -2181, 13, -7, -9, 25, 23, 24, 30, 47, 55, 96, 33
440891712, 3921, 7712, -10026, 9646, 4039, 725, -2181, 13, -7, -9, 25, 23, 24, 30, 47, 55, 96, 33
440892549, 3921, 7712, -10026, 9646, 4039, 725, -2181, 13, -7, -9, 25, 23, 24, 30, 47, 55, 96, 33
440893458, 3921, 7712, -10026, 9646, 4039, 725, -2181, 13, -7, -9, 24, 23, 24, 33, 48, 60, 94, 30
440894261, 3921, 7712, -10026, 9646, 4039, 725, -2181, 13, -7, -9, 24, 23, 24, 33, 48, 60, 94, 30
440905948, 3921, 7712, -10026, 9646, 4039, 725, -2181, 13, -7, -9, 24, 23, 24, 33, 48, 60, 94, 30
440906796, 3921, 7712, -10026, 9646, 4039, 725, -2181, 13, -7, -9, 24, 23, 24, 33, 48, 60, 94, 30
440907587, 3921, 7712, -10026, 9646, 4039, 725, -2181, 13, -7, -9, 24, 23, 24, 33, 48, 60, 94, 30
440914222, 3921, 7712, -10026, 9646, 4039, 725, -2181, 13, -7, -9, 24, 23, 24, 33, 48, 60, 94, 30
440915029, 3921, 7712, -10026, 9646, 4039, 725, -2181, 13, -7, -9, 24, 23, 24, 33, 48, 60, 94, 30
440915859, 3921, 7712, -10026, 9646, 4039, 725, -2181, 13, -7, -9, 24, 23, 24, 33, 48, 60, 94, 30
440916673, 3921, 7712, -10026, 9646, 4039, 725, -2181, 13, -7, -9, 24, 23, 24, 33, 48, 60, 94, 30
440921775, 3921, 7712, -10026, 9646, 4039, 725, -2181, 13, -7, -9, 24, 23, 24, 33, 48, 60, 94, 30
440922684, 3921, 7712, -10026, 9646, 4039, 725, -2181, 13, -7, -9, 25, 25, 24, 34, 44, 55, 87, 30
440923585, 3921, 7712, -10026, 9646, 4039, 725, -2181, 13, -7, -9, 25, 25, 24, 34, 44, 55, 87, 30
440924284, 3921, 7712, -10026, 9646, 4039, 725, -2181, 13, -7, -9, 25, 25, 24, 34, 44, 55, 87, 30
440929284, 3921, 7712, -10026, 9646, 4039, 725, -2181, 13, -7, -9, 25, 25, 24, 34, 44, 55, 87, 30
440930086, 3921, 7712, -10026, 9646, 4039, 725, -2181, 13, -7, -9, 25, 25, 24, 34, 44, 55, 87, 30
440930917, 3921, 7712, -10026, 9646, 4039, 725, -2181, 13, -7, -9, 25, 25, 24, 34, 44, 55, 87, 30
440931744, 3921, 7712, -10026, 9646, 4039, 725, -2181, 13, -7, -9, 25, 25, 24, 34, 44, 55, 87, 30
440935182, 3921, 7712, -10026, 9646, 4039, 725, -2181, 13, -7, -9, 25, 25, 24, 34, 44, 55, 87, 30
440936013, 3921, 7712, -10026, 9646, 4039, 725, -2181, 13, -7, -9, 25, 25, 24, 34, 44, 55, 87, 30
440951729, 3921, 7712, -10026, 9646, 4039, 725, -2181, 13, -7, -9, 25, 25, 24, 34, 44, 55, 87, 30
440952522, 3921, 7712, -10026, 9646, 4039, 725, -2181, 13, -7, -9, 26, 24, 27, 31, 70, 54, 74, 25
440953375, 3921, 7712, -10026, 9646, 4039, 725, -2181, 13, -7, -9, 26, 24, 27, 31, 70, 54, 74, 25
440954368, 3902, 7723, -9999, 9673, 4023, 707, -2174, 16, 4, 0, 26, 24, 27, 31, 70, 54, 74, 25
440972995, 3902, 7723, -9999, 9673, 4023, 707, -2174, 16, 4, 0, 27, 24, 27, 33, 71, 55, 83, 27
440973748, 3902, 7723, -9999, 9673, 4023, 707, -2174, 16, 4, 0, 27, 24, 27, 33, 71, 55, 83, 27
440974701, 3902, 7723, -9999, 9673, 4030, 709, -2175, 9, 2, -1, 27, 24, 27, 33, 71, 55, 83, 27
440988001, 3902, 7723, -9999, 9673, 4030, 709, -2175, 9, 2, -1, 29, 25, 26, 27, 71, 50, 90, 27
440988786, 3902, 7723, -9999, 9673, 4030, 709, -2175, 9, 2, -1, 29, 25, 26, 27, 71, 50, 90, 27
440989728, 3902, 7723, -9999, 9673, 4017, 704, -2177, 4, 3, -1, 29, 25, 26, 27, 71, 50, 90, 27
441017968, 3902, 7723, -9999, 9673, 4017, 704, -2177, 4, 3, -1, 30, 26, 26, 26, 71, 54, 82, 27
441018744, 3902, 7723, -9999, 9673, 4017, 704, -2177, 4, 3, -1, 30, 26, 26, 26, 71, 54, 82, 27
441019683, 3902, 7723, -9999, 9673, 4023, 707, -2185, -6, 4, 0, 30, 26, 26, 26, 71, 54, 82, 27
441026860, 3902, 7723, -9999, 9673, 4023, 707, -2185, -6, 4, 0, 29, 25, 24, 29, 42, 48, 79, 23
441027677, 3902, 7723, -9999, 9673, 4023, 707, -2185, -6, 4, 0, 29, 25, 24, 29, 42, 48, 79, 23
441028425, 3902, 7723, -9999, 9673, 4023, 707, -2185, -6, 4, 0, 29, 25, 24, 29, 42, 48, 79, 23
441029304, 3902, 7723, -9999, 9673, 4023, 707, -2185, -6, 4, 0, 29, 25, 24, 29, 42, 48, 79, 23
441034238, 3902, 7723, -9999, 9673, 4023, 707, -2185, -6, 4, 0, 29, 25, 24, 29, 42, 48, 79, 23
441035006, 3902, 7723, -9999, 9673, 4023, 707, -2185, -6, 4, 0, 29, 25, 24, 29, 42, 48, 79, 23
441035837, 3902, 7723, -9999, 9673, 4023, 707, -2185, -6, 4, 0, 29, 25, 24, 29, 42, 48, 79, 23
441036661, 3902, 7723, -9999, 9673, 4023, 707, -2185, -6, 4, 0, 29, 25, 24, 29, 42, 48, 79, 23
441039285, 3902, 7723, -9999, 9673, 4047, 721, -2183, -16, 6, 12, 29, 25, 24, 29, 42, 48, 79, 23
441047932, 3902, 7723, -9999, 9673, 4047, 721, -2183, -16, 6, 12, 29, 25, 26, 28, 46, 49, 82, 24
441048756, 3902, 7723, -9999, 9673, 4047, 721, -2183, -16, 6, 12, 29, 25, 26, 28, 46, 49, 82, 24
441049687, 3902, 7723, -9999, 9673, 4033, 719, -2191, 2, 15, 15, 29, 25, 26, 28, 46, 49, 82, 24
441070938, 3902, 7723, -9999, 9673, 4033, 719, -2191, 2, 15, 15, 26, 24, 26, 28, 45, 48, 74, 26
441071803, 3902, 7723, -9999, 9673, 4033, 719, -2191, 2, 15, 15, 26, 24, 26, 28, 45, 48, 74, 26
441077146, 3900, 7719, -10001, 9676, 4032, 732, -2197, 2, 12, 27, 26, 24, 26, 28, 45, 48, 74, 26
441084703, 3900, 7719, -10001, 9676, 4032, 732, -2197, 2, 12, 27, 22, 23, 25, 31, 41, 51, 75, 23
441085510, 3900, 7719, -10001, 9676, 4032, 732, -2197, 2, 12, 27, 22, 23, 25, 31, 41, 51, 75, 23
441091694, 3898, 7716, -10000, 9679, 4014, 733, -2195, 13, 7, 18, 22, 23, 25, 31, 41, 51, 75, 23
441114487, 3898, 7716, -10000, 9679, 4014, 733, -2195, 13, 7, 18, 23, 21, 27, 30, 41, 52, 75, 24
441122258, 3898, 7716, -10000, 9679, 4014, 733, -2195, 13, 7, 18, 23, 21, 27, 30, 41, 52, 75, 24
441123192, 3898, 7716, -10000, 9679, 4026, 741, -2197, -2, -1, 10, 23, 21, 27, 30, 41, 52, 75, 24
441131843, 3898, 7716, -10000, 9679, 4026, 741, -2197, -2, -1, 10, 27, 22, 27, 26, 45, 54, 78, 29
441132667, 3898, 7716, -10000, 9679, 4026, 741, -2197, -2, -1, 10, 27, 22, 27, 26, 45, 54, 78, 29
441133427, 3898, 7716, -10000, 9679, 4026, 741, -2197, -2, -1, 10, 27, 22, 27, 26, 45, 54, 78, 29
441134285, 3898, 7716, -10000, 9679, 4026, 741, -2197, -2, -1, 10, 27, 22, 27, 26, 45, 54, 78, 29
441146792, 3898, 7716, -10000, 9679, 4026, 741, -2197, -2, -1, 10, 27, 22, 27, 26, 45, 54, 78, 29
441147565, 3898, 7716, -10000, 9679, 4026, 741, -2197, -2, -1, 10, 27, 22, 27, 26, 45, 54, 78, 29
441148360, 3898, 7716, -10000, 9679, 4026, 741, -2197, -2, -1, 10, 27, 22, 27, 26, 45, 54, 78, 29
441149201, 3898, 7716, -10000, 9679, 4026, 741, -2197, -2, -1, 10, 27, 22, 27, 26, 45, 54, 78, 29
441154346, 3899, 7717, -10003, 9676, 4026, 727, -2187, -20, -10, -3, 27, 22, 27, 26, 45, 54, 78, 29
441155276, 3899, 7717, -10003, 9676, 4026, 727, -2187, -20, -10, -3, 26, 23, 25, 33, 44, 52, 78, 30
441156070, 3899, 7717, -10003, 9676, 4026, 727, -2187, -20, -10, -3, 26, 23, 25, 33, 44, 52, 78, 30
441156801, 3899, 7717, -10003, 9676, 4026, 727, -2187, -20, -10, -3, 26, 23, 25, 33, 44, 52, 78, 30
441161735, 3899, 7717, -10003, 9676, 4026, 727, -2187, -20, -10, -3, 26, 23, 25, 33, 44, 52, 78, 30
441162527, 3899, 7717, -10003, 9676, 4026, 727, -2187, -20, -10, -3, 26, 23, 25, 33, 44, 52, 78, 30
441163321, 3899, 7717, -10003, 9676, 4026, 727, -2187, -20, -10, -3, 26, 23, 25, 33, 44, 52, 78, 30
441164189, 3899, 7717, -10003, 9676, 4026, 727, -2187, -20, -10, -3, 26, 23, 25, 33, 44, 52, 78, 30
441169250, 3899, 7717, -10003, 9676, 4026, 727, -2187, -20, -10, -3, 26, 23, 25, 33, 44, 52, 78, 30
441170155, 3901, 7719, -10004, 9672, 4032, 702, -2182, -20, -12, -17, 26, 23, 25, 33, 44, 52, 78, 30
441171011, 3901, 7719, -10004, 9672, 4032, 702, -2182, -20, -12, -17, 31, 24, 27, 33, 40, 48, 77, 30
441171861, 3901, 7719, -10004, 9672, 4032, 702, -2182, -20, -12, -17, 31, 24, 27, 33, 40, 48, 77, 30
441175263, 3901, 7719, -10004, 9672, 4032, 702, -2182, -20, -12, -17, 31, 24, 27, 33, 40, 48, 77, 30
441182683, 3901, 7719, -10004, 9672, 4032, 702, -2182, -20, -12, -17, 31, 24, 27, 33, 40, 48, 77, 30
441183484, 3901, 7719, -10004, 9672, 4032, 702, -2182, -20, -12, -17, 31, 24, 27, 33, 40, 48, 77, 30
441191718, 3901, 7719, -10004, 9672, 4032, 702, -2182, -20, -12, -17, 31, 24, 27, 33, 40, 48, 77, 30
441192516, 3901, 7719, -10004, 9672, 4032, 702, -2182, -20, -12, -17, 31, 24, 27, 33, 40, 48, 77, 30
441193338, 3901, 7719, -10004, 9672, 4032, 702, -2182, -20, -12, -17, 31, 24, 27, 33, 40, 48, 77, 30
441194138, 3901, 7719, -10004, 9672, 4032, 702, -2182, -20, -12, -17, 31, 24, 27, 33, 40, 48, 77, 30
441199217, 3901, 7719, -10004, 9672, 4032, 702, -2182, -20, -12, -17, 31, 24, 27, 33, 40, 48, 77, 30
441200115, 3901, 7719, -10004, 9672, 4032, 702, -2182, -20, -12, -17, 32, 24, 28, 32, 42, 48, 74, 33
441200940, 3901, 7719, -10004, 9672, 4032, 702, -2182, -20, -12, -17, 32, 24, 28, 32, 42, 48, 74, 33
441201803, 3901, 7719, -10004, 9672, 4032, 702, -2182, -20, -12, -17, 32, 24, 28, 32, 42, 48, 74, 33
441206859, 3901, 7719, -10004, 9672, 4032, 702, -2182, -20, -12, -17, 32, 24, 28, 32, 42, 48, 74, 33
441207654, 3901, 7719, -10004, 9672, 4032, 702, -2182, -20, -12, -17, 32, 24, 28, 32, 42, 48, 74, 33
441208465, 3901, 7719, -10004, 9672, 4032, 702, -2182, -20, -12, -17, 32, 24, 28, 32, 42, 48, 74, 33
441209290, 3901, 7719, -10004, 9672, 4032, 702, -2182, -20, -12, -17, 32, 24, 28, 32, 42, 48, 74, 33
441213308, 3901, 7719, -10004, 9672, 4032, 702, -2182, -20, -12, -17, 32, 24, 28, 32, 42, 48, 74, 33
441214175, 3901, 7719, -10004, 9672, 4032, 702, -2182, -20, -12, -17, 32, 24, 28, 32, 42, 48, 74, 33
441214939, 3901, 7719, -10004, 9672, 4032, 702, -2182, -20, -12, -17, 32, 24, 28, 32, 42, 48, 74, 33
441221597, 3901, 7719, -10004, 9672, 4032, 702, -2182, -20, -12, -17, 32, 24, 28, 32, 42, 48, 74, 33
441222456, 3906, 7723, -10004, 9667, 4034, 710, -2169, -13, -5, -17, 32, 24, 28, 32, 42, 48, 74, 33
441223244, 3906, 7723, -10004, 9667, 4034, 710, -2169, -13, -5, -17, 31, 27, 25, 32, 46, 44, 73, 32
441224107, 3906, 7723, -10004, 9667, 4034, 710, -2169, -13, -5, -17, 31, 27, 25, 32, 46, 44, 73, 32
441229319, 3906, 7723, -10004, 9667, 4034, 710, -2169, -13, -5, -17, 31, 27, 25, 32, 46, 44, 73, 32
441230156, 3906, 7723, -10004, 9667, 4034, 710, -2169, -13, -5, -17, 31, 27, 25, 32, 46, 44, 73, 32
441230927, 3906, 7723, -10004, 9667, 4034, 710, -2169, -13, -5, -17, 31, 27, 25, 32, 46, 44, 73, 32
441231721, 3906, 7723, -10004, 9667, 4034, 710, -2169, -13, -5, -17, 31, 27, 25, 32, 46, 44, 73, 32
441236713, 3906, 7723, -10004, 9667, 4034, 710, -2169, -13, -5, -17, 31, 27, 25, 32, 46, 44, 73, 32
441237678, 3906, 7723, -10004, 9667, 4034, 710, -2169, -13, -5, -17, 31, 27, 25, 32, 46, 44, 73, 32
441238366, 3906, 7723, -10004, 9667, 4034, 710, -2169, -13, -5, -17, 31, 27, 25, 32, 46, 44, 73, 32
441239230, 3906, 7723, -10004, 9667, 4034, 710, -2169, -13, -5, -17, 31, 27, 25, 32, 46, 44, 73, 32
441242789, 3906, 7723, -10004, 9667, 4034, 710, -2169, -13, -5, -17, 31, 27, 25, 32, 46, 44, 73, 32
441251872, 3906, 7723, -10004, 9667, 4043, 722, -2172, -16, -5, -7, 31, 27, 25, 32, 46, 44, 73, 32
441252654, 3906, 7723, -10004, 9667, 4043, 722, -2172, -16, -5, -7, 28, 27, 26, 32, 57, 39, 63, 28
441253456, 3906, 7723, -10004, 9667, 4043, 722, -2172, -16, -5, -7, 28, 27, 26, 32, 57, 39, 63, 28
441254258, 3906, 7723, -10004, 9667, 4043, 722, -2172, -16, -5, -7, 28, 27, 26, 32, 57, 39, 63, 28
441266745, 3906, 7723, -10004, 9667, 4043, 722, -2172, -16, -5, -7, 28, 27, 26, 32, 57, 39, 63, 28
441267519, 3906, 7723, -10004, 9667, 4043, 722, -2172, -16, -5, -7, 28, 27, 26, 32, 57, 39, 63, 28
441268355, 3906, 7723, -10004, 9667, 4043, 722, -2172, -16, -5, -7, 28, 27, 26, 32, 57, 39, 63, 28
441269125, 3906, 7723, -10004, 9667, 4043, 722, -2172, -16, -5, -7, 28, 27, 26, 32, 57, 39, 63, 28
441274255, 3906, 7723, -10004, 9667, 4043, 722, -2172, -16, -5, -7, 28, 27, 26, 32, 57, 39, 63, 28
441275171, 3908, 7722, -10007, 9663, 4055, 733, -2182, -32, -5, 0, 28, 27, 26, 32, 57, 39, 63, 28
441275987, 3908, 7722, -10007, 9663, 4055, 733, -2182, -32, -5, 0, 29, 26, 25, 28, 72, 40, 73, 32
441276782, 3908, 7722, -10007, 9663, 4055, 733, -2182, -32, -5, 0, 29, 26, 25, 28, 72, 40, 73, 32
441289398, 3908, 7722, -10007, 9663, 4055, 733, -2182, -32, -5, 0, 29, 26, 25, 28, 72, 40, 73, 32
441290198, 3908, 7722, -10007, 9663, 4055, 733, -2182, -32, -5, 0, 29, 26, 25, 28, 72, 40, 73, 32
441291032, 3908, 7722, -10007, 9663, 4055, 733, -2182, -32, -5, 0, 29, 26, 25, 28, 72, 40, 73, 32
441291807, 3908, 7722, -10007, 9663, 4055, 733, -2182, -32, -5, 0, 29, 26, 25, 28, 72, 40, 73, 32
441296678, 3908, 7722, -10007, 9663, 4055, 733, -2182, -32, -5, 0, 29, 26, 25, 28, 72, 40, 73, 32
441297493, 3908, 7722, -10007, 9663, 4055, 733, -2182, -32, -5, 0, 29, 26, 25, 28, 72, 40, 73, 32
441298355, 3908, 7722, -10007, 9663, 4055, 733, -2182, -32, -5, 0, 29, 26, 25, 28, 72, 40, 73, 32
441299135, 3908, 7722, -10007, 9663, 4055, 733, -2182, -32, -5, 0, 29, 26, 25, 28, 72, 40, 73, 32
441304256, 3908, 7722, -10007, 9663, 4055, 733, -2182, -32, -5, 0, 29, 26, 25, 28, 72, 40, 73, 32
441305273, 3910, 7723, -10009, 9660, 4038, 709, -2197, -22, -9, -10, 29, 26, 25, 28, 72, 40, 73, 32
441306066, 3910, 7723, -10009, 9660, 4038, 709, -2197, -22, -9, -10, 25, 25, 22, 30, 74, 40, 71, 32
441306826, 3910, 7723, -10009, 9660, 4038, 709, -2197, -22, -9, -10, 25, 25, 22, 30, 74, 40, 71, 32
441311838, 3910, 7723, -10009, 9660, 4038, 709, -2197, -22, -9, -10, 25, 25, 22, 30, 74, 40, 71, 32
441312656, 3910, 7723, -10009, 9660, 4038, 709, -2197, -22, -9, -10, 25, 25, 22, 30, 74, 40, 71, 32
441313442, 3910, 7723, -10009, 9660, 4038, 709, -2197, -22, -9, -10, 25, 25, 22, 30, 74, 40, 71, 32
441314288, 3910, 7723, -10009, 9660, 4038, 709, -2197, -22, -9, -10, 25, 25, 22, 30, 74, 40, 71, 32
441319216, 3910, 7723, -10009, 9660, 4038, 709, -2197, -22, -9, -10, 25, 25, 22, 30, 74, 40, 71, 32
441320009, 3910, 7723, -10009, 9660, 4038, 709, -2197, -22, -9, -10, 25, 25, 22, 30, 74, 40, 71, 32
441320824, 3910, 7723, -10009, 9660, 4038, 709, -2197, -22, -9, -10, 25, 25, 22, 30, 74, 40, 71, 32
441321716, 3910, 7723, -10009, 9660, 4038, 709, -2197, -22, -9, -10, 25, 25, 22, 30, 74, 40, 71, 32
441326739, 3910, 7723, -10009, 9660, 4038, 709, -2197, -22, -9, -10, 25, 25, 22, 30, 74, 40, 71, 32
441327658, 3912, 7724, -10012, 9655, 4030, 706, -2216, -26, -13, -11, 25, 25, 22, 30, 74, 40, 71, 32
441328486, 3912, 7724, -10012, 9655, 4030, 706, -2216, -26, -13, -11, 26, 24, 20, 31, 75, 38, 70, 29
441329318, 3912, 7724, -10012, 9655, 4030, 706, -2216, -26, -13, -11, 26, 24, 20, 31, 75, 38, 70, 29
441334300, 3912, 7724, -10012, 9655, 4030, 706, -2216, -26, -13, -11, 26, 24, 20, 31, 75, 38, 70, 29
441335137, 3912, 7724, -10012, 9655, 4030, 706, -2216, -26, -13, -11, 26, 24, 20, 31, 75, 38, 70, 29
441335922, 3912, 7724, -10012, 9655, 4030, 706, -2216, -26, -13, -11, 26, 24, 20, 31, 75, 38, 70, 29
441336722, 3912, 7724, -10012, 9655, 4030, 706, -2216, -26, -13, -11, 26, 24, 20, 31, 75, 38, 70, 29
441341693, 3912, 7724, -10012, 9655, 4030, 706, -2216, -26, -13, -11, 26, 24, 20, 31, 75, 38, 70, 29
441342547, 3912, 7724, -10012, 9655, 4030, 706, -2216, -26, -13, -11, 26, 24, 20, 31, 75, 38, 70, 29
441343333, 3912, 7724, -10012, 9655, 4030, 706, -2216, -26, -13, -11, 26, 24, 20, 31, 75, 38, 70, 29
441344161, 3912, 7724, -10012, 9655, 4030, 706, -2216, -26, -13, -11, 26, 24, 20, 31, 75, 38, 70, 29
441356907, 3913, 7727, -10014, 9650, 4049, 717, -2198, -25, -22, -14, 26, 24, 20, 31, 75, 38, 70, 29
441357714, 3913, 7727, -10014, 9650, 4049, 717, -2198, -25, -22, -14, 29, 24, 20, 31, 73, 46, 74, 30
441358445, 3913, 7727, -10014, 9650, 4049, 717, -2198, -25, -22, -14, 29, 24, 20, 31, 73, 46, 74, 30
441359274, 3913, 7727, -10014, 9650, 4049, 717, -2198, -25, -22, -14, 29, 24, 20, 31, 73, 46, 74, 30
441364231, 3913, 7727, -10014, 9650, 4049, 717, -2198, -25, -22, -14, 29, 24, 20, 31, 73, 46, 74, 30
441365025, 3913, 7727, -10014, 9650, 4049, 717, -2198, -25, -22, -14, 29, 24, 20, 31, 73, 46, 74, 30
441365815, 3913, 7727, -10014, 9650, 4049, 717, -2198, -25, -22, -14, 29, 24, 20, 31, 73, 46, 74, 30
441366638, 3913, 7727, -10014, 9650, 4049, 717, -2198, -25, -22, -14, 29, 24, 20, 31, 73, 46, 74, 30
441371765, 3913, 7727, -10014, 9650, 4049, 717, -2198, -25, -22, -14, 29, 24, 20, 31, 73, 46, 74, 30
441372692, 3913, 7731, -10015, 9645, 4043, 715, -2195, -17, -31, -19, 29, 24, 20, 31, 73, 46, 74, 30
441373610, 3913, 7731, -10015, 9645, 4043, 715, -2195, -17, -31, -19, 28, 21, 20, 33, 62, 72, 75, 31
441374442, 3913, 7731, -10015, 9645, 4043, 715, -2195, -17, -31, -19, 28, 21, 20, 33, 62, 72, 75, 31
441379324, 3913, 7731, -10015, 9645, 4043, 715, -2195, -17, -31, -19, 28, 21, 20, 33, 62, 72, 75, 31
441380112, 3913, 7731, -10015, 9645, 4043, 715, -2195, -17, -31, -19, 28, 21, 20, 33, 62, 72, 75, 31
441380926, 3913, 7731, -10015, 9645, 4043, 715, -2195, -17, -31, -19, 28, 21, 20, 33, 62, 72, 75, 31
441381745, 3913, 7731, -10015, 9645, 4043, 715, -2195, -17, -31, -19, 28, 21, 20, 33, 62, 72, 75, 31
441394195, 3913, 7731, -10015, 9645, 4043, 715, -2195, -17, -31, -19, 28, 21, 20, 33, 62, 72, 75, 31
441395019, 3913, 7731, -10015, 9645, 4043, 715, -2195, -17, -31, -19, 28, 21, 20, 33, 62, 72, 75, 31
441395812, 3913, 7731, -10015, 9645, 4043, 715, -2195, -17, -31, -19, 28, 21, 20, 33, 62, 72, 75, 31
441396687, 3913, 7731, -10015, 9645, 4043, 715, -2195, -17, -31, -19, 28, 21, 20, 33, 62, 72, 75, 31
441401738, 3913, 7731, -10015, 9645, 4043, 715, -2195, -17, -31, -19, 28, 21, 20, 33, 62, 72, 75, 31
441402654, 3913, 7739, -10014, 9641, 3988, 688, -2192, -1, -34, -37, 28, 21, 20, 33, 62, 72, 75, 31
441403483, 3913, 7739, -10014, 9641, 3988, 688, -2192, -1, -34, -37, 27, 24, 19, 30, 50, 76, 75, 25
441404305, 3913, 7739, -10014, 9641, 3988, 688, -2192, -1, -34, -37, 27, 24, 19, 30, 50, 76, 75, 25
441409354, 3913, 7739, -10014, 9641, 3988, 688, -2192, -1, -34, -37, 27, 24, 19, 30, 50, 76, 75, 25
441410129, 3913, 7739, -10014, 9641, 3988, 688, -2192, -1, -34, -37, 27, 24, 19, 30, 50, 76, 75, 25
441410951, 3913, 7739, -10014, 9641, 3988, 688, -2192, -1, -34, -37, 27, 24, 19, 30, 50, 76, 75, 25
441411792, 3913, 7739, -10014, 9641, 3988, 688, -2192, -1, -34, -37, 27, 24, 19, 30, 50, 76, 75, 25
441416726, 3913, 7739, -10014, 9641, 3988, 688, -2192, -1, -34, -37, 27, 24, 19, 30, 50, 76, 75, 25
441417544, 3913, 7739, -10014, 9641, 3988, 688, -2192, -1, -34, -37, 27, 24, 19, 30, 50, 76, 75, 25
441418319, 3913, 7739, -10014, 9641, 3988, 688, -2192, -1, -34, -37, 27, 24, 19, 30, 50, 76, 75, 25
441419146, 3913, 7739, -10014, 9641, 3988, 688, -2192, -1, -34, -37, 27, 24, 19, 30, 50, 76, 75, 25
441424253, 3913, 7739, -10014, 9641, 3988, 688, -2192, -1, -34, -37, 27, 24, 19, 30, 50, 76, 75, 25
441425137, 3915, 7746, -10011, 9637, 3972, 674, -2182, 2, -24, -45, 27, 24, 19, 30, 50, 76, 75, 25
441425964, 3915, 7746, -10011, 9637, 3972, 674, -2182, 2, -24, -45, 27, 24, 22, 31, 49, 77, 79, 23
441426788, 3915, 7746, -10011, 9637, 3972, 674, -2182, 2, -24, -45, 27, 24, 22, 31, 49, 77, 79, 23
441430888, 3915, 7746, -10011, 9637, 3972, 674, -2182, 2, -24, -45, 27, 24, 22, 31, 49, 77, 79, 23
441431739, 3915, 7746, -10011, 9637, 3972, 674, -2182, 2, -24, -45, 27, 24, 22, 31, 49, 77, 79, 23
441432516, 3915, 7746, -10011, 9637, 3972, 674, -2182, 2, -24, -45, 27, 24, 22, 31, 49, 77, 79, 23
441446711, 3915, 7746, -10011, 9637, 3972, 674, -2182, 2, -24, -45, 27, 24, 22, 31, 49, 77, 79, 23
441447510, 3915, 7746, -10011, 9637, 3972, 674, -2182, 2, -24, -45, 27, 24, 22, 31, 49, 77, 79, 23
441448316, 3915, 7746, -10011, 9637, 3972, 674, -2182, 2, -24, -45, 27, 24, 22, 31, 49, 77, 79, 23
441449137, 3915, 7746, -10011, 9637, 3972, 674, -2182, 2, -24, -45, 27, 24, 22, 31, 49, 77, 79, 23
441454326, 3915, 7746, -10011, 9637, 3972, 674, -2182, 2, -24, -45, 27, 24, 22, 31, 49, 77, 79, 23
441455235, 3919, 7749, -10008, 9636, 3989, 694, -2187, -2, 3, -32, 27, 24, 22, 31, 49, 77, 79, 23
441456013, 3919, 7749, -10008, 9636, 3989, 694, -2187, -2, 3, -32, 26, 23, 22, 30, 47, 77, 87, 25
441456799, 3919, 7749, -10008, 9636, 3989, 694, -2187, -2, 3, -32, 26, 23, 22, 30, 47, 77, 87, 25
441469329, 3919, 7749, -10008, 9636, 3989, 694, -2187, -2, 3, -32, 26, 23, 22, 30, 47, 77, 87, 25
441470094, 3919, 7749, -10008, 9636, 3989, 694, -2187, -2, 3, -32, 26, 23, 22, 30, 47, 77, 87, 25
441470920, 3919, 7749, -10008, 9636, 3989, 694, -2187, -2, 3, -32, 26, 23, 22, 30, 47, 77, 87, 25
441471719, 3919, 7749, -10008, 9636, 3989, 694, -2187, -2, 3, -32, 26, 23, 22, 30, 47, 77, 87, 25
441476713, 3919, 7749, -10008, 9636, 3989, 694, -2187, -2, 3, -32, 26, 23, 22, 30, 47, 77, 87, 25
441477535, 3919, 7749, -10008, 9636, 3989, 694, -2187, -2, 3, -32, 26, 23, 22, 30, 47, 77, 87, 25
441478323, 3919, 7749, -10008, 9636, 3989, 694, -2187, -2, 3, -32, 26, 23, 22, 30, 47, 77, 87, 25
441479177, 3919, 7749, -10008, 9636, 3989, 694, -2187, -2, 3, -32, 26, 23, 22, 30, 47, 77, 87, 25
441484213, 3919, 7749, -10008, 9636, 3989, 694, -2187, -2, 3, -32, 26, 23, 22, 30, 47, 77, 87, 25
441485181, 3919, 7749, -10008, 9636, 4001, 752, -2188, 15, 15, 0, 26, 23, 22, 30, 47, 77, 87, 25
441485966, 3919, 7749, -10008, 9636, 4001, 752, -2188, 15, 15, 0, 22, 22, 21, 33, 48, 72, 105, 26
441486747, 3919, 7749, -10008, 9636, 4001, 752, -2188, 15, 15, 0, 22, 22, 21, 33, 48, 72, 105, 26
441490944, 3919, 7749, -10008, 9636, 4001, 752, -2188, 15, 15, 0, 22, 22, 21, 33, 48, 72, 105, 26
441491728, 3919, 7749, -10008, 9636, 4001, 752, -2188, 15, 15, 0, 22, 22, 21, 33, 48, 72, 105, 26
441492551, 3919, 7749, -10008, 9636, 4001, 752, -2188, 15, 15, 0, 22, 22, 21, 33, 48, 72, 105, 26
441499208, 3919, 7749, -10008, 9636, 4001, 752, -2188, 15, 15, 0, 22, 22, 21, 33, 48, 72, 105, 26
441500030, 3919, 7749, -10008, 9636, 4001, 752, -2188, 15, 15, 0, 22, 22, 21, 33, 48, 72, 105, 26
441500801, 3919, 7749, -10008, 9636, 4001, 752, -2188, 15, 15, 0, 22, 22, 21, 33, 48, 72, 105, 26
441501675, 3919, 7749, -10008, 9636, 4001, 752, -2188, 15, 15, 0, 22, 22, 21, 33, 48, 72, 105, 26
441506796, 3919, 7749, -10008, 9636, 4001, 752, -2188, 15, 15, 0, 22, 22, 21, 33, 48, 72, 105, 26
441507565, 3919, 7749, -10008, 9636, 4001, 752, -2188, 15, 15, 0, 22, 22, 21, 33, 48, 72, 105, 26
441508568, 3914, 7745, -10007, 9642, 4000, 776, -2180, 33, 17, 33, 22, 22, 21, 33, 48, 72, 105, 26
441509349, 3914, 7745, -10007, 9642, 4000, 776, -2180, 33, 17, 33, 25, 23, 20, 33, 49, 47, 107, 28
441514334, 3914, 7745, -10007, 9642, 4000, 776, -2180, 33, 17, 33, 25, 23, 20, 33, 49, 47, 107, 28
441515124, 3914, 7745, -10007, 9642, 4000, 776, -2180, 33, 17, 33, 25, 23, 20, 33, 49, 47, 107, 28
441515915, 3914, 7745, -10007, 9642, 4000, 776, -2180, 33, 17, 33, 25, 23, 20, 33, 49, 47, 107, 28
441516738, 3914, 7745, -10007, 9642, 4000, 776, -2180, 33, 17, 33, 25, 23, 20, 33, 49, 47, 107, 28
441521477, 3914, 7745, -10007, 9642, 4000, 776, -2180, 33, 17, 33, 25, 23, 20, 33, 49, 47, 107, 28
441522367, 3914, 7745, -10007, 9642, 4000, 776, -2180, 33, 17, 33, 25, 23, 20, 33, 49, 47, 107, 28
441523188, 3914, 7745, -10007, 9642, 4000, 776, -2180, 33, 17, 33, 25, 23, 20, 33, 49, 47, 107, 28
441529248, 3914, 7745, -10007, 9642, 4000, 776, -2180, 33, 17, 33, 25, 23, 20, 33, 49, 47, 107, 28
441530083, 3914, 7745, -10007, 9642, 4000, 776, -2180, 33, 17, 33, 25, 23, 20, 33, 49, 47, 107, 28
441530988, 3906, 7739, -10009, 9649, 4042, 803, -2163, 28, 7, 61, 25, 23, 20, 33, 49, 47, 107, 28
441531796, 3906, 7739, -10009, 9649, 4042, 803, -2163, 28, 7, 61, 24, 22, 23, 33, 45, 56, 103, 28
441536789, 3906, 7739, -10009, 9649, 4042, 803, -2163, 28, 7, 61, 24, 22, 23, 33, 45, 56, 103, 28
441537659, 3906, 7739, -10009, 9649, 4042, 803, -2163, 28, 7, 61, 24, 22, 23, 33, 45, 56, 103, 28
441538399, 3906, 7739, -10009, 9649, 4042, 803, -2163, 28, 7, 61, 24, 22, 23, 33, 45, 56, 103, 28
441539297, 3906, 7739, -10009, 9649, 4042, 803, -2163, 28, 7, 61, 24, 22, 23, 33, 45, 56, 103, 28
441544211, 3906, 7739, -10009, 9649, 4042, 803, -2163, 28, 7, 61, 24, 22, 23, 33, 45, 56, 103, 28
441544978, 3906, 7739, -10009, 9649, 4042, 803, -2163, 28, 7, 61, 24, 22, 23, 33, 45, 56, 103, 28
441545790, 3906, 7739, -10009, 9649, 4042, 803, -2163, 28, 7, 61, 24, 22, 23, 33, 45, 56, 103, 28
441546637, 3906, 7739, -10009, 9649, 4042, 803, -2163, 28, 7, 61, 24, 22, 23, 33, 45, 56, 103, 28
441551705, 3906, 7739, -10009, 9649, 4042, 803, -2163, 28, 7, 61, 24, 22, 23, 33, 45, 56, 103, 28
441552669, 3899, 7733, -10013, 9652, 4070, 795, -2194, 5, -5, 58, 24, 22, 23, 33, 45, 56, 103, 28
441553448, 3899, 7733, -10013, 9652, 4070, 795, -2194, 5, -5, 58, 24, 21, 22, 31, 45, 56, 104, 31
441554269, 3899, 7733, -10013, 9652, 4070, 795, -2194, 5, -5, 58, 24, 21, 22, 31, 45, 56, 104, 31
441558412, 3899, 7733, -10013, 9652, 4070, 795, -2194, 5, -5, 58, 24, 21, 22, 31, 45, 56, 104, 31
441559187, 3899, 7733, -10013, 9652, 4070, 795, -2194, 5, -5, 58, 24, 21, 22, 31, 45, 56, 104, 31
441574232, 3899, 7733, -10013, 9652, 4070, 795, -2194, 5, -5, 58, 24, 21, 22, 31, 45, 56, 104, 31
441575028, 3899, 7733, -10013, 9652, 4070, 795, -2194, 5, -5, 58, 24, 21, 22, 31, 45, 56, 104, 31
441575875, 3899, 7733, -10013, 9652, 4070, 795, -2194, 5, -5, 58, 24, 21, 22, 31, 45, 56, 104, 31
441576662, 3899, 7733, -10013, 9652, 4070, 795, -2194, 5, -5, 58, 24, 21, 22, 31, 45, 56, 104, 31
441581725, 3899, 7733, -10013, 9652, 4070, 795, -2194, 5, -5, 58, 24, 21, 22, 31, 45, 56, 104, 31
441582532, 3899, 7733, -10013, 9652, 4070, 795, -2194, 5, -5, 58, 24, 21, 22, 31, 45, 56, 104, 31
441583345, 3899, 7733, -10013, 9652, 4070, 795, -2194, 5, -5, 58, 24, 21, 22, 31, 45, 56, 104, 31
441584291, 3899, 7733, -10013, 9652, 4070, 795, -2194, 5, -5, 58, 23, 22, 21, 28, 45, 60, 95, 30
441589352, 3899, 7733, -10013, 9652, 4070, 795, -2194, 5, -5, 58, 23, 22, 21, 28, 45, 60, 95, 30
441590242, 3899, 7733, -10013, 9652, 4070, 795, -2194, 5, -5, 58, 23, 22, 21, 28, 45, 60, 95, 30
441590926, 3899, 7733, -10013, 9652, 4070, 795, -2194, 5, -5, 58, 23, 22, 21, 28, 45, 60, 95, 30
441591757, 3899, 7733, -10013, 9652, 4070, 795, -2194, 5, -5, 58, 23, 22, 21, 28, 45, 60, 95, 30
441596734, 3899, 7733, -10013, 9652, 4070, 795, -2194, 5, -5, 58, 23, 22, 21, 28, 45, 60, 95, 30
441597533, 3899, 7733, -10013, 9652, 4070, 795, -2194, 5, -5, 58, 23, 22, 21, 28, 45, 60, 95, 30
441598369, 3899, 7733, -10013, 9652, 4070, 795, -2194, 5, -5, 58, 23, 22, 21, 28, 45, 60, 95, 30
441599204, 3899, 7733, -10013, 9652, 4070, 795, -2194, 5, -5, 58, 23, 22, 21, 28, 45, 60, 95, 30
441611862, 3906, 7727, -10031, 9636, 4069, 728, -2192, -86, -12, -6, 23, 22, 21, 28, 45, 60, 95, 30
441612650, 3906, 7727, -10031, 9636, 4069, 728, -2192, -86, -12, -6, 24, 23, 21, 27, 53, 62, 70, 31
441613443, 3906, 7727, -10031, 9636, 4069, 728, -2192, -86, -12, -6, 24, 23, 21, 27, 53, 62, 70, 31
441614262, 3906, 7727, -10031, 9636, 4069, 728, -2192, -86, -12, -6, 24, 23, 21, 27, 53, 62, 70, 31
441624491, 3906, 7727, -10031, 9636, 4069, 728, -2192, -86, -12, -6, 24, 23, 21, 27, 53, 62, 70, 31
441632693, 3906, 7727, -10031, 9636, 4069, 728, -2192, -86, -12, -6, 24, 23, 21, 27, 53, 62, 70, 31
441633390, 3906, 7727, -10031, 9636, 4069, 728, -2192, -86, -12, -6, 24, 23, 21, 27, 53, 62, 70, 31
441641705, 3906, 7727, -10031, 9636, 4069, 728, -2192, -86, -12, -6, 24, 23, 21, 27, 53, 62, 70, 31
441642696, 3906, 7727, -10031, 9636, 4069, 728, -2192, -86, -12, -6, 24, 24, 24, 25, 51, 61, 107, 33
441643350, 3906, 7727, -10031, 9636, 4069, 728, -2192, -86, -12, -6, 24, 24, 24, 25, 51, 61, 107, 33
441644220, 3906, 7727, -10031, 9636, 4069, 728, -2192, -86, -12, -6, 24, 24, 24, 25, 51, 61, 107, 33
441649288, 3906, 7727, -10031, 9636, 4069, 728, -2192, -86, -12, -6, 24, 24, 24, 25, 51, 61, 107, 33
441650129, 3906, 7727, -10031, 9636, 4069, 728, -2192, -86, -12, -6, 24, 24, 24, 25, 51, 61, 107, 33
441650914, 3906, 7727, -10031, 9636, 4069, 728, -2192, -86, -12, -6, 24, 24, 24, 25, 51, 61, 107, 33
441651703, 3906, 7727, -10031, 9636, 4069, 728, -2192, -86, -12, -6, 24, 24, 24, 25, 51, 61, 107, 33
441664235, 3906, 7727, -10031, 9636, 4069, 728, -2192, -86, -12, -6, 24, 24, 24, 25, 51, 61, 107, 33
441665039, 3906, 7727, -10031, 9636, 4069, 728, -2192, -86, -12, -6, 24, 24, 24, 25, 51, 61, 107, 33
441665872, 3906, 7727, -10031, 9636, 4069, 728, -2192, -86, -12, -6, 24, 24, 24, 25, 51, 61, 107, 33
441666669, 3906, 7727, -10031, 9636, 4069, 728, -2192, -86, -12, -6, 24, 24, 24, 25, 51, 61, 107, 33
441670831, 3906, 7727, -10031, 9636, 4069, 728, -2192, -86, -12, -6, 24, 24, 24, 25, 51, 61, 107, 33
441671768, 3920, 7733, -10027, 9629, 4005, 668, -2229, 15, 13, -48, 24, 24, 24, 25, 51, 61, 107, 33
441672555, 3920, 7733, -10027, 9629, 4005, 668, -2229, 15, 13, -48, 31, 24, 25, 23, 54, 71, 158, 58
441679311, 3920, 7733, -10027, 9629, 4005, 668, -2229, 15, 13, -48, 31, 24, 25, 23, 54, 71, 158, 58
441680101, 3920, 7733, -10027, 9629, 4005, 668, -2229, 15, 13, -48, 31, 24, 25, 23, 54, 71, 158, 58
441680890, 3920, 7733, -10027, 9629, 4005, 668, -2229, 15, 13, -48, 31, 24, 25, 23, 54, 71, 158, 58
441681713, 3920, 7733, -10027, 9629, 4005, 668, -2229, 15, 13, -48, 31, 24, 25, 23, 54, 71, 158, 58
441686694, 3920, 7733, -10027, 9629, 4005, 668, -2229, 15, 13, -48, 31, 24, 25, 23, 54, 71, 158, 58
441687477, 3920, 7733, -10027, 9629, 4005, 668, -2229, 15, 13, -48, 31, 24, 25, 23, 54, 71, 158, 58
441688299, 3920, 7733, -10027, 9629, 4005, 668, -2229, 15, 13, -48, 31, 24, 25, 23, 54, 71, 158, 58
441689190, 3920, 7733, -10027, 9629, 4005, 668, -2229, 15, 13, -48, 31, 24, 25, 23, 54, 71, 158, 58
441692682, 3920, 7733, -10027, 9629, 4005, 668, -2229, 15, 13, -48, 31, 24, 25, 23, 54, 71, 158, 58
441701847, 3923, 7744, -10032, 9614, 3894, 946, -2243, -60, -73, -55, 31, 24, 25, 23, 54, 71, 158, 58
441702646, 3923, 7744, -10032, 9614, 3894, 946, -2243, -60, -73, -55, 37, 28, 25, 25, 62, 82, 199, 111
441703428, 3923, 7744, -10032, 9614, 3894, 946, -2243, -60, -73, -55, 37, 28, 25, 25, 62, 82, 199, 111
441704256, 3923, 7744, -10032, 9614, 3894, 946, -2243, -60, -73, -55, 37, 28, 25, 25, 62, 82, 199, 111
441709225, 3923, 7744, -10032, 9614, 3894, 946, -2243, -60, -73, -55, 37, 28, 25, 25, 62, 82, 199, 111
441710046, 3923, 7744, -10032, 9614, 3894, 946, -2243, -60, -73, -55, 37, 28, 25, 25, 62, 82, 199, 111
441710868, 3923, 7744, -10032, 9614, 3894, 946, -2243, -60, -73, -55, 37, 28, 25, 25, 62, 82, 199, 111
441711685, 3923, 7744, -10032, 9614, 3894, 946, -2243, -60, -73, -55, 37, 28, 25, 25, 62, 82, 199, 111
441716725, 3923, 7744, -10032, 9614, 3894, 946, -2243, -60, -73, -55, 37, 28, 25, 25, 62, 82, 199, 111
441717687, 3974, 7753, -10090, 9525, 4275, 1187, -2606, -622, -170, -166, 37, 28, 25, 25, 62, 82, 199, 111
441718496, 3974, 7753, -10090, 9525, 4275, 1187, -2606, -622, -170, -166, 74, 55, 41, 30, 63, 86, 238, 169
441719308, 3974, 7753, -10090, 9525, 4275, 1187, -2606, -622, -170, -166, 74, 55, 41, 30, 63, 86, 238, 169
441724358, 3974, 7753, -10090, 9525, 4275, 1187, -2606, -622, -170, -166, 74, 55, 41, 30, 63, 86, 238, 169
441725120, 3974, 7753, -10090, 9525, 4275, 1187, -2606, -622, -170, -166, 74, 55, 41, 30, 63, 86, 238, 169
441725904, 3974, 7753, -10090, 9525, 4275, 1187, -2606, -622, -170, -166, 74, 55, 41, 30, 63, 86, 238, 169
441726755, 3974, 7753, -10090, 9525, 4275, 1187, -2606, -622, -170, -166, 74, 55, 41, 30, 63, 86, 238, 169
441746714, 3974, 7753, -10090, 9525, 4275, 1187, -2606, -622, -170, -166, 74, 55, 41, 30, 63, 86, 238, 169
441747525, 3974, 7753, -10090, 9525, 4275, 1187, -2606, -622, -170, -166, 74, 55, 41, 30, 63, 86, 238, 169
441748344, 3974, 7753, -10090, 9525, 4275, 1187, -2606, -622, -170, -166, 74, 55, 41, 30, 63, 86, 238, 169
441749179, 3974, 7753, -10090, 9525, 4275, 1187, -2606, -622, -170, -166, 74, 55, 41, 30, 63, 86, 238, 169
441754223, 3974, 7753, -10090, 9525, 4275, 1187, -2606, -622, -170, -166, 74, 55, 41, 30, 63, 86, 238, 169
441755144, 4064, 7771, -10178, 9376, 4379, 1263, -2965, -1013, -262, -322, 74, 55, 41, 30, 63, 86, 238, 169
441755953, 4064, 7771, -10178, 9376, 4379, 1263, -2965, -1013, -262, -322, 91, 66, 85, 44, 79, 113, 269, 196
441756878, 4064, 7771, -10178, 9376, 4379, 1263, -2965, -1013, -262, -322, 91, 66, 85, 44, 79, 113, 269, 196
441761813, 4064, 7771, -10178, 9376, 4379, 1263, -2965, -1013, -262, -322, 91, 66, 85, 44, 79, 113, 269, 196
441762655, 4064, 7771, -10178, 9376, 4379, 1263, -2965, -1013, -262, -322, 91, 66, 85, 44, 79, 113, 269, 196
441763383, 4064, 7771, -10178, 9376, 4379, 1263, -2965, -1013, -262, -322, 91, 66, 85, 44, 79, 113, 269, 196
441764261, 4064, 7771, -10178, 9376, 4379, 1263, -2965, -1013, -262, -322, 91, 66, 85, 44, 79, 113, 269, 196
441769207, 4064, 7771, -10178, 9376, 4379, 1263, -2965, -1013, -262, -322, 91, 66, 85, 44, 79, 113, 269, 196
441770045, 4064, 7771, -10178, 9376, 4379, 1263, -2965, -1013, -262, -322, 91, 66, 85, 44, 79, 113, 269, 196
441770871, 4064, 7771, -10178, 9376, 4379, 1263, -2965, -1013, -262, -322, 91, 66, 85, 44, 79, 113, 269, 196
441771750, 4064, 7771, -10178, 9376, 4379, 1263, -2965, -1013, -262, -322, 91, 66, 85, 44, 79, 113, 269, 196
441776726, 4064, 7771, -10178, 9376, 4379, 1263, -2965, -1013, -262, -322, 91, 66, 85, 44, 79, 113, 269, 196
441777663, 4112, 7838, -10241, 9231, 3756, 1173, -2901, -743, -518, -424, 91, 66, 85, 44, 79, 113, 269, 196
441778562, 4112, 7838, -10241, 9231, 3756, 1173, -2901, -743, -518, -424, 117, 75, 108, 52, 100, 151, 297, 197
441779313, 4112, 7838, -10241, 9231, 3756, 1173, -2901, -743, -518, -424, 117, 75, 108, 52, 100, 151, 297, 197
441784314, 4112, 7838, -10241, 9231, 3756, 1173, -2901, -743, -518, -424, 117, 75, 108, 52, 100, 151, 297, 197
441785133, 4112, 7838, -10241, 9231, 3756, 1173, -2901, -743, -518, -424, 117, 75, 108, 52, 100, 151, 297, 197
441785917, 4112, 7838, -10241, 9231, 3756, 1173, -2901, -743, -518, -424, 117, 75, 108, 52, 100, 151, 297, 197
441786731, 4112, 7838, -10241, 9231, 3756, 1173, -2901, -743, -518, -424, 117, 75, 108, 52, 100, 151, 297, 197
441791717, 4112, 7838, -10241, 9231, 3756, 1173, -2901, -743, -518, -424, 117, 75, 108, 52, 100, 151, 297, 197
441792491, 4112, 7838, -10241, 9231, 3756, 1173, -2901, -743, -518, -424, 117, 75, 108, 52, 100, 151, 297, 197
441793293, 4112, 7838, -10241, 9231, 3756, 1173, -2901, -743, -518, -424, 117, 75, 108, 52, 100, 151, 297, 197
441794081, 4112, 7838, -10241, 9231, 3756, 1173, -2901, -743, -518, -424, 117, 75, 108, 52, 100, 151, 297, 197
441799218, 4112, 7838, -10241, 9231, 3756, 1173, -2901, -743, -518, -424, 117, 75, 108, 52, 100, 151, 297, 197
441800153, 4124, 7971, -10273, 9074, 3781, 1100, -3166, -497, -846, -640, 117, 75, 108, 52, 100, 151, 297, 197
441801015, 4124, 7971, -10273, 9074, 3781, 1100, -3166, -497, -846, -640, 129, 100, 126, 56, 107, 161, 328, 195
441801788, 4124, 7971, -10273, 9074, 3781, 1100, -3166, -497, -846, -640, 129, 100, 126, 56, 107, 161, 328, 195
441806932, 4124, 7971, -10273, 9074, 3781, 1100, -3166, -497, -846, -640, 129, 100, 126, 56, 107, 161, 328, 195
441807785, 4124, 7971, -10273, 9074, 3781, 1100, -3166, -497, -846, -640, 129, 100, 126, 56, 107, 161, 328, 195
441808479, 4124, 7971, -10273, 9074, 3781, 1100, -3166, -497, -846, -640, 129, 100, 126, 56, 107, 161, 328, 195
441809241, 4124, 7971, -10273, 9074, 3781, 1100, -3166, -497, -846, -640, 129, 100, 126, 56, 107, 161, 328, 195
441814211, 4124, 7971, -10273, 9074, 3781, 1100, -3166, -497, -846, -640, 129, 100, 126, 56, 107, 161, 328, 195
441814992, 4124, 7971, -10273, 9074, 3781, 1100, -3166, -497, -846, -640, 129, 100, 126, 56, 107, 161, 328, 195
441815812, 4124, 7971, -10273, 9074, 3781, 1100, -3166, -497, -846, -640, 129, 100, 126, 56, 107, 161, 328, 195
441816651, 4124, 7971, -10273, 9074, 3781, 1100, -3166, -497, -846, -640, 129, 100, 126, 56, 107, 161, 328, 195
441821741, 4124, 7971, -10273, 9074, 3781, 1100, -3166, -497, -846, -640, 129, 100, 126, 56, 107, 161, 328, 195
441822689, 4099, 8194, -10262, 8897, 3841, 1431, -3568, -202, -1244, -984, 129, 100, 126, 56, 107, 161, 328, 195
441823466, 4099, 8194, -10262, 8897, 3841, 1431, -3568, -202, -1244, -984, 144, 147, 197, 57, 112, 173, 327, 187
441824378, 4099, 8194, -10262, 8897, 3841, 1431, -3568, -202, -1244, -984, 129, 100, 126, 56, 107, 161, 328, 195
441829298, 4099, 8194, -10262, 8897, 3841, 1431, -3568, -202, -1244, -984, 144, 147, 197, 57, 112, 173, 327, 187
441830079, 4099, 8194, -10262, 8897, 3841, 1431, -3568, -202, -1244, -984, 144, 147, 197, 57, 112, 173, 327, 187
441830931, 4099, 8194, -10262, 8897, 3841, 1431, -3568, -202, -1244, -984, 144, 147, 197, 57, 112, 173, 327, 187
441831725, 4099, 8194, -10262, 8897, 3841, 1431, -3568, -202, -1244, -984, 144, 147, 197, 57, 112, 173, 327, 187
441836684, 4099, 8194, -10262, 8897, 3841, 1431, -3568, -202, -1244, -984, 144, 147, 197, 57, 112, 173, 327, 187
441837504, 4099, 8194, -10262, 8897, 3841, 1431, -3568, -202, -1244, -984, 144, 147, 197, 57, 112, 173, 327, 187
441838341, 4099, 8194, -10262, 8897, 3841, 1431, -3568, -202, -1244, -984, 144, 147, 197, 57, 112, 173, 327, 187
441839112, 4099, 8194, -10262, 8897, 3841, 1431, -3568, -202, -1244, -984, 144, 147, 197, 57, 112, 173, 327, 187
441844199, 4099, 8194, -10262, 8897, 3841, 1431, -3568, -202, -1244, -984, 144, 147, 197, 57, 112, 173, 327, 187
441845117, 4067, 8516, -10201, 8678, 3847, 2023, -3555, -45, -1619, -1509, 144, 147, 197, 57, 112, 173, 327, 187
441845921, 4067, 8516, -10201, 8678, 3847, 2023, -3555, -45, -1619, -1509, 139, 160, 208, 58, 116, 194, 342, 144
441846750, 4067, 8516, -10201, 8678, 3847, 2023, -3555, -45, -1619, -1509, 139, 160, 208, 58, 116, 194, 342, 144
441851763, 4067, 8516, -10201, 8678, 3847, 2023, -3555, -45, -1619, -1509, 139, 160, 208, 58, 116, 194, 342, 144
441852575, 4067, 8516, -10201, 8678, 3847, 2023, -3555, -45, -1619, -1509, 139, 160, 208, 58, 116, 194, 342, 144
441853390, 4067, 8516, -10201, 8678, 3847, 2023, -3555, -45, -1619, -1509, 139, 160, 208, 58, 116, 194, 342, 144
441854210, 4067, 8516, -10201, 8678, 3847, 2023, -3555, -45, -1619, -1509, 139, 160, 208, 58, 116, 194, 342, 144
441859187, 4067, 8516, -10201, 8678, 3847, 2023, -3555, -45, -1619, -1509, 139, 160, 208, 58, 116, 194, 342, 144
441859968, 4067, 8516, -10201, 8678, 3847, 2023, -3555, -45, -1619, -1509, 139, 160, 208, 58, 116, 194, 342, 144
441860790, 4067, 8516, -10201, 8678, 3847, 2023, -3555, -45, -1619, -1509, 139, 160, 208, 58, 116, 194, 342, 144
441861671, 4067, 8516, -10201, 8678, 3847, 2023, -3555, -45, -1619, -1509, 139, 160, 208, 58, 116, 194, 342, 144
441866768, 4067, 8516, -10201, 8678, 3847, 2023, -3555, -45, -1619, -1509, 139, 160, 208, 58, 116, 194, 342, 144
441867672, 4077, 8934, -10086, 8383, 3788, 2291, -3583, -136, -1903, -2233, 139, 160, 208, 58, 116, 194, 342, 144
441868468, 4077, 8934, -10086, 8383, 3788, 2291, -3583, -136, -1903, -2233, 136, 156, 205, 71, 234, 215, 388, 107
441869277, 4077, 8934, -10086, 8383, 3788, 2291, -3583, -136, -1903, -2233, 136, 156, 205, 71, 234, 215, 388, 107
441874377, 4077, 8934, -10086, 8383, 3788, 2291, -3583, -136, -1903, -2233, 136, 156, 205, 71, 234, 215, 388, 107
441875147, 4077, 8934, -10086, 8383, 3788, 2291, -3583, -136, -1903, -2233, 136, 156, 205, 71, 234, 215, 388, 107
441875923, 4077, 8934, -10086, 8383, 3788, 2291, -3583, -136, -1903, -2233, 136, 156, 205, 71, 234, 215, 388, 107
441876786, 4077, 8934, -10086, 8383, 3788, 2291, -3583, -136, -1903, -2233, 136, 156, 205, 71, 234, 215, 388, 107
441882067, 4077, 8934, -10086, 8383, 3788, 2291, -3583, -136, -1903, -2233, 136, 156, 205, 71, 234, 215, 388, 107
441882493, 4077, 8934, -10086, 8383, 3788, 2291, -3583, -136, -1903, -2233, 136, 156, 205, 71, 234, 215, 388, 107
441883314, 4077, 8934, -10086, 8383, 3788, 2291, -3583, -136, -1903, -2233, 136, 156, 205, 71, 234, 215, 388, 107
441884152, 4077, 8934, -10086, 8383, 3788, 2291, -3583, -136, -1903, -2233, 136, 156, 205, 71, 234, 215, 388, 107
441889215, 4077, 8934, -10086, 8383, 3788, 2291, -3583, -136, -1903, -2233, 136, 156, 205, 71, 234, 215, 388, 107
441890165, 4121, 9423, -9948, 7980, 3775, 2291, -3475, -443, -2291, -2795, 136, 156, 205, 71, 234, 215, 388, 107
441891017, 4121, 9423, -9948, 7980, 3775, 2291, -3475, -443, -2291, -2795, 116, 154, 197, 64, 235, 229, 371, 106
441891802, 4121, 9423, -9948, 7980, 3775, 2291, -3475, -443, -2291, -2795, 116, 154, 197, 64, 235, 229, 371, 106
441896865, 4121, 9423, -9948, 7980, 3775, 2291, -3475, -443, -2291, -2795, 116, 154, 197, 64, 235, 229, 371, 106
441897649, 4121, 9423, -9948, 7980, 3775, 2291, -3475, -443, -2291, -2795, 116, 154, 197, 64, 235, 229, 371, 106
441898505, 4121, 9423, -9948, 7980, 3775, 2291, -3475, -443, -2291, -2795, 116, 154, 197, 64, 235, 229, 371, 106
441899263, 4121, 9423, -9948, 7980, 3775, 2291, -3475, -443, -2291, -2795, 116, 154, 197, 64, 235, 229, 371, 106
441904177, 4121, 9423, -9948, 7980, 3775, 2291, -3475, -443, -2291, -2795, 116, 154, 197, 64, 235, 229, 371, 106
441904978, 4121, 9423, -9948, 7980, 3775, 2291, -3475, -443, -2291, -2795, 116, 154, 197, 64, 235, 229, 371, 106
441905780, 4121, 9423, -9948, 7980, 3775, 2291, -3475, -443, -2291, -2795, 116, 154, 197, 64, 235, 229, 371, 106
441906758, 4121, 9423, -9948, 7980, 3775, 2291, -3475, -443, -2291, -2795, 116, 154, 197, 64, 235, 229, 371, 106
441911689, 4121, 9423, -9948, 7980, 3775, 2291, -3475, -443, -2291, -2795, 116, 154, 197, 64, 235, 229, 371, 106
441912651, 4154, 9976, -9727, 7552, 3780, 2370, -3317, -185, -2461, -3282, 116, 154, 197, 64, 235, 229, 371, 106
441913389, 4154, 9976, -9727, 7552, 3780, 2370, -3317, -185, -2461, -3282, 102, 141, 191, 62, 238, 232, 357, 105
441914219, 4154, 9976, -9727, 7552, 3780, 2370, -3317, -185, -2461, -3282, 102, 141, 191, 62, 238, 232, 357, 105
441919234, 4154, 9976, -9727, 7552, 3780, 2370, -3317, -185, -2461, -3282, 102, 141, 191, 62, 238, 232, 357, 105
441920052, 4154, 9976, -9727, 7552, 3780, 2370, -3317, -185, -2461, -3282, 102, 141, 191, 62, 238, 232, 357, 105
441920874, 4154, 9976, -9727, 7552, 3780, 2370, -3317, -185, -2461, -3282, 102, 141, 191, 62, 238, 232, 357, 105
441921677, 4154, 9976, -9727, 7552, 3780, 2370, -3317, -185, -2461, -3282, 102, 141, 191, 62, 238, 232, 357, 105
441926752, 4154, 9976, -9727, 7552, 3780, 2370, -3317, -185, -2461, -3282, 102, 141, 191, 62, 238, 232, 357, 105
441927542, 4154, 9976, -9727, 7552, 3780, 2370, -3317, -185, -2461, -3282, 102, 141, 191, 62, 238, 232, 357, 105
441928330, 4154, 9976, -9727, 7552, 3780, 2370, -3317, -185, -2461, -3282, 102, 141, 191, 62, 238, 232, 357, 105
441929168, 4154, 9976, -9727, 7552, 3780, 2370, -3317, -185, -2461, -3282, 102, 141, 191, 62, 238, 232, 357, 105
441934215, 4154, 9976, -9727, 7552, 3780, 2370, -3317, -185, -2461, -3282, 102, 141, 191, 62, 238, 232, 357, 105
441935181, 4150, 10569, -9430, 7111, 3788, 2630, -3316, 162, -2630, -3603, 102, 141, 191, 62, 238, 232, 357, 105
441935955, 4150, 10569, -9430, 7111, 3788, 2630, -3316, 162, -2630, -3603, 77, 94, 128, 61, 285, 235, 389, 82
441936789, 4150, 10569, -9430, 7111, 3788, 2630, -3316, 162, -2630, -3603, 77, 94, 128, 61, 285, 235, 389, 82
441941863, 4150, 10569, -9430, 7111, 3788, 2630, -3316, 162, -2630, -3603, 77, 94, 128, 61, 285, 235, 389, 82
441942689, 4150, 10569, -9430, 7111, 3788, 2630, -3316, 162, -2630, -3603, 77, 94, 128, 61, 285, 235, 389, 82
441943364, 4150, 10569, -9430, 7111, 3788, 2630, -3316, 162, -2630, -3603, 77, 94, 128, 61, 285, 235, 389, 82
441944275, 4150, 10569, -9430, 7111, 3788, 2630, -3316, 162, -2630, -3603, 77, 94, 128, 61, 285, 235, 389, 82
441949176, 4150, 10569, -9430, 7111, 3788, 2630, -3316, 162, -2630, -3603, 77, 94, 128, 61, 285, 235, 389, 82
441950023, 4150, 10569, -9430, 7111, 3788, 2630, -3316, 162, -2630, -3603, 77, 94, 128, 61, 285, 235, 389, 82
441950819, 4150, 10569, -9430, 7111, 3788, 2630, -3316, 162, -2630, -3603, 77, 94, 128, 61, 285, 235, 389, 82
441951670, 4150, 10569, -9430, 7111, 3788, 2630, -3316, 162, -2630, -3603, 77, 94, 128, 61, 285, 235, 389, 82
441956825, 4150, 10569, -9430, 7111, 3788, 2630, -3316, 162, -2630, -3603, 77, 94, 128, 61, 285, 235, 389, 82
441957753, 4113, 11173, -9078, 6652, 3897, 2842, -3188, 365, -2750, -3782, 77, 94, 128, 61, 285, 235, 389, 82
441958489, 4113, 11173, -9078, 6652, 3897, 2842, -3188, 365, -2750, -3782, 62, 53, 107, 63, 342, 246, 372, 71
441959310, 4113, 11173, -9078, 6652, 3897, 2842, -3188, 365, -2750, -3782, 62, 53, 107, 63, 342, 246, 372, 71
441964294, 4113, 11173, -9078, 6652, 3897, 2842, -3188, 365, -2750, -3782, 62, 53, 107, 63, 342, 246, 372, 71
441965077, 4113, 11173, -9078, 6652, 3897, 2842, -3188, 365, -2750, -3782, 62, 53, 107, 63, 342, 246, 372, 71
441965911, 4113, 11173, -9078, 6652, 3897, 2842, -3188, 365, -2750, -3782, 62, 53, 107, 63, 342, 246, 372, 71
441966713, 4113, 11173, -9078, 6652, 3897, 2842, -3188, 365, -2750, -3782, 62, 53, 107, 63, 342, 246, 372, 71
441971671, 4113, 11173, -9078, 6652, 3897, 2842, -3188, 365, -2750, -3782, 62, 53, 107, 63, 342, 246, 372, 71
441972458, 4113, 11173, -9078, 6652, 3897, 2842, -3188, 365, -2750, -3782, 62, 53, 107, 63, 342, 246, 372, 71
441973342, 4113, 11173, -9078, 6652, 3897, 2842, -3188, 365, -2750, -3782, 62, 53, 107, 63, 342, 246, 372, 71
441974187, 4113, 11173, -9078, 6652, 3897, 2842, -3188, 365, -2750, -3782, 62, 53, 107, 63, 342, 246, 372, 71
441979259, 4113, 11173, -9078, 6652, 3897, 2842, -3188, 365, -2750, -3782, 62, 53, 107, 63, 342, 246, 372, 71
441980183, 4050, 11774, -8677, 6174, 4003, 2886, -3090, 511, -2825, -3928, 62, 53, 107, 63, 342, 246, 372, 71
441980987, 4050, 11774, -8677, 6174, 4003, 2886, -3090, 511, -2825, -3928, 43, 55, 89, 39, 281, 233, 324, 69
441981801, 4050, 11774, -8677, 6174, 4003, 2886, -3090, 511, -2825, -3928, 43, 55, 89, 39, 281, 233, 324, 69
441985336, 4050, 11774, -8677, 6174, 4003, 2886, -3090, 511, -2825, -3928, 43, 55, 89, 39, 281, 233, 324, 69
441986103, 4050, 11774, -8677, 6174, 4003, 2886, -3090, 511, -2825, -3928, 43, 55, 89, 39, 281, 233, 324, 69
441994218, 4050, 11774, -8677, 6174, 4003, 2886, -3090, 511, -2825, -3928, 43, 55, 89, 39, 281, 233, 324, 69
441994994, 4050, 11774, -8677, 6174, 4003, 2886, -3090, 511, -2825, -3928, 43, 55, 89, 39, 281, 233, 324, 69
441995821, 4050, 11774, -8677, 6174, 4003, 2886, -3090, 511, -2825, -3928, 43, 55, 89, 39, 281, 233, 324, 69
441996676, 4050, 11774, -8677, 6174, 4003, 2886, -3090, 511, -2825, -3928, 43, 55, 89, 39, 281, 233, 324, 69
442001697, 4050, 11774, -8677, 6174, 4003, 2886, -3090, 511, -2825, -3928, 43, 55, 89, 39, 281, 233, 324, 69
442002537, 4050, 11774, -8677, 6174, 4003, 2886, -3090, 511, -2825, -3928, 43, 55, 89, 39, 281, 233, 324, 69
442003321, 4050, 11774, -8677, 6174, 4003, 2886, -3090, 511, -2825, -3928, 43, 55, 89, 39, 281, 233, 324, 69
442004253, 3991, 12332, -8262, 5669, 4126, 2765, -3066, 389, -2811, -3902, 43, 55, 89, 39, 281, 233, 324, 69
442009306, 3991, 12332, -8262, 5669, 4126, 2765, -3066, 389, -2811, -3902, 38, 52, 83, 40, 281, 254, 349, 71
442010088, 3991, 12332, -8262, 5669, 4126, 2765, -3066, 389, -2811, -3902, 38, 52, 83, 40, 281, 254, 349, 71
442010899, 3991, 12332, -8262, 5669, 4126, 2765, -3066, 389, -2811, -3902, 38, 52, 83, 40, 281, 254, 349, 71
442011730, 3991, 12332, -8262, 5669, 4126, 2765, -3066, 389, -2811, -3902, 38, 52, 83, 40, 281, 254, 349, 71
442016687, 3991, 12332, -8262, 5669, 4126, 2765, -3066, 389, -2811, -3902, 38, 52, 83, 40, 281, 254, 349, 71
442017480, 3991, 12332, -8262, 5669, 4126, 2765, -3066, 389, -2811, -3902, 38, 52, 83, 40, 281, 254, 349, 71
442018310, 3991, 12332, -8262, 5669, 4126, 2765, -3066, 389, -2811, -3902, 38, 52, 83, 40, 281, 254, 349, 71
442019113, 3991, 12332, -8262, 5669, 4126, 2765, -3066, 389, -2811, -3902, 38, 52, 83, 40, 281, 254, 349, 71
442024316, 3991, 12332, -8262, 5669, 4126, 2765, -3066, 389, -2811, -3902, 38, 52, 83, 40, 281, 254, 349, 71
442025177, 3943, 12831, -7854, 5151, 4121, 2573, -2961, 210, -2729, -3746, 38, 52, 83, 40, 281, 254, 349, 71
442025926, 3943, 12831, -7854, 5151, 4121, 2573, -2961, 210, -2729, -3746, 36, 49, 76, 43, 291, 268, 333, 63
442026734, 3943, 12831, -7854, 5151, 4121, 2573, -2961, 210, -2729, -3746, 36, 49, 76, 43, 291, 268, 333, 63
442031751, 3943, 12831, -7854, 5151, 4121, 2573, -2961, 210, -2729, -3746, 36, 49, 76, 43, 291, 268, 333, 63
442032569, 3943, 12831, -7854, 5151, 4121, 2573, -2961, 210, -2729, -3746, 36, 49, 76, 43, 291, 268, 333, 63
442033386, 3943, 12831, -7854, 5151, 4121, 2573, -2961, 210, -2729, -3746, 36, 49, 76, 43, 291, 268, 333, 63
442034184, 3943, 12831, -7854, 5151, 4121, 2573, -2961, 210, -2729, -3746, 36, 49, 76, 43, 291, 268, 333, 63
442039155, 3943, 12831, -7854, 5151, 4121, 2573, -2961, 210, -2729, -3746, 36, 49, 76, 43, 291, 268, 333, 63
442039986, 3943, 12831, -7854, 5151, 4121, 2573, -2961, 210, -2729, -3746, 36, 49, 76, 43, 291, 268, 333, 63
442040851, 3943, 12831, -7854, 5151, 4121, 2573, -2961, 210, -2729, -3746, 36, 49, 76, 43, 291, 268, 333, 63
442041743, 3943, 12831, -7854, 5151, 4121, 2573, -2961, 210, -2729, -3746, 36, 49, 76, 43, 291, 268, 333, 63
442046759, 3943, 12831, -7854, 5151, 4121, 2573, -2961, 210, -2729, -3746, 36, 49, 76, 43, 291, 268, 333, 63
442047688, 3892, 13275, -7445, 4651, 3979, 2336, -2857, 199, -2561, -3572, 36, 49, 76, 43, 291, 268, 333, 63
442048501, 3892, 13275, -7445, 4651, 3979, 2336, -2857, 199, -2561, -3572, 37, 43, 64, 42, 268, 288, 289, 59
442049264, 3892, 13275, -7445, 4651, 3979, 2336, -2857, 199, -2561, -3572, 37, 43, 64, 42, 268, 288, 289, 59
442054273, 3892, 13275, -7445, 4651, 3979, 2336, -2857, 199, -2561, -3572, 37, 43, 64, 42, 268, 288, 289, 59
442055076, 3892, 13275, -7445, 4651, 3979, 2336, -2857, 199, -2561, -3572, 37, 43, 64, 42, 268, 288, 289, 59
442055895, 3892, 13275, -7445, 4651, 3979, 2336, -2857, 199, -2561, -3572, 37, 43, 64, 42, 268, 288, 289, 59
442056749, 3892, 13275, -7445, 4651, 3979, 2336, -2857, 199, -2561, -3572, 37, 43, 64, 42, 268, 288, 289, 59
442061695, 3892, 13275, -7445, 4651, 3979, 2336, -2857, 199, -2561, -3572, 37, 43, 64, 42, 268, 288, 289, 59
442062489, 3892, 13275, -7445, 4651, 3979, 2336, -2857, 199, -2561, -3572, 37, 43, 64, 42, 268, 288, 289, 59
442063340, 3892, 13275, -7445, 4651, 3979, 2336, -2857, 199, -2561, -3572, 37, 43, 64, 42, 268, 288, 289, 59
442064135, 3892, 13275, -7445, 4651, 3979, 2336, -2857, 199, -2561, -3572, 37, 43, 64, 42, 268, 288, 289, 59
442069217, 3892, 13275, -7445, 4651, 3979, 2336, -2857, 199, -2561, -3572, 37, 43, 64, 42, 268, 288, 289, 59
442070137, 3829, 13659, -7049, 4183, 3781, 2158, -2926, 233, -2372, -3295, 37, 43, 64, 42, 268, 288, 289, 59
442070945, 3829, 13659, -7049, 4183, 3781, 2158, -2926, 233, -2372, -3295, 33, 41, 65, 46, 206, 283, 294, 58
442071777, 3829, 13659, -7049, 4183, 3781, 2158, -2926, 233, -2372, -3295, 33, 41, 65, 46, 206, 283, 294, 58
442076791, 3829, 13659, -7049, 4183, 3781, 2158, -2926, 233, -2372, -3295, 33, 41, 65, 46, 206, 283, 294, 58
442077597, 3829, 13659, -7049, 4183, 3781, 2158, -2926, 233, -2372, -3295, 33, 41, 65, 46, 206, 283, 294, 58
442078385, 3829, 13659, -7049, 4183, 3781, 2158, -2926, 233, -2372, -3295, 33, 41, 65, 46, 206, 283, 294, 58
442079229, 3829, 13659, -7049, 4183, 3781, 2158, -2926, 233, -2372, -3295, 33, 41, 65, 46, 206, 283, 294, 58
442084151, 3829, 13659, -7049, 4183, 3781, 2158, -2926, 233, -2372, -3295, 33, 41, 65, 46, 206, 283, 294, 58
442084963, 3829, 13659, -7049, 4183, 3781, 2158, -2926, 233, -2372, -3295, 33, 41, 65, 46, 206, 283, 294, 58
442085792, 3829, 13659, -7049, 4183, 3781, 2158, -2926, 233, -2372, -3295, 33, 41, 65, 46, 206, 283, 294, 58
442086670, 3829, 13659, -7049, 4183, 3781, 2158, -2926, 233, -2372, -3295, 33, 41, 65, 46, 206, 283, 294, 58
442091681, 3829, 13659, -7049, 4183, 3781, 2158, -2926, 233, -2372, -3295, 33, 41, 65, 46, 206, 283, 294, 58
442092648, 3757, 13978, -6691, 3763, 3634, 1884, -2913, 255, -2120, -2888, 33, 41, 65, 46, 206, 283, 294, 58
442093359, 3757, 13978, -6691, 3763, 3634, 1884, -2913, 255, -2120, -2888, 34, 40, 57, 43, 199, 278, 281, 61
442094230, 3757, 13978, -6691, 3763, 3634, 1884, -2913, 255, -2120, -2888, 34, 40, 57, 43, 199, 278, 281, 61
442099293, 3757, 13978, -6691, 3763, 3634, 1884, -2913, 255, -2120, -2888, 34, 40, 57, 43, 199, 278, 281, 61
442100094, 3757, 13978, -6691, 3763, 3634, 1884, -2913, 255, -2120, -2888, 34, 40, 57, 43, 199, 278, 281, 61
442100887, 3757, 13978, -6691, 3763, 3634, 1884, -2913, 255, -2120, -2888, 34, 40, 57, 43, 199, 278, 281, 61
442101722, 3757, 13978, -6691, 3763, 3634, 1884, -2913, 255, -2120, -2888, 34, 40, 57, 43, 199, 278, 281, 61
442106752, 3757, 13978, -6691, 3763, 3634, 1884, -2913, 255, -2120, -2888, 34, 40, 57, 43, 199, 278, 281, 61
442107607, 3757, 13978, -6691, 3763, 3634, 1884, -2913, 255, -2120, -2888, 34, 40, 57, 43, 199, 278, 281, 61
442108348, 3757, 13978, -6691, 3763, 3634, 1884, -2913, 255, -2120, -2888, 34, 40, 57, 43, 199, 278, 281, 61
442109174, 3757, 13978, -6691, 3763, 3634, 1884, -2913, 255, -2120, -2888, 34, 40, 57, 43, 199, 278, 281, 61
442114257, 3757, 13978, -6691, 3763, 3634, 1884, -2913, 255, -2120, -2888, 34, 40, 57, 43, 199, 278, 281, 61
442115146, 3701, 14229, -6367, 3421, 3509, 1677, -2820, 315, -1852, -2474, 34, 40, 57, 43, 199, 278, 281, 61
442115986, 3701, 14229, -6367, 3421, 3509, 1677, -2820, 315, -1852, -2474, 34, 37, 57, 46, 221, 235, 260, 52
442116749, 3701, 14229, -6367, 3421, 3509, 1677, -2820, 315, -1852, -2474, 34, 37, 57, 46, 221, 235, 260, 52
442121781, 3701, 14229, -6367, 3421, 3509, 1677, -2820, 315, -1852, -2474, 34, 37, 57, 46, 221, 235, 260, 52
442122669, 3701, 14229, -6367, 3421, 3509, 1677, -2820, 315, -1852, -2474, 34, 37, 57, 46, 221, 235, 260, 52
442123371, 3701, 14229, -6367, 3421, 3509, 1677, -2820, 315, -1852, -2474, 34, 37, 57, 46, 221, 235, 260, 52
442124335, 3701, 14229, -6367, 3421, 3509, 1677, -2820, 315, -1852, -2474, 34, 37, 57, 46, 221, 235, 260, 52
442129199, 3701, 14229, -6367, 3421, 3509, 1677, -2820, 315, -1852, -2474, 34, 37, 57, 46, 221, 235, 260, 52
442129990, 3701, 14229, -6367, 3421, 3509, 1677, -2820, 315, -1852, -2474, 34, 37, 57, 46, 221, 235, 260, 52
442130782, 3701, 14229, -6367, 3421, 3509, 1677, -2820, 315, -1852, -2474, 34, 37, 57, 46, 221, 235, 260, 52
442131678, 3701, 14229, -6367, 3421, 3509, 1677, -2820, 315, -1852, -2474, 34, 37, 57, 46, 221, 235, 260, 52
442136725, 3701, 14229, -6367, 3421, 3509, 1677, -2820, 315, -1852, -2474, 34, 37, 57, 46, 221, 235, 260, 52
442137682, 3638, 14426, -6098, 3144, 3346, 1459, -2826, 337, -1558, -2030, 34, 37, 57, 46, 221, 235, 260, 52
442138435, 3638, 14426, -6098, 3144, 3346, 1459, -2826, 337, -1558, -2030, 38, 40, 58, 42, 201, 209, 285, 54
442139235, 3638, 14426, -6098, 3144, 3346, 1459, -2826, 337, -1558, -2030, 38, 40, 58, 42, 201, 209, 285, 54
442144272, 3638, 14426, -6098, 3144, 3346, 1459, -2826, 337, -1558, -2030, 38, 40, 58, 42, 201, 209, 285, 54
442145090, 3638, 14426, -6098, 3144, 3346, 1459, -2826, 337, -1558, -2030, 38, 40, 58, 42, 201, 209, 285, 54
442145893, 3638, 14426, -6098, 3144, 3346, 1459, -2826, 337, -1558, -2030, 38, 40, 58, 42, 201, 209, 285, 54
442146689, 3638, 14426, -6098, 3144, 3346, 1459, -2826, 337, -1558, -2030, 38, 40, 58, 42, 201, 209, 285, 54
442151671, 3638, 14426, -6098, 3144, 3346, 1459, -2826, 337, -1558, -2030, 38, 40, 58, 42, 201, 209, 285, 54
442152446, 3638, 14426, -6098, 3144, 3346, 1459, -2826, 337, -1558, -2030, 38, 40, 58, 42, 201, 209, 285, 54
442153263, 3638, 14426, -6098, 3144, 3346, 1459, -2826, 337, -1558, -2030, 38, 40, 58, 42, 201, 209, 285, 54
442154096, 3638, 14426, -6098, 3144, 3346, 1459, -2826, 337, -1558, -2030, 38, 40, 58, 42, 201, 209, 285, 54
442159268, 3638, 14426, -6098, 3144, 3346, 1459, -2826, 337, -1558, -2030, 38, 40, 58, 42, 201, 209, 285, 54
442160228, 3573, 14578, -5881, 2927, 3188, 1279, -2722, 333, -1290, -1614, 38, 40, 58, 42, 201, 209, 285, 54
442160986, 3573, 14578, -5881, 2927, 3188, 1279, -2722, 333, -1290, -1614, 34, 38, 53, 43, 178, 191, 327, 51
442161832, 3573, 14578, -5881, 2927, 3188, 1279, -2722, 333, -1290, -1614, 34, 38, 53, 43, 178, 191, 327, 51
442166800, 3573, 14578, -5881, 2927, 3188, 1279, -2722, 333, -1290, -1614, 34, 38, 53, 43, 178, 191, 327, 51
442167665, 3573, 14578, -5881, 2927, 3188, 1279, -2722, 333, -1290, -1614, 34, 38, 53, 43, 178, 191, 327, 51
442168425, 3573, 14578, -5881, 2927, 3188, 1279, -2722, 333, -1290, -1614, 34, 38, 53, 43, 178, 191, 327, 51
442169260, 3573, 14578, -5881, 2927, 3188, 1279, -2722, 333, -1290, -1614, 34, 38, 53, 43, 178, 191, 327, 51
442174275, 3573, 14578, -5881, 2927, 3188, 1279, -2722, 333, -1290, -1614, 34, 38, 53, 43, 178, 191, 327, 51
442175072, 3573, 14578, -5881, 2927, 3188, 1279, -2722, 333, -1290, -1614, 34, 38, 53, 43, 178, 191, 327, 51
442175844, 3573, 14578, -5881, 2927, 3188, 1279, -2722, 333, -1290, -1614, 34, 38, 53, 43, 178, 191, 327, 51
442176686, 3573, 14578, -5881, 2927, 3188, 1279, -2722, 333, -1290, -1614, 34, 38, 53, 43, 178, 191, 327, 51
442181721, 3573, 14578, -5881, 2927, 3188, 1279, -2722, 333, -1290, -1614, 34, 38, 53, 43, 178, 191, 327, 51
442182710, 3549, 14666, -5707, 2858, 3085, 1114, -2577, 397, -1065, -1275, 34, 38, 53, 43, 178, 191, 327, 51
442183454, 3549, 14666, -5707, 2858, 3085, 1114, -2577, 397, -1065, -1275, 38, 42, 57, 37, 160, 167, 337, 59
442184277, 3549, 14666, -5707, 2858, 3085, 1114, -2577, 397, -1065, -1275, 38, 42, 57, 37, 160, 167, 337, 59
442189276, 3549, 14666, -5707, 2858, 3085, 1114, -2577, 397, -1065, -1275, 38, 42, 57, 37, 160, 167, 337, 59
442190090, 3549, 14666, -5707, 2858, 3085, 1114, -2577, 397, -1065, -1275, 38, 42, 57, 37, 160, 167, 337, 59
442190983, 3549, 14666, -5707, 2858, 3085, 1114, -2577, 397, -1065, -1275, 38, 42, 57, 37, 160, 167, 337, 59
442191778, 3549, 14666, -5707, 2858, 3085, 1114, -2577, 397, -1065, -1275, 38, 42, 57, 37, 160, 167, 337, 59
442196825, 3549, 14666, -5707, 2858, 3085, 1114, -2577, 397, -1065, -1275, 38, 42, 57, 37, 160, 167, 337, 59
442197524, 3549, 14666, -5707, 2858, 3085, 1114, -2577, 397, -1065, -1275, 38, 42, 57, 37, 160, 167, 337, 59
442198314, 3549, 14666, -5707, 2858, 3085, 1114, -2577, 397, -1065, -1275, 38, 42, 57, 37, 160, 167, 337, 59
442199105, 3549, 14666, -5707, 2858, 3085, 1114, -2577, 397, -1065, -1275, 38, 42, 57, 37, 160, 167, 337, 59
442204206, 3549, 14666, -5707, 2858, 3085, 1114, -2577, 397, -1065, -1275, 38, 42, 57, 37, 160, 167, 337, 59
442205113, 3509, 14734, -5565, 2838, 3004, 995, -2672, 448, -817, -1032, 38, 42, 57, 37, 160, 167, 337, 59
442205919, 3509, 14734, -5565, 2838, 3004, 995, -2672, 448, -817, -1032, 46, 52, 64, 37, 151, 169, 339, 70
442206724, 3509, 14734, -5565, 2838, 3004, 995, -2672, 448, -817, -1032, 46, 52, 64, 37, 151, 169, 339, 70
442211743, 3509, 14734, -5565, 2838, 3004, 995, -2672, 448, -817, -1032, 46, 52, 64, 37, 151, 169, 339, 70
442212586, 3509, 14734, -5565, 2838, 3004, 995, -2672, 448, -817, -1032, 46, 52, 64, 37, 151, 169, 339, 70
442213405, 3509, 14734, -5565, 2838, 3004, 995, -2672, 448, -817, -1032, 46, 52, 64, 37, 151, 169, 339, 70
442214217, 3509, 14734, -5565, 2838, 3004, 995, -2672, 448, -817, -1032, 46, 52, 64, 37, 151, 169, 339, 70
442219151, 3509, 14734, -5565, 2838, 3004, 995, -2672, 448, -817, -1032, 46, 52, 64, 37, 151, 169, 339, 70
442219991, 3509, 14734, -5565, 2838, 3004, 995, -2672, 448, -817, -1032, 46, 52, 64, 37, 151, 169, 339, 70
442220757, 3509, 14734, -5565, 2838, 3004, 995, -2672, 448, -817, -1032, 46, 52, 64, 37, 151, 169, 339, 70
442221651, 3509, 14734, -5565, 2838, 3004, 995, -2672, 448, -817, -1032, 46, 52, 64, 37, 151, 169, 339, 70
442226778, 3509, 14734, -5565, 2838, 3004, 995, -2672, 448, -817, -1032, 46, 52, 64, 37, 151, 169, 339, 70
442227660, 3500, 14787, -5435, 2826, 2779, 1053, -2616, 311, -635, -919, 46, 52, 64, 37, 151, 169, 339, 70
442228506, 3500, 14787, -5435, 2826, 2779, 1053, -2616, 311, -635, -919, 48, 54, 61, 34, 162, 170, 360, 70
442229264, 3500, 14787, -5435, 2826, 2779, 1053, -2616, 311, -635, -919, 48, 54, 61, 34, 162, 170, 360, 70
442234301, 3500, 14787, -5435, 2826, 2779, 1053, -2616, 311, -635, -919, 48, 54, 61, 34, 162, 170, 360, 70
442235130, 3500, 14787, -5435, 2826, 2779, 1053, -2616, 311, -635, -919, 48, 54, 61, 34, 162, 170, 360, 70
442235942, 3500, 14787, -5435, 2826, 2779, 1053, -2616, 311, -635, -919, 48, 54, 61, 34, 162, 170, 360, 70
442236713, 3500, 14787, -5435, 2826, 2779, 1053, -2616, 311, -635, -919, 48, 54, 61, 34, 162, 170, 360, 70
442241774, 3500, 14787, -5435, 2826, 2779, 1053, -2616, 311, -635, -919, 48, 54, 61, 34, 162, 170, 360, 70
442242555, 3500, 14787, -5435, 2826, 2779, 1053, -2616, 311, -635, -919, 48, 54, 61, 34, 162, 170, 360, 70
442243365, 3500, 14787, -5435, 2826, 2779, 1053, -2616, 311, -635, -919, 48, 54, 61, 34, 162, 170, 360, 70
442244113, 3500, 14787, -5435, 2826, 2779, 1053, -2616, 311, -635, -919, 48, 54, 61, 34, 162, 170, 360, 70
442249208, 3500, 14787, -5435, 2826, 2779, 1053, -2616, 311, -635, -919, 48, 54, 61, 34, 162, 170, 360, 70
442250139, 3542, 14816, -5333, 2811, 2616, 1250, -2658, 65, -480, -719, 48, 54, 61, 34, 162, 170, 360, 70
442250971, 3542, 14816, -5333, 2811, 2616, 1250, -2658, 65, -480, -719, 47, 54, 68, 34, 216, 208, 335, 76
442251785, 3542, 14816, -5333, 2811, 2616, 1250, -2658, 65, -480, -719, 48, 54, 61, 34, 162, 170, 360, 70
442256772, 3542, 14816, -5333, 2811, 2616, 1250, -2658, 65, -480, -719, 47, 54, 68, 34, 216, 208, 335, 76
442257669, 3542, 14816, -5333, 2811, 2616, 1250, -2658, 65, -480, -719, 47, 54, 68, 34, 216, 208, 335, 76
442258474, 3542, 14816, -5333, 2811, 2616, 1250, -2658, 65, -480, -719, 47, 54, 68, 34, 216, 208, 335, 76
442259268, 3542, 14816, -5333, 2811, 2616, 1250, -2658, 65, -480, -719, 47, 54, 68, 34, 216, 208, 335, 76
442262595, 3542, 14816, -5333, 2811, 2616, 1250, -2658, 65, -480, -719, 47, 54, 68, 34, 216, 208, 335, 76
442263453, 3542, 14816, -5333, 2811, 2616, 1250, -2658, 65, -480, -719, 47, 54, 68, 34, 216, 208, 335, 76
442271660, 3542, 14816, -5333, 2811, 2616, 1250, -2658, 65, -480, -719, 47, 54, 68, 34, 216, 208, 335, 76
442272458, 3542, 14816, -5333, 2811, 2616, 1250, -2658, 65, -480, -719, 47, 54, 68, 34, 216, 208, 335, 76
442273273, 3542, 14816, -5333, 2811, 2616, 1250, -2658, 65, -480, -719, 47, 54, 68, 34, 216, 208, 335, 76
442274274, 3615, 14829, -5258, 2796, 2514, 1205, -2683, -175, -384, -594, 47, 54, 68, 34, 216, 208, 335, 76
442279272, 3615, 14829, -5258, 2796, 2514, 1205, -2683, -175, -384, -594, 50, 57, 68, 36, 214, 187, 288, 78
442280050, 3615, 14829, -5258, 2796, 2514, 1205, -2683, -175, -384, -594, 50, 57, 68, 36, 214, 187, 288, 78
442280891, 3615, 14829, -5258, 2796, 2514, 1205, -2683, -175, -384, -594, 50, 57, 68, 36, 214, 187, 288, 78
442281730, 3615, 14829, -5258, 2796, 2514, 1205, -2683, -175, -384, -594, 50, 57, 68, 36, 214, 187, 288, 78
442286717, 3615, 14829, -5258, 2796, 2514, 1205, -2683, -175, -384, -594, 50, 57, 68, 36, 214, 187, 288, 78
442287521, 3615, 14829, -5258, 2796, 2514, 1205, -2683, -175, -384, -594, 50, 57, 68, 36, 214, 187, 288, 78
442288308, 3615, 14829, -5258, 2796, 2514, 1205, -2683, -175, -384, -594, 50, 57, 68, 36, 214, 187, 288, 78
442289156, 3615, 14829, -5258, 2796, 2514, 1205, -2683, -175, -384, -594, 50, 57, 68, 36, 214, 187, 288, 78
442294210, 3615, 14829, -5258, 2796, 2514, 1205, -2683, -175, -384, -594, 50, 57, 68, 36, 214, 187, 288, 78
442295151, 3670, 14839, -5193, 2789, 2393, 1195, -2833, -130, -279, -506, 50, 57, 68, 36, 214, 187, 288, 78
442295950, 3670, 14839, -5193, 2789, 2393, 1195, -2833, -130, -279, -506, 55, 63, 71, 36, 228, 193, 304, 77
442296765, 3670, 14839, -5193, 2789, 2393, 1195, -2833, -130, -279, -506, 55, 63, 71, 36, 228, 193, 304, 77
442301833, 3670, 14839, -5193, 2789, 2393, 1195, -2833, -130, -279, -506, 55, 63, 71, 36, 228, 193, 304, 77
442302756, 3670, 14839, -5193, 2789, 2393, 1195, -2833, -130, -279, -506, 55, 63, 71, 36, 228, 193, 304, 77
442303372, 3670, 14839, -5193, 2789, 2393, 1195, -2833, -130, -279, -506, 55, 63, 71, 36, 228, 193, 304, 77
442304251, 3670, 14839, -5193, 2789, 2393, 1195, -2833, -130, -279, -506, 55, 63, 71, 36, 228, 193, 304, 77
442309249, 3670, 14839, -5193, 2789, 2393, 1195, -2833, -130, -279, -506, 55, 63, 71, 36, 228, 193, 304, 77
442309997, 3670, 14839, -5193, 2789, 2393, 1195, -2833, -130, -279, -506, 55, 63, 71, 36, 228, 193, 304, 77
442310785, 3670, 14839, -5193, 2789, 2393, 1195, -2833, -130, -279, -506, 55, 63, 71, 36, 228, 193, 304, 77
442311682, 3670, 14839, -5193, 2789, 2393, 1195, -2833, -130, -279, -506, 55, 63, 71, 36, 228, 193, 304, 77
442316695, 3670, 14839, -5193, 2789, 2393, 1195, -2833, -130, -279, -506, 55, 63, 71, 36, 228, 193, 304, 77
442317692, 3708, 14847, -5145, 2784, 2174, 1223, -2922, -68, -194, -362, 55, 63, 71, 36, 228, 193, 304, 77
442318446, 3708, 14847, -5145, 2784, 2174, 1223, -2922, -68, -194, -362, 51, 64, 105, 40, 288, 218, 304, 74
442319238, 3708, 14847, -5145, 2784, 2174, 1223, -2922, -68, -194, -362, 51, 64, 105, 40, 288, 218, 304, 74
442324394, 3708, 14847, -5145, 2784, 2174, 1223, -2922, -68, -194, -362, 51, 64, 105, 40, 288, 218, 304, 74
442325161, 3708, 14847, -5145, 2784, 2174, 1223, -2922, -68, -194, -362, 51, 64, 105, 40, 288, 218, 304, 74
442325919, 3708, 14847, -5145, 2784, 2174, 1223, -2922, -68, -194, -362, 51, 64, 105, 40, 288, 218, 304, 74
442326711, 3708, 14847, -5145, 2784, 2174, 1223, -2922, -68, -194, -362, 51, 64, 105, 40, 288, 218, 304, 74
442331666, 3708, 14847, -5145, 2784, 2174, 1223, -2922, -68, -194, -362, 51, 64, 105, 40, 288, 218, 304, 74
442332423, 3708, 14847, -5145, 2784, 2174, 1223, -2922, -68, -194, -362, 51, 64, 105, 40, 288, 218, 304, 74
442333287, 3708, 14847, -5145, 2784, 2174, 1223, -2922, -68, -194, -362, 51, 64, 105, 40, 288, 218, 304, 74
442334089, 3708, 14847, -5145, 2784, 2174, 1223, -2922, -68, -194, -362, 51, 64, 105, 40, 288, 218, 304, 74
442339220, 3708, 14847, -5145, 2784, 2174, 1223, -2922, -68, -194, -362, 51, 64, 105, 40, 288, 218, 304, 74
442340135, 3746, 14846, -5114, 2798, 2127, 1382, -2953, 0, -74, -196, 51, 64, 105, 40, 288, 218, 304, 74
442340996, 3746, 14846, -5114, 2798, 2127, 1382, -2953, 0, -74, -196, 54, 68, 119, 47, 270, 212, 269, 77
442341896, 3746, 14846, -5114, 2798, 2127, 1382, -2953, 0, -74, -196, 54, 68, 119, 47, 270, 212, 269, 77
442346812, 3746, 14846, -5114, 2798, 2127, 1382, -2953, 0, -74, -196, 54, 68, 119, 47, 270, 212, 269, 77
442347663, 3746, 14846, -5114, 2798, 2127, 1382, -2953, 0, -74, -196, 54, 68, 119, 47, 270, 212, 269, 77
442348399, 3746, 14846, -5114, 2798, 2127, 1382, -2953, 0, -74, -196, 54, 68, 119, 47, 270, 212, 269, 77
442349213, 3746, 14846, -5114, 2798, 2127, 1382, -2953, 0, -74, -196, 54, 68, 119, 47, 270, 212, 269, 77
442354192, 3746, 14846, -5114, 2798, 2127, 1382, -2953, 0, -74, -196, 54, 68, 119, 47, 270, 212, 269, 77
442354970, 3746, 14846, -5114, 2798, 2127, 1382, -2953, 0, -74, -196, 54, 68, 119, 47, 270, 212, 269, 77
442355795, 3746, 14846, -5114, 2798, 2127, 1382, -2953, 0, -74, -196, 54, 68, 119, 47, 270, 212, 269, 77
442356647, 3746, 14846, -5114, 2798, 2127, 1382, -2953, 0, -74, -196, 54, 68, 119, 47, 270, 212, 269, 77
442361718, 3746, 14846, -5114, 2798, 2127, 1382, -2953, 0, -74, -196, 54, 68, 119, 47, 270, 212, 269, 77
442362666, 3783, 14841, -5084, 2827, 2095, 1528, -3042, 67, 52, -115, 54, 68, 119, 47, 270, 212, 269, 77
442363470, 3783, 14841, -5084, 2827, 2095, 1528, -3042, 67, 52, -115, 64, 68, 118, 47, 233, 198, 297, 85
442364276, 3783, 14841, -5084, 2827, 2095, 1528, -3042, 67, 52, -115, 64, 68, 118, 47, 233, 198, 297, 85
442369276, 3783, 14841, -5084, 2827, 2095, 1528, -3042, 67, 52, -115, 64, 68, 118, 47, 233, 198, 297, 85
442370064, 3783, 14841, -5084, 2827, 2095, 1528, -3042, 67, 52, -115, 64, 68, 118, 47, 233, 198, 297, 85
442370899, 3783, 14841, -5084, 2827, 2095, 1528, -3042, 67, 52, -115, 64, 68, 118, 47, 233, 198, 297, 85
442371734, 3783, 14841, -5084, 2827, 2095, 1528, -3042, 67, 52, -115, 64, 68, 118, 47, 233, 198, 297, 85
442376779, 3783, 14841, -5084, 2827, 2095, 1528, -3042, 67, 52, -115, 64, 68, 118, 47, 233, 198, 297, 85
442377552, 3783, 14841, -5084, 2827, 2095, 1528, -3042, 67, 52, -115, 64, 68, 118, 47, 233, 198, 297, 85
442378345, 3783, 14841, -5084, 2827, 2095, 1528, -3042, 67, 52, -115, 64, 68, 118, 47, 233, 198, 297, 85
442379101, 3783, 14841, -5084, 2827, 2095, 1528, -3042, 67, 52, -115, 64, 68, 118, 47, 233, 198, 297, 85
442384176, 3783, 14841, -5084, 2827, 2095, 1528, -3042, 67, 52, -115, 64, 68, 118, 47, 233, 198, 297, 85
442385127, 3813, 14836, -5059, 2860, 2033, 1550, -3106, 104, 108, -63, 64, 68, 118, 47, 233, 198, 297, 85
442385934, 3813, 14836, -5059, 2860, 2033, 1550, -3106, 104, 108, -63, 63, 83, 119, 47, 225, 221, 298, 86
442386731, 3813, 14836, -5059, 2860, 2033, 1550, -3106, 104, 108, -63, 63, 83, 119, 47, 225, 221, 298, 86
442391811, 3813, 14836, -5059, 2860, 2033, 1550, -3106, 104, 108, -63, 63, 83, 119, 47, 225, 221, 298, 86
442392643, 3813, 14836, -5059, 2860, 2033, 1550, -3106, 104, 108, -63, 63, 83, 119, 47, 225, 221, 298, 86
442393431, 3813, 14836, -5059, 2860, 2033, 1550, -3106, 104, 108, -63, 63, 83, 119, 47, 225, 221, 298, 86
442394195, 3813, 14836, -5059, 2860, 2033, 1550, -3106, 104, 108, -63, 63, 83, 119, 47, 225, 221, 298, 86
442399160, 3813, 14836, -5059, 2860, 2033, 1550, -3106, 104, 108, -63, 63, 83, 119, 47, 225, 221, 298, 86
442399967, 3813, 14836, -5059, 2860, 2033, 1550, -3106, 104, 108, -63, 63, 83, 119, 47, 225, 221, 298, 86
442400792, 3813, 14836, -5059, 2860, 2033, 1550, -3106, 104, 108, -63, 63, 83, 119, 47, 225, 221, 298, 86
442401568, 3813, 14836, -5059, 2860, 2033, 1550, -3106, 104, 108, -63, 63, 83, 119, 47, 225, 221, 298, 86
442406799, 3813, 14836, -5059, 2860, 2033, 1550, -3106, 104, 108, -63, 63, 83, 119, 47, 225, 221, 298, 86
442407752, 3849, 14827, -5044, 2886, 1965, 1697, -3102, 101, 115, 30, 63, 83, 119, 47, 225, 221, 298, 86
442408459, 3849, 14827, -5044, 2886, 1965, 1697, -3102, 101, 115, 30, 58, 78, 115, 45, 213, 216, 250, 101
442409260, 3849, 14827, -5044, 2886, 1965, 1697, -3102, 101, 115, 30, 58, 78, 115, 45, 213, 216, 250, 101
442414448, 3849, 14827, -5044, 2886, 1965, 1697, -3102, 101, 115, 30, 58, 78, 115, 45, 213, 216, 250, 101
442415142, 3849, 14827, -5044, 2886, 1965, 1697, -3102, 101, 115, 30, 58, 78, 115, 45, 213, 216, 250, 101
442415944, 3849, 14827, -5044, 2886, 1965, 1697, -3102, 101, 115, 30, 58, 78, 115, 45, 213, 216, 250, 101
442416702, 3849, 14827, -5044, 2886, 1965, 1697, -3102, 101, 115, 30, 58, 78, 115, 45, 213, 216, 250, 101
442421690, 3849, 14827, -5044, 2886, 1965, 1697, -3102, 101, 115, 30, 58, 78, 115, 45, 213, 216, 250, 101
442422494, 3849, 14827, -5044, 2886, 1965, 1697, -3102, 101, 115, 30, 58, 78, 115, 45, 213, 216, 250, 101
442423287, 3849, 14827, -5044, 2886, 1965, 1697, -3102, 101, 115, 30, 58, 78, 115, 45, 213, 216, 250, 101
442424105, 3849, 14827, -5044, 2886, 1965, 1697, -3102, 101, 115, 30, 58, 78, 115, 45, 213, 216, 250, 101
442429210, 3849, 14827, -5044, 2886, 1965, 1697, -3102, 101, 115, 30, 58, 78, 115, 45, 213, 216, 250, 101
442430132, 3883, 14815, -5037, 2911, 1929, 1776, -3191, 115, 151, 105, 58, 78, 115, 45, 213, 216, 250, 101
442430950, 3883, 14815, -5037, 2911, 1929, 1776, -3191, 115, 151, 105, 60, 81, 104, 45, 121, 190, 247, 96
442431730, 3883, 14815, -5037, 2911, 1929, 1776, -3191, 115, 151, 105, 60, 81, 104, 45, 121, 190, 247, 96
442436759, 3883, 14815, -5037, 2911, 1929, 1776, -3191, 115, 151, 105, 60, 81, 104, 45, 121, 190, 247, 96
442437592, 3883, 14815, -5037, 2911, 1929, 1776, -3191, 115, 151, 105, 60, 81, 104, 45, 121, 190, 247, 96
442438391, 3883, 14815, -5037, 2911, 1929, 1776, -3191, 115, 151, 105, 60, 81, 104, 45, 121, 190, 247, 96
442439179, 3883, 14815, -5037, 2911, 1929, 1776, -3191, 115, 151, 105, 60, 81, 104, 45, 121, 190, 247, 96
442444193, 3883, 14815, -5037, 2911, 1929, 1776, -3191, 115, 151, 105, 60, 81, 104, 45, 121, 190, 247, 96
442444975, 3883, 14815, -5037, 2911, 1929, 1776, -3191, 115, 151, 105, 60, 81, 104, 45, 121, 190, 247, 96
442445790, 3883, 14815, -5037, 2911, 1929, 1776, -3191, 115, 151, 105, 60, 81, 104, 45, 121, 190, 247, 96
442446663, 3883, 14815, -5037, 2911, 1929, 1776, -3191, 115, 151, 105, 60, 81, 104, 45, 121, 190, 247, 96
442451692, 3883, 14815, -5037, 2911, 1929, 1776, -3191, 115, 151, 105, 60, 81, 104, 45, 121, 190, 247, 96
442452665, 3928, 14798, -5041, 2930, 1925, 1774, -3248, 6, 156, 148, 60, 81, 104, 45, 121, 190, 247, 96
442453384, 3928, 14798, -5041, 2930, 1925, 1774, -3248, 6, 156, 148, 59, 81, 111, 44, 197, 227, 247, 97
442454235, 3928, 14798, -5041, 2930, 1925, 1774, -3248, 6, 156, 148, 59, 81, 111, 44, 197, 227, 247, 97
442459289, 3928, 14798, -5041, 2930, 1925, 1774, -3248, 6, 156, 148, 59, 81, 111, 44, 197, 227, 247, 97
442460071, 3928, 14798, -5041, 2930, 1925, 1774, -3248, 6, 156, 148, 59, 81, 111, 44, 197, 227, 247, 97
442460892, 3928, 14798, -5041, 2930, 1925, 1774, -3248, 6, 156, 148, 59, 81, 111, 44, 197, 227, 247, 97
442461715, 3928, 14798, -5041, 2930, 1925, 1774, -3248, 6, 156, 148, 59, 81, 111, 44, 197, 227, 247, 97
442466717, 3928, 14798, -5041, 2930, 1925, 1774, -3248, 6, 156, 148, 59, 81, 111, 44, 197, 227, 247, 97
442467504, 3928, 14798, -5041, 2930, 1925, 1774, -3248, 6, 156, 148, 59, 81, 111, 44, 197, 227, 247, 97
442468352, 3928, 14798, -5041, 2930, 1925, 1774, -3248, 6, 156, 148, 59, 81, 111, 44, 197, 227, 247, 97
442469138, 3928, 14798, -5041, 2930, 1925, 1774, -3248, 6, 156, 148, 59, 81, 111, 44, 197, 227, 247, 97
442474295, 3928, 14798, -5041, 2930, 1925, 1774, -3248, 6, 156, 148, 59, 81, 111, 44, 197, 227, 247, 97
442475233, 3989, 14775, -5052, 2945, 1944, 1822, -3314, -100, 175, 181, 59, 81, 111, 44, 197, 227, 247, 97
442475976, 3989, 14775, -5052, 2945, 1944, 1822, -3314, -100, 175, 181, 55, 86, 119, 52, 195, 208, 216, 87
442476775, 3989, 14775, -5052, 2945, 1944, 1822, -3314, -100, 175, 181, 55, 86, 119, 52, 195, 208, 216, 87
442481787, 3989, 14775, -5052, 2945, 1944, 1822, -3314, -100, 175, 181, 55, 86, 119, 52, 195, 208, 216, 87
442482660, 3989, 14775, -5052, 2945, 1944, 1822, -3314, -100, 175, 181, 55, 86, 119, 52, 195, 208, 216, 87
442483365, 3989, 14775, -5052, 2945, 1944, 1822, -3314, -100, 175, 181, 55, 86, 119, 52, 195, 208, 216, 87
442484227, 3989, 14775, -5052, 2945, 1944, 1822, -3314, -100, 175, 181, 55, 86, 119, 52, 195, 208, 216, 87
442489155, 3989, 14775, -5052, 2945, 1944, 1822, -3314, -100, 175, 181, 55, 86, 119, 52, 195, 208, 216, 87
442489957, 3989, 14775, -5052, 2945, 1944, 1822, -3314, -100, 175, 181, 55, 86, 119, 52, 195, 208, 216, 87
442490772, 3989, 14775, -5052, 2945, 1944, 1822, -3314, -100, 175, 181, 55, 86, 119, 52, 195, 208, 216, 87
442491754, 3989, 14775, -5052, 2945, 1944, 1822, -3314, -100, 175, 181, 55, 86, 119, 52, 195, 208, 216, 87
442496686, 3989, 14775, -5052, 2945, 1944, 1822, -3314, -100, 175, 181, 55, 86, 119, 52, 195, 208, 216, 87
442497665, 4034, 14759, -5060, 2949, 1921, 1842, -3376, -35, 133, 163, 55, 86, 119, 52, 195, 208, 216, 87
442498442, 4034, 14759, -5060, 2949, 1921, 1842, -3376, -35, 133, 163, 61, 100, 118, 51, 205, 191, 253, 94
442499239, 4034, 14759, -5060, 2949, 1921, 1842, -3376, -35, 133, 163, 61, 100, 118, 51, 205, 191, 253, 94
442504266, 4034, 14759, -5060, 2949, 1921, 1842, -3376, -35, 133, 163, 61, 100, 118, 51, 205, 191, 253, 94
442505076, 4034, 14759, -5060, 2949, 1921, 1842, -3376, -35, 133, 163, 61, 100, 118, 51, 205, 191, 253, 94
442505847, 4034, 14759, -5060, 2949, 1921, 1842, -3376, -35, 133, 163, 61, 100, 118, 51, 205, 191, 253, 94
442506681, 4034, 14759, -5060, 2949, 1921, 1842, -3376, -35, 133, 163, 61, 100, 118, 51, 205, 191, 253, 94
442511709, 4034, 14759, -5060, 2949, 1921, 1842, -3376, -35, 133, 163, 61, 100, 118, 51, 205, 191, 253, 94
442512477, 4034, 14759, -5060, 2949, 1921, 1842, -3376, -35, 133, 163, 61, 100, 118, 51, 205, 191, 253, 94
442513349, 4034, 14759, -5060, 2949, 1921, 1842, -3376, -35, 133, 163, 61, 100, 118, 51, 205, 191, 253, 94
442514145, 4034, 14759, -5060, 2949, 1921, 1842, -3376, -35, 133, 163, 61, 100, 118, 51, 205, 191, 253, 94
442519251, 4034, 14759, -5060, 2949, 1921, 1842, -3376, -35, 133, 163, 61, 100, 118, 51, 205, 191, 253, 94
442520170, 4063, 14750, -5062, 2954, 1923, 1800, -3374, 32, 108, 127, 61, 100, 118, 51, 205, 191, 253, 94
