Timestamp, Orientation x, Orientation y, Orientation z, Orientation w, Acceleration x, Acceleration y, Acceleration z, Rotation x, Rotation y, Rotation z, EMG 0, EMG 1, EMG 2, EMG 3, EMG 4, EMG 5, EMG 6, EMG 7
326188494, 9164, 5813, -9526, 7740, 4010, 730, -2199, 23, -8, -9, 0, 0, 0, 0, 0, 0, 0, 0
326189337, 9164, 5813, -9526, 7740, 4022, 733, -2188, 11, -7, 3, 0, 0, 0, 0, 0, 0, 0, 0
326210270, 9164, 5813, -9526, 7740, 4021, 734, -2201, 5, -4, 8, 0, 0, 0, 0, 0, 0, 0, 0
326232797, 9164, 5813, -9526, 7740, 4028, 749, -2210, 6, -3, -5, 0, 0, 0, 0, 0, 0, 0, 0
326247758, 9164, 5813, -9526, 7740, 4051, 772, -2218, 7, -5, -7, 0, 0, 0, 0, 0, 0, 0, 0
326255915, 9164, 5813, -9526, 7740, 4051, 772, -2218, 7, -5, -7, 27, 28, 31, 43, 36, 65, 131, 29
326256710, 9164, 5813, -9526, 7740, 4051, 772, -2218, 7, -5, -7, 27, 28, 31, 43, 36, 65, 131, 29
326270274, 9164, 5813, -9526, 7740, 4057, 778, -2224, -3, -2, -9, 27, 28, 31, 43, 36, 65, 131, 29
326278408, 9164, 5813, -9526, 7740, 4057, 778, -2224, -3, -2, -9, 24, 29, 30, 38, 41, 67, 132, 29
326279200, 9164, 5813, -9526, 7740, 4057, 778, -2224, -3, -2, -9, 24, 29, 30, 38, 41, 67, 132, 29
326292742, 9165, 5814, -9528, 7736, 4018, 804, -2242, -17, -13, -15, 24, 29, 30, 38, 41, 67, 132, 29
326300903, 9165, 5814, -9528, 7736, 4018, 804, -2242, -17, -13, -15, 25, 31, 27, 34, 43, 56, 125, 31
326301685, 9165, 5814, -9528, 7736, 4018, 804, -2242, -17, -13, -15, 25, 31, 27, 34, 43, 56, 125, 31
326307914, 9173, 5814, -9551, 7698, 3929, 997, -2289, -199, -121, -93, 25, 31, 27, 34, 43, 56, 125, 31
326315876, 9173, 5814, -9551, 7698, 3929, 997, -2289, -199, -121, -93, 28, 33, 27, 33, 43, 56, 139, 46
326316717, 9173, 5814, -9551, 7698, 3929, 997, -2289, -199, -121, -93, 28, 33, 27, 33, 43, 56, 139, 46
326330240, 9215, 5776, -9615, 7596, 4048, 1014, -2486, -704, -169, -180, 28, 33, 27, 33, 43, 56, 139, 46
326338405, 9215, 5776, -9615, 7596, 4048, 1014, -2486, -704, -169, -180, 41, 48, 28, 35, 45, 73, 140, 63
326339164, 9215, 5776, -9615, 7596, 4048, 1014, -2486, -704, -169, -180, 41, 48, 28, 35, 45, 73, 140, 63
326352768, 9267, 5730, -9697, 7463, 4165, 875, -2531, -894, -233, -242, 41, 48, 28, 35, 45, 73, 140, 63
326360888, 9267, 5730, -9697, 7463, 4165, 875, -2531, -894, -233, -242, 95, 101, 77, 38, 77, 92, 173, 148
326361712, 9267, 5730, -9697, 7463, 4165, 875, -2531, -894, -233, -242, 95, 101, 77, 38, 77, 92, 173, 148
326367871, 9327, 5735, -9753, 7309, 4092, 865, -2689, -757, -293, -550, 95, 101, 77, 38, 77, 92, 173, 148
326375915, 9327, 5735, -9753, 7309, 4092, 865, -2689, -757, -293, -550, 110, 108, 92, 43, 83, 126, 195, 197
326376693, 9327, 5735, -9753, 7309, 4092, 865, -2689, -757, -293, -550, 110, 108, 92, 43, 83, 126, 195, 197
326390290, 9378, 5811, -9787, 7136, 3967, 883, -2827, -521, -471, -864, 110, 108, 92, 43, 83, 126, 195, 197
326398435, 9378, 5811, -9787, 7136, 3967, 883, -2827, -521, -471, -864, 120, 117, 111, 50, 94, 142, 244, 208
326399206, 9378, 5811, -9787, 7136, 3967, 883, -2827, -521, -471, -864, 120, 117, 111, 50, 94, 142, 244, 208
326412733, 9403, 5987, -9795, 6943, 3815, 1298, -3024, -151, -749, -1248, 120, 117, 111, 50, 94, 142, 244, 208
326420880, 9403, 5987, -9795, 6943, 3815, 1298, -3024, -151, -749, -1248, 123, 119, 114, 51, 121, 147, 247, 209
326421704, 9403, 5987, -9795, 6943, 3815, 1298, -3024, -151, -749, -1248, 123, 119, 114, 51, 121, 147, 247, 209
326427865, 9410, 6263, -9789, 6696, 3820, 1790, -3238, 61, -1121, -1749, 123, 119, 114, 51, 121, 147, 247, 209
326435942, 9410, 6263, -9789, 6696, 3820, 1790, -3238, 61, -1121, -1749, 134, 130, 117, 68, 123, 154, 304, 209
326436713, 9410, 6263, -9789, 6696, 3820, 1790, -3238, 61, -1121, -1749, 134, 130, 117, 68, 123, 154, 304, 209
326450267, 9420, 6581, -9798, 6353, 3753, 2203, -3312, -166, -1453, -2170, 134, 130, 117, 68, 123, 154, 304, 209
326458388, 9420, 6581, -9798, 6353, 3753, 2203, -3312, -166, -1453, -2170, 122, 117, 101, 70, 136, 181, 389, 235
326459240, 9420, 6581, -9798, 6353, 3753, 2203, -3312, -166, -1453, -2170, 122, 117, 101, 70, 136, 181, 389, 235
326472718, 9433, 6968, -9796, 5909, 3709, 2243, -3210, -268, -1790, -2758, 122, 117, 101, 70, 136, 181, 389, 235
326480921, 9433, 6968, -9796, 5909, 3709, 2243, -3210, -268, -1790, -2758, 127, 156, 115, 72, 146, 179, 432, 203
326481742, 9433, 6968, -9796, 5909, 3709, 2243, -3210, -268, -1790, -2758, 127, 156, 115, 72, 146, 179, 432, 203
326487889, 9420, 7453, -9738, 5415, 3681, 2205, -3145, 59, -2013, -3328, 127, 156, 115, 72, 146, 179, 432, 203
326495921, 9420, 7453, -9738, 5415, 3681, 2205, -3145, 59, -2013, -3328, 118, 157, 104, 70, 152, 181, 422, 195
326496713, 9420, 7453, -9738, 5415, 3681, 2205, -3145, 59, -2013, -3328, 118, 157, 104, 70, 152, 181, 422, 195
326510256, 9369, 8003, -9627, 4891, 3620, 2433, -3192, 358, -2170, -3708, 118, 157, 104, 70, 152, 181, 422, 195
326518411, 9369, 8003, -9627, 4891, 3620, 2433, -3192, 358, -2170, -3708, 117, 160, 126, 79, 136, 187, 456, 222
326519214, 9369, 8003, -9627, 4891, 3620, 2433, -3192, 358, -2170, -3708, 117, 160, 126, 79, 136, 187, 456, 222
326532768, 9285, 8584, -9478, 4322, 3518, 2638, -3274, 471, -2327, -4007, 117, 160, 126, 79, 136, 187, 456, 222
326540905, 9285, 8584, -9478, 4322, 3518, 2638, -3274, 471, -2327, -4007, 106, 150, 126, 85, 179, 189, 507, 235
326541696, 9285, 8584, -9478, 4322, 3518, 2638, -3274, 471, -2327, -4007, 106, 150, 126, 85, 179, 189, 507, 235
326547840, 9165, 9181, -9290, 3718, 3508, 2778, -3164, 566, -2450, -4225, 106, 150, 126, 85, 179, 189, 507, 235
326555915, 9165, 9181, -9290, 3718, 3508, 2778, -3164, 566, -2450, -4225, 87, 136, 124, 92, 167, 160, 584, 175
326556713, 9165, 9181, -9290, 3718, 3508, 2778, -3164, 566, -2450, -4225, 87, 136, 124, 92, 167, 160, 584, 175
326570242, 9002, 9789, -9054, 3097, 3498, 2865, -3015, 746, -2502, -4415, 87, 136, 124, 92, 167, 160, 584, 175
326578393, 9002, 9789, -9054, 3097, 3498, 2865, -3015, 746, -2502, -4415, 62, 80, 102, 115, 178, 182, 632, 172
326579203, 9002, 9789, -9054, 3097, 3498, 2865, -3015, 746, -2502, -4415, 62, 80, 102, 115, 178, 182, 632, 172
326592798, 8805, 10376, -8782, 2475, 3412, 2863, -3022, 828, -2477, -4435, 62, 80, 102, 115, 178, 182, 632, 172
326600862, 8805, 10376, -8782, 2475, 3412, 2863, -3022, 828, -2477, -4435, 65, 74, 101, 130, 177, 252, 692, 180
326601728, 8805, 10376, -8782, 2475, 3412, 2863, -3022, 828, -2477, -4435, 65, 74, 101, 130, 177, 252, 692, 180
326607851, 8595, 10909, -8491, 1856, 3303, 2763, -2982, 735, -2403, -4322, 65, 74, 101, 130, 177, 252, 692, 180
326615886, 8595, 10909, -8491, 1856, 3303, 2763, -2982, 735, -2403, -4322, 66, 69, 71, 138, 181, 272, 707, 149
326616666, 8595, 10909, -8491, 1856, 3303, 2763, -2982, 735, -2403, -4322, 66, 69, 71, 138, 181, 272, 707, 149
326630298, 8354, 11403, -8185, 1268, 3189, 2648, -3029, 839, -2308, -4148, 66, 69, 71, 138, 181, 272, 707, 149
326638364, 8354, 11403, -8185, 1268, 3189, 2648, -3029, 839, -2308, -4148, 61, 68, 69, 173, 152, 301, 827, 147
326639214, 8354, 11403, -8185, 1268, 3189, 2648, -3029, 839, -2308, -4148, 61, 68, 69, 173, 152, 301, 827, 147
326652765, 8078, 11845, -7895, 727, 3066, 2482, -3001, 856, -2232, -3894, 61, 68, 69, 173, 152, 301, 827, 147
326660864, 8078, 11845, -7895, 727, 3066, 2482, -3001, 856, -2232, -3894, 59, 78, 91, 305, 196, 370, 810, 159
326661662, 8078, 11845, -7895, 727, 3066, 2482, -3001, 856, -2232, -3894, 59, 78, 91, 305, 196, 370, 810, 159
326667840, 7805, 12219, -7625, 236, 3036, 2345, -2920, 776, -2108, -3538, 59, 78, 91, 305, 196, 370, 810, 159
326675213, 7805, 12219, -7625, 236, 3036, 2345, -2920, 776, -2108, -3538, 68, 85, 97, 316, 193, 439, 820, 191
326682738, 7805, 12219, -7625, 236, 3036, 2345, -2920, 776, -2108, -3538, 68, 85, 97, 316, 193, 439, 820, 191
326690342, 7549, 12530, -7376, -198, 3054, 2159, -2877, 677, -1924, -3167, 68, 85, 97, 316, 193, 439, 820, 191
326698408, 7549, 12530, -7376, -198, 3054, 2159, -2877, 677, -1924, -3167, 77, 85, 110, 364, 221, 450, 806, 213
326699188, 7549, 12530, -7376, -198, 3054, 2159, -2877, 677, -1924, -3167, 77, 85, 110, 364, 221, 450, 806, 213
326712774, 7336, 12770, -7156, -577, 3020, 1795, -2753, 433, -1688, -2759, 77, 85, 110, 364, 221, 450, 806, 213
326720896, 7336, 12770, -7156, -577, 3020, 1795, -2753, 433, -1688, -2759, 78, 90, 126, 441, 254, 462, 880, 216
326721701, 7336, 12770, -7156, -577, 3020, 1795, -2753, 433, -1688, -2759, 78, 90, 126, 441, 254, 462, 880, 216
326727840, 7157, 12954, -6974, -867, 2911, 1560, -2655, 363, -1343, -2242, 78, 90, 126, 441, 254, 462, 880, 216
326743403, 7157, 12954, -6974, -867, 2911, 1560, -2655, 363, -1343, -2242, 82, 93, 131, 462, 312, 458, 785, 213
326744163, 7157, 12954, -6974, -867, 2911, 1560, -2655, 363, -1343, -2242, 82, 93, 131, 462, 312, 458, 785, 213
326750319, 7005, 13089, -6849, -1054, 2803, 1345, -2721, 360, -988, -1614, 82, 93, 131, 462, 312, 458, 785, 213
326758363, 7005, 13089, -6849, -1054, 2803, 1345, -2721, 360, -988, -1614, 93, 105, 153, 401, 330, 432, 750, 214
326759214, 7005, 13089, -6849, -1054, 2803, 1345, -2721, 360, -988, -1614, 93, 105, 153, 401, 330, 432, 750, 214
326772766, 6877, 13155, -6860, -1015, 2827, 1186, -2684, 163, -752, -1044, 93, 105, 153, 401, 330, 432, 750, 214
326780861, 6877, 13155, -6860, -1015, 2827, 1186, -2684, 163, -752, -1044, 101, 105, 153, 389, 334, 398, 791, 210
326781653, 6877, 13155, -6860, -1015, 2827, 1186, -2684, 163, -752, -1044, 101, 105, 153, 389, 334, 398, 791, 210
326787817, 6815, 13177, -6894, -904, 2981, 1030, -2557, -46, -417, -703, 101, 105, 153, 389, 334, 398, 791, 210
326803364, 6815, 13177, -6894, -904, 2981, 1030, -2557, -46, -417, -703, 102, 105, 152, 358, 315, 393, 820, 186
326804181, 6815, 13177, -6894, -904, 2981, 1030, -2557, -46, -417, -703, 102, 105, 152, 358, 315, 393, 820, 186
326810317, 6771, 13191, -6930, -746, 2905, 1043, -2619, -38, -131, -498, 102, 105, 152, 358, 315, 393, 820, 186
326818401, 6771, 13191, -6930, -746, 2905, 1043, -2619, -38, -131, -498, 103, 112, 141, 281, 290, 373, 780, 186
326819163, 6771, 13191, -6930, -746, 2905, 1043, -2619, -38, -131, -498, 103, 112, 141, 281, 290, 373, 780, 186
326832780, 6685, 13236, -6944, -570, 2600, 1065, -2695, 263, 48, -484, 103, 112, 141, 281, 290, 373, 780, 186
326840861, 6685, 13236, -6944, -570, 2600, 1065, -2695, 263, 48, -484, 100, 114, 143, 237, 274, 375, 732, 188
326841690, 6685, 13236, -6944, -570, 2600, 1065, -2695, 263, 48, -484, 100, 114, 143, 237, 274, 375, 732, 188
326847815, 6579, 13296, -6942, -397, 2149, 1442, -2936, 468, 230, -349, 100, 114, 143, 237, 274, 375, 732, 188
326863337, 6579, 13296, -6942, -397, 2149, 1442, -2936, 468, 230, -349, 96, 103, 108, 228, 224, 386, 737, 176
326864192, 6579, 13296, -6942, -397, 2149, 1442, -2936, 468, 230, -349, 96, 103, 108, 228, 224, 386, 737, 176
326870316, 6498, 13342, -6938, -253, 1867, 1625, -3003, 322, 287, -219, 96, 103, 108, 228, 224, 386, 737, 176
326878382, 6498, 13342, -6938, -253, 1867, 1625, -3003, 322, 287, -219, 108, 101, 117, 239, 206, 368, 809, 200
326879164, 6498, 13342, -6938, -253, 1867, 1625, -3003, 322, 287, -219, 108, 101, 117, 239, 206, 368, 809, 200
326892765, 6436, 13366, -6952, -108, 1740, 1524, -3009, 177, 353, -33, 108, 101, 117, 239, 206, 368, 809, 200
326900860, 6436, 13366, -6952, -108, 1740, 1524, -3009, 177, 353, -33, 103, 104, 104, 216, 208, 326, 782, 196
326901675, 6436, 13366, -6952, -108, 1740, 1524, -3009, 177, 353, -33, 103, 104, 104, 216, 208, 326, 782, 196
326907828, 6373, 13382, -6980, 26, 1652, 1714, -3068, 221, 327, 116, 103, 104, 104, 216, 208, 326, 782, 196
326923400, 6373, 13382, -6980, 26, 1652, 1714, -3068, 221, 327, 116, 107, 104, 156, 208, 207, 347, 819, 197
326924213, 6373, 13382, -6980, 26, 1652, 1714, -3068, 221, 327, 116, 107, 104, 156, 208, 207, 347, 819, 197
326930388, 6325, 13392, -7005, 119, 1668, 1872, -3096, 110, 198, 68, 107, 104, 156, 208, 207, 347, 819, 197
326938350, 6325, 13392, -7005, 119, 1668, 1872, -3096, 110, 198, 68, 108, 98, 160, 198, 163, 350, 849, 192
326939175, 6325, 13392, -7005, 119, 1668, 1872, -3096, 110, 198, 68, 108, 98, 160, 198, 163, 350, 849, 192
326952740, 6304, 13390, -7026, 177, 1692, 1921, -3169, -115, 114, 10, 108, 98, 160, 198, 163, 350, 849, 192
326960844, 6304, 13390, -7026, 177, 1692, 1921, -3169, -115, 114, 10, 106, 92, 159, 189, 172, 332, 858, 196
326961679, 6304, 13390, -7026, 177, 1692, 1921, -3169, -115, 114, 10, 106, 92, 159, 189, 172, 332, 858, 196
326967869, 6299, 13383, -7042, 201, 1599, 1887, -3224, -310, 65, -40, 106, 92, 159, 189, 172, 332, 858, 196
326983418, 6299, 13383, -7042, 201, 1599, 1887, -3224, -310, 65, -40, 77, 88, 151, 179, 185, 293, 705, 141
326984173, 6299, 13383, -7042, 201, 1599, 1887, -3224, -310, 65, -40, 77, 88, 151, 179, 185, 293, 705, 141
326990361, 6277, 13382, -7064, 215, 1531, 1830, -3279, -274, 3, -35, 77, 88, 151, 179, 185, 293, 705, 141
326998344, 6277, 13382, -7064, 215, 1531, 1830, -3279, -274, 3, -35, 72, 78, 151, 191, 184, 288, 695, 140
326999139, 6277, 13382, -7064, 215, 1531, 1830, -3279, -274, 3, -35, 72, 78, 151, 191, 184, 288, 695, 140
327015416, 6237, 13384, -7094, 235, 1541, 1811, -3301, -178, -31, 10, 72, 78, 151, 191, 184, 288, 695, 140
327016231, 6237, 13384, -7094, 235, 1541, 1811, -3301, -178, -31, 10, 72, 78, 151, 191, 184, 288, 695, 140
327017041, 7157, 12954, -6974, -867, 2911, 1560, -2655, 363, -1343, -2242, 72, 78, 151, 191, 184, 288, 695, 140
327017863, 7157, 12954, -6974, -867, 2911, 1560, -2655, 363, -1343, -2242, 82, 93, 131, 462, 312, 458, 785, 213
327022864, 7157, 12954, -6974, -867, 2911, 1560, -2655, 363, -1343, -2242, 82, 93, 131, 462, 312, 458, 785, 213
327023832, 7005, 13089, -6849, -1054, 2803, 1345, -2721, 360, -988, -1614, 82, 93, 131, 462, 312, 458, 785, 213
327024686, 7005, 13089, -6849, -1054, 2803, 1345, -2721, 360, -988, -1614, 93, 105, 153, 401, 330, 432, 750, 214
327025478, 7005, 13089, -6849, -1054, 2803, 1345, -2721, 360, -988, -1614, 93, 105, 153, 401, 330, 432, 750, 214
327030495, 7005, 13089, -6849, -1054, 2803, 1345, -2721, 360, -988, -1614, 93, 105, 153, 401, 330, 432, 750, 214
327031289, 7005, 13089, -6849, -1054, 2803, 1345, -2721, 360, -988, -1614, 93, 105, 153, 401, 330, 432, 750, 214
327032129, 7005, 13089, -6849, -1054, 2803, 1345, -2721, 360, -988, -1614, 93, 105, 153, 401, 330, 432, 750, 214
327032935, 7005, 13089, -6849, -1054, 2803, 1345, -2721, 360, -988, -1614, 93, 105, 153, 401, 330, 432, 750, 214
327037886, 7005, 13089, -6849, -1054, 2803, 1345, -2721, 360, -988, -1614, 93, 105, 153, 401, 330, 432, 750, 214
327038663, 7005, 13089, -6849, -1054, 2803, 1345, -2721, 360, -988, -1614, 93, 105, 153, 401, 330, 432, 750, 214
327039532, 7005, 13089, -6849, -1054, 2803, 1345, -2721, 360, -988, -1614, 93, 105, 153, 401, 330, 432, 750, 214
327040301, 7005, 13089, -6849, -1054, 2803, 1345, -2721, 360, -988, -1614, 93, 105, 153, 401, 330, 432, 750, 214
327045392, 7005, 13089, -6849, -1054, 2803, 1345, -2721, 360, -988, -1614, 93, 105, 153, 401, 330, 432, 750, 214
327046315, 6877, 13155, -6860, -1015, 2827, 1186, -2684, 163, -752, -1044, 93, 105, 153, 401, 330, 432, 750, 214
327047140, 6877, 13155, -6860, -1015, 2827, 1186, -2684, 163, -752, -1044, 101, 105, 153, 389, 334, 398, 791, 210
327047940, 6877, 13155, -6860, -1015, 2827, 1186, -2684, 163, -752, -1044, 101, 105, 153, 389, 334, 398, 791, 210
327052940, 6877, 13155, -6860, -1015, 2827, 1186, -2684, 163, -752, -1044, 101, 105, 153, 389, 334, 398, 791, 210
327053768, 6877, 13155, -6860, -1015, 2827, 1186, -2684, 163, -752, -1044, 101, 105, 153, 389, 334, 398, 791, 210
327054566, 6877, 13155, -6860, -1015, 2827, 1186, -2684, 163, -752, -1044, 101, 105, 153, 389, 334, 398, 791, 210
327055387, 6877, 13155, -6860, -1015, 2827, 1186, -2684, 163, -752, -1044, 101, 105, 153, 389, 334, 398, 791, 210
327060365, 6877, 13155, -6860, -1015, 2827, 1186, -2684, 163, -752, -1044, 101, 105, 153, 389, 334, 398, 791, 210
327061137, 6877, 13155, -6860, -1015, 2827, 1186, -2684, 163, -752, -1044, 101, 105, 153, 389, 334, 398, 791, 210
327062003, 6877, 13155, -6860, -1015, 2827, 1186, -2684, 163, -752, -1044, 101, 105, 153, 389, 334, 398, 791, 210
327062763, 6877, 13155, -6860, -1015, 2827, 1186, -2684, 163, -752, -1044, 101, 105, 153, 389, 334, 398, 791, 210
327067861, 6877, 13155, -6860, -1015, 2827, 1186, -2684, 163, -752, -1044, 101, 105, 153, 389, 334, 398, 791, 210
327068791, 6815, 13177, -6894, -904, 2981, 1030, -2557, -46, -417, -703, 101, 105, 153, 389, 334, 398, 791, 210
327069673, 6815, 13177, -6894, -904, 2981, 1030, -2557, -46, -417, -703, 102, 105, 152, 358, 315, 393, 820, 186
327070343, 6815, 13177, -6894, -904, 2981, 1030, -2557, -46, -417, -703, 102, 105, 152, 358, 315, 393, 820, 186
327075398, 6815, 13177, -6894, -904, 2981, 1030, -2557, -46, -417, -703, 102, 105, 152, 358, 315, 393, 820, 186
327076214, 6815, 13177, -6894, -904, 2981, 1030, -2557, -46, -417, -703, 102, 105, 152, 358, 315, 393, 820, 186
327077012, 6815, 13177, -6894, -904, 2981, 1030, -2557, -46, -417, -703, 102, 105, 152, 358, 315, 393, 820, 186
327077837, 6815, 13177, -6894, -904, 2981, 1030, -2557, -46, -417, -703, 102, 105, 152, 358, 315, 393, 820, 186
327082868, 6815, 13177, -6894, -904, 2981, 1030, -2557, -46, -417, -703, 102, 105, 152, 358, 315, 393, 820, 186
327083687, 6815, 13177, -6894, -904, 2981, 1030, -2557, -46, -417, -703, 102, 105, 152, 358, 315, 393, 820, 186
327084491, 6815, 13177, -6894, -904, 2981, 1030, -2557, -46, -417, -703, 102, 105, 152, 358, 315, 393, 820, 186
327085335, 6815, 13177, -6894, -904, 2981, 1030, -2557, -46, -417, -703, 102, 105, 152, 358, 315, 393, 820, 186
327090393, 6815, 13177, -6894, -904, 2981, 1030, -2557, -46, -417, -703, 102, 105, 152, 358, 315, 393, 820, 186
327091325, 6771, 13191, -6930, -746, 2905, 1043, -2619, -38, -131, -498, 102, 105, 152, 358, 315, 393, 820, 186
327092128, 6771, 13191, -6930, -746, 2905, 1043, -2619, -38, -131, -498, 103, 112, 141, 281, 290, 373, 780, 186
327092914, 6771, 13191, -6930, -746, 2905, 1043, -2619, -38, -131, -498, 103, 112, 141, 281, 290, 373, 780, 186
327097913, 6771, 13191, -6930, -746, 2905, 1043, -2619, -38, -131, -498, 103, 112, 141, 281, 290, 373, 780, 186
327098737, 6771, 13191, -6930, -746, 2905, 1043, -2619, -38, -131, -498, 103, 112, 141, 281, 290, 373, 780, 186
327099637, 6771, 13191, -6930, -746, 2905, 1043, -2619, -38, -131, -498, 103, 112, 141, 281, 290, 373, 780, 186
327100315, 6771, 13191, -6930, -746, 2905, 1043, -2619, -38, -131, -498, 103, 112, 141, 281, 290, 373, 780, 186
327105338, 6771, 13191, -6930, -746, 2905, 1043, -2619, -38, -131, -498, 103, 112, 141, 281, 290, 373, 780, 186
327106203, 6771, 13191, -6930, -746, 2905, 1043, -2619, -38, -131, -498, 103, 112, 141, 281, 290, 373, 780, 186
327106965, 6771, 13191, -6930, -746, 2905, 1043, -2619, -38, -131, -498, 103, 112, 141, 281, 290, 373, 780, 186
327107798, 6771, 13191, -6930, -746, 2905, 1043, -2619, -38, -131, -498, 103, 112, 141, 281, 290, 373, 780, 186
327112865, 6771, 13191, -6930, -746, 2905, 1043, -2619, -38, -131, -498, 103, 112, 141, 281, 290, 373, 780, 186
327113812, 6685, 13236, -6944, -570, 2600, 1065, -2695, 263, 48, -484, 103, 112, 141, 281, 290, 373, 780, 186
327114689, 6685, 13236, -6944, -570, 2600, 1065, -2695, 263, 48, -484, 100, 114, 143, 237, 274, 375, 732, 188
327115439, 6685, 13236, -6944, -570, 2600, 1065, -2695, 263, 48, -484, 100, 114, 143, 237, 274, 375, 732, 188
327120468, 6685, 13236, -6944, -570, 2600, 1065, -2695, 263, 48, -484, 100, 114, 143, 237, 274, 375, 732, 188
327121238, 6685, 13236, -6944, -570, 2600, 1065, -2695, 263, 48, -484, 100, 114, 143, 237, 274, 375, 732, 188
327122090, 6685, 13236, -6944, -570, 2600, 1065, -2695, 263, 48, -484, 100, 114, 143, 237, 274, 375, 732, 188
327122863, 6685, 13236, -6944, -570, 2600, 1065, -2695, 263, 48, -484, 100, 114, 143, 237, 274, 375, 732, 188
327127849, 6685, 13236, -6944, -570, 2600, 1065, -2695, 263, 48, -484, 100, 114, 143, 237, 274, 375, 732, 188
327128668, 6685, 13236, -6944, -570, 2600, 1065, -2695, 263, 48, -484, 100, 114, 143, 237, 274, 375, 732, 188
327129466, 6685, 13236, -6944, -570, 2600, 1065, -2695, 263, 48, -484, 100, 114, 143, 237, 274, 375, 732, 188
327130270, 6685, 13236, -6944, -570, 2600, 1065, -2695, 263, 48, -484, 100, 114, 143, 237, 274, 375, 732, 188
327135365, 6685, 13236, -6944, -570, 2600, 1065, -2695, 263, 48, -484, 100, 114, 143, 237, 274, 375, 732, 188
327136255, 6579, 13296, -6942, -397, 2149, 1442, -2936, 468, 230, -349, 100, 114, 143, 237, 274, 375, 732, 188
327137065, 6579, 13296, -6942, -397, 2149, 1442, -2936, 468, 230, -349, 96, 103, 108, 228, 224, 386, 737, 176
327137888, 6579, 13296, -6942, -397, 2149, 1442, -2936, 468, 230, -349, 96, 103, 108, 228, 224, 386, 737, 176
327142938, 6579, 13296, -6942, -397, 2149, 1442, -2936, 468, 230, -349, 96, 103, 108, 228, 224, 386, 737, 176
327143788, 6579, 13296, -6942, -397, 2149, 1442, -2936, 468, 230, -349, 96, 103, 108, 228, 224, 386, 737, 176
327144692, 6579, 13296, -6942, -397, 2149, 1442, -2936, 468, 230, -349, 96, 103, 108, 228, 224, 386, 737, 176
327145388, 6579, 13296, -6942, -397, 2149, 1442, -2936, 468, 230, -349, 96, 103, 108, 228, 224, 386, 737, 176
327150365, 6579, 13296, -6942, -397, 2149, 1442, -2936, 468, 230, -349, 96, 103, 108, 228, 224, 386, 737, 176
327151165, 6579, 13296, -6942, -397, 2149, 1442, -2936, 468, 230, -349, 96, 103, 108, 228, 224, 386, 737, 176
327151986, 6579, 13296, -6942, -397, 2149, 1442, -2936, 468, 230, -349, 96, 103, 108, 228, 224, 386, 737, 176
327152810, 6579, 13296, -6942, -397, 2149, 1442, -2936, 468, 230, -349, 96, 103, 108, 228, 224, 386, 737, 176
327157886, 6579, 13296, -6942, -397, 2149, 1442, -2936, 468, 230, -349, 96, 103, 108, 228, 224, 386, 737, 176
327158815, 6498, 13342, -6938, -253, 1867, 1625, -3003, 322, 287, -219, 96, 103, 108, 228, 224, 386, 737, 176
327159703, 6498, 13342, -6938, -253, 1867, 1625, -3003, 322, 287, -219, 108, 101, 117, 239, 206, 368, 809, 200
327160463, 6498, 13342, -6938, -253, 1867, 1625, -3003, 322, 287, -219, 108, 101, 117, 239, 206, 368, 809, 200
327165465, 6498, 13342, -6938, -253, 1867, 1625, -3003, 322, 287, -219, 108, 101, 117, 239, 206, 368, 809, 200
327166263, 6498, 13342, -6938, -253, 1867, 1625, -3003, 322, 287, -219, 108, 101, 117, 239, 206, 368, 809, 200
327167085, 6498, 13342, -6938, -253, 1867, 1625, -3003, 322, 287, -219, 108, 101, 117, 239, 206, 368, 809, 200
327167887, 6498, 13342, -6938, -253, 1867, 1625, -3003, 322, 287, -219, 108, 101, 117, 239, 206, 368, 809, 200
327172840, 6498, 13342, -6938, -253, 1867, 1625, -3003, 322, 287, -219, 108, 101, 117, 239, 206, 368, 809, 200
327173706, 6498, 13342, -6938, -253, 1867, 1625, -3003, 322, 287, -219, 108, 101, 117, 239, 206, 368, 809, 200
327174494, 6498, 13342, -6938, -253, 1867, 1625, -3003, 322, 287, -219, 108, 101, 117, 239, 206, 368, 809, 200
327175309, 6498, 13342, -6938, -253, 1867, 1625, -3003, 322, 287, -219, 108, 101, 117, 239, 206, 368, 809, 200
327180472, 6436, 13366, -6952, -108, 1740, 1524, -3009, 177, 353, -33, 108, 101, 117, 239, 206, 368, 809, 200
327181282, 6436, 13366, -6952, -108, 1740, 1524, -3009, 177, 353, -33, 103, 104, 104, 216, 208, 326, 782, 196
327182087, 6436, 13366, -6952, -108, 1740, 1524, -3009, 177, 353, -33, 103, 104, 104, 216, 208, 326, 782, 196
327182910, 6436, 13366, -6952, -108, 1740, 1524, -3009, 177, 353, -33, 103, 104, 104, 216, 208, 326, 782, 196
327187903, 6436, 13366, -6952, -108, 1740, 1524, -3009, 177, 353, -33, 103, 104, 104, 216, 208, 326, 782, 196
327188710, 6436, 13366, -6952, -108, 1740, 1524, -3009, 177, 353, -33, 103, 104, 104, 216, 208, 326, 782, 196
327189518, 6436, 13366, -6952, -108, 1740, 1524, -3009, 177, 353, -33, 103, 104, 104, 216, 208, 326, 782, 196
327190325, 6436, 13366, -6952, -108, 1740, 1524, -3009, 177, 353, -33, 103, 104, 104, 216, 208, 326, 782, 196
327195392, 6436, 13366, -6952, -108, 1740, 1524, -3009, 177, 353, -33, 103, 104, 104, 216, 208, 326, 782, 196
327196315, 6373, 13382, -6980, 26, 1652, 1714, -3068, 221, 327, 116, 103, 104, 104, 216, 208, 326, 782, 196
327197097, 6373, 13382, -6980, 26, 1652, 1714, -3068, 221, 327, 116, 107, 104, 156, 208, 207, 347, 819, 197
327197913, 6373, 13382, -6980, 26, 1652, 1714, -3068, 221, 327, 116, 107, 104, 156, 208, 207, 347, 819, 197
327202931, 6373, 13382, -6980, 26, 1652, 1714, -3068, 221, 327, 116, 107, 104, 156, 208, 207, 347, 819, 197
327203759, 6373, 13382, -6980, 26, 1652, 1714, -3068, 221, 327, 116, 107, 104, 156, 208, 207, 347, 819, 197
327204564, 6373, 13382, -6980, 26, 1652, 1714, -3068, 221, 327, 116, 107, 104, 156, 208, 207, 347, 819, 197
327205427, 6373, 13382, -6980, 26, 1652, 1714, -3068, 221, 327, 116, 107, 104, 156, 208, 207, 347, 819, 197
327210338, 6373, 13382, -6980, 26, 1652, 1714, -3068, 221, 327, 116, 107, 104, 156, 208, 207, 347, 819, 197
327211189, 6373, 13382, -6980, 26, 1652, 1714, -3068, 221, 327, 116, 107, 104, 156, 208, 207, 347, 819, 197
327211964, 6373, 13382, -6980, 26, 1652, 1714, -3068, 221, 327, 116, 107, 104, 156, 208, 207, 347, 819, 197
327212814, 6373, 13382, -6980, 26, 1652, 1714, -3068, 221, 327, 116, 107, 104, 156, 208, 207, 347, 819, 197
327217898, 6373, 13382, -6980, 26, 1652, 1714, -3068, 221, 327, 116, 107, 104, 156, 208, 207, 347, 819, 197
327218813, 6325, 13392, -7005, 119, 1668, 1872, -3096, 110, 198, 68, 107, 104, 156, 208, 207, 347, 819, 197
327219705, 6325, 13392, -7005, 119, 1668, 1872, -3096, 110, 198, 68, 108, 98, 160, 198, 163, 350, 849, 192
327220416, 6325, 13392, -7005, 119, 1668, 1872, -3096, 110, 198, 68, 108, 98, 160, 198, 163, 350, 849, 192
327225461, 6325, 13392, -7005, 119, 1668, 1872, -3096, 110, 198, 68, 108, 98, 160, 198, 163, 350, 849, 192
327226237, 6325, 13392, -7005, 119, 1668, 1872, -3096, 110, 198, 68, 108, 98, 160, 198, 163, 350, 849, 192
327227089, 6325, 13392, -7005, 119, 1668, 1872, -3096, 110, 198, 68, 108, 98, 160, 198, 163, 350, 849, 192
327227863, 6325, 13392, -7005, 119, 1668, 1872, -3096, 110, 198, 68, 108, 98, 160, 198, 163, 350, 849, 192
327232841, 6325, 13392, -7005, 119, 1668, 1872, -3096, 110, 198, 68, 108, 98, 160, 198, 163, 350, 849, 192
327233663, 6325, 13392, -7005, 119, 1668, 1872, -3096, 110, 198, 68, 108, 98, 160, 198, 163, 350, 849, 192
327234468, 6325, 13392, -7005, 119, 1668, 1872, -3096, 110, 198, 68, 108, 98, 160, 198, 163, 350, 849, 192
327235263, 6325, 13392, -7005, 119, 1668, 1872, -3096, 110, 198, 68, 108, 98, 160, 198, 163, 350, 849, 192
327240350, 6325, 13392, -7005, 119, 1668, 1872, -3096, 110, 198, 68, 108, 98, 160, 198, 163, 350, 849, 192
327241265, 6304, 13390, -7026, 177, 1692, 1921, -3169, -115, 114, 10, 108, 98, 160, 198, 163, 350, 849, 192
327242128, 6304, 13390, -7026, 177, 1692, 1921, -3169, -115, 114, 10, 106, 92, 159, 189, 172, 332, 858, 196
327242889, 6304, 13390, -7026, 177, 1692, 1921, -3169, -115, 114, 10, 106, 92, 159, 189, 172, 332, 858, 196
327247978, 6304, 13390, -7026, 177, 1692, 1921, -3169, -115, 114, 10, 106, 92, 159, 189, 172, 332, 858, 196
327248787, 6304, 13390, -7026, 177, 1692, 1921, -3169, -115, 114, 10, 106, 92, 159, 189, 172, 332, 858, 196
327249704, 6304, 13390, -7026, 177, 1692, 1921, -3169, -115, 114, 10, 106, 92, 159, 189, 172, 332, 858, 196
327250341, 6304, 13390, -7026, 177, 1692, 1921, -3169, -115, 114, 10, 106, 92, 159, 189, 172, 332, 858, 196
327255384, 6304, 13390, -7026, 177, 1692, 1921, -3169, -115, 114, 10, 106, 92, 159, 189, 172, 332, 858, 196
327256163, 6304, 13390, -7026, 177, 1692, 1921, -3169, -115, 114, 10, 106, 92, 159, 189, 172, 332, 858, 196
327257001, 6304, 13390, -7026, 177, 1692, 1921, -3169, -115, 114, 10, 106, 92, 159, 189, 172, 332, 858, 196
327257814, 6304, 13390, -7026, 177, 1692, 1921, -3169, -115, 114, 10, 106, 92, 159, 189, 172, 332, 858, 196
327262903, 6304, 13390, -7026, 177, 1692, 1921, -3169, -115, 114, 10, 106, 92, 159, 189, 172, 332, 858, 196
327263796, 6299, 13383, -7042, 201, 1599, 1887, -3224, -310, 65, -40, 106, 92, 159, 189, 172, 332, 858, 196
327264703, 6299, 13383, -7042, 201, 1599, 1887, -3224, -310, 65, -40, 77, 88, 151, 179, 185, 293, 705, 141
327265441, 6299, 13383, -7042, 201, 1599, 1887, -3224, -310, 65, -40, 77, 88, 151, 179, 185, 293, 705, 141
327270478, 6299, 13383, -7042, 201, 1599, 1887, -3224, -310, 65, -40, 77, 88, 151, 179, 185, 293, 705, 141
327271284, 6299, 13383, -7042, 201, 1599, 1887, -3224, -310, 65, -40, 77, 88, 151, 179, 185, 293, 705, 141
327272092, 6299, 13383, -7042, 201, 1599, 1887, -3224, -310, 65, -40, 77, 88, 151, 179, 185, 293, 705, 141
327272888, 6299, 13383, -7042, 201, 1599, 1887, -3224, -310, 65, -40, 77, 88, 151, 179, 185, 293, 705, 141
327277877, 6299, 13383, -7042, 201, 1599, 1887, -3224, -310, 65, -40, 77, 88, 151, 179, 185, 293, 705, 141
327278653, 6299, 13383, -7042, 201, 1599, 1887, -3224, -310, 65, -40, 77, 88, 151, 179, 185, 293, 705, 141
327279442, 6299, 13383, -7042, 201, 1599, 1887, -3224, -310, 65, -40, 77, 88, 151, 179, 185, 293, 705, 141
327280262, 6299, 13383, -7042, 201, 1599, 1887, -3224, -310, 65, -40, 77, 88, 151, 179, 185, 293, 705, 141
327285354, 6299, 13383, -7042, 201, 1599, 1887, -3224, -310, 65, -40, 77, 88, 151, 179, 185, 293, 705, 141
327286290, 6277, 13382, -7064, 215, 1531, 1830, -3279, -274, 3, -35, 77, 88, 151, 179, 185, 293, 705, 141
327287128, 6277, 13382, -7064, 215, 1531, 1830, -3279, -274, 3, -35, 72, 78, 151, 191, 184, 288, 695, 140
327287913, 6277, 13382, -7064, 215, 1531, 1830, -3279, -274, 3, -35, 72, 78, 151, 191, 184, 288, 695, 140
327292928, 6277, 13382, -7064, 215, 1531, 1830, -3279, -274, 3, -35, 72, 78, 151, 191, 184, 288, 695, 140
327293737, 6277, 13382, -7064, 215, 1531, 1830, -3279, -274, 3, -35, 72, 78, 151, 191, 184, 288, 695, 140
327294582, 6277, 13382, -7064, 215, 1531, 1830, -3279, -274, 3, -35, 72, 78, 151, 191, 184, 288, 695, 140
327295369, 6277, 13382, -7064, 215, 1531, 1830, -3279, -274, 3, -35, 72, 78, 151, 191, 184, 288, 695, 140
327300353, 6277, 13382, -7064, 215, 1531, 1830, -3279, -274, 3, -35, 72, 78, 151, 191, 184, 288, 695, 140
327301160, 6277, 13382, -7064, 215, 1531, 1830, -3279, -274, 3, -35, 72, 78, 151, 191, 184, 288, 695, 140
327301949, 6277, 13382, -7064, 215, 1531, 1830, -3279, -274, 3, -35, 72, 78, 151, 191, 184, 288, 695, 140
327302763, 6277, 13382, -7064, 215, 1531, 1830, -3279, -274, 3, -35, 72, 78, 151, 191, 184, 288, 695, 140
327307896, 6277, 13382, -7064, 215, 1531, 1830, -3279, -274, 3, -35, 72, 78, 151, 191, 184, 288, 695, 140
327308823, 6237, 13384, -7094, 235, 1541, 1811, -3301, -178, -31, 10, 72, 78, 151, 191, 184, 288, 695, 140
327309663, 6237, 13384, -7094, 235, 1541, 1811, -3301, -178, -31, 10, 74, 58, 94, 166, 181, 288, 602, 142
327310482, 6237, 13384, -7094, 235, 1541, 1811, -3301, -178, -31, 10, 74, 58, 94, 166, 181, 288, 602, 142
327315463, 6237, 13384, -7094, 235, 1541, 1811, -3301, -178, -31, 10, 74, 58, 94, 166, 181, 288, 602, 142
327316290, 6237, 13384, -7094, 235, 1541, 1811, -3301, -178, -31, 10, 74, 58, 94, 166, 181, 288, 602, 142
327317088, 6237, 13384, -7094, 235, 1541, 1811, -3301, -178, -31, 10, 74, 58, 94, 166, 181, 288, 602, 142
327317926, 6237, 13384, -7094, 235, 1541, 1811, -3301, -178, -31, 10, 74, 58, 94, 166, 181, 288, 602, 142
327322838, 6237, 13384, -7094, 235, 1541, 1811, -3301, -178, -31, 10, 74, 58, 94, 166, 181, 288, 602, 142
327323692, 6237, 13384, -7094, 235, 1541, 1811, -3301, -178, -31, 10, 74, 58, 94, 166, 181, 288, 602, 142
327324487, 6237, 13384, -7094, 235, 1541, 1811, -3301, -178, -31, 10, 74, 58, 94, 166, 181, 288, 602, 142
327325317, 6237, 13384, -7094, 235, 1541, 1811, -3301, -178, -31, 10, 74, 58, 94, 166, 181, 288, 602, 142
327330363, 6237, 13384, -7094, 235, 1541, 1811, -3301, -178, -31, 10, 74, 58, 94, 166, 181, 288, 602, 142
327331332, 6197, 13385, -7127, 246, 1514, 1934, -3278, -134, -74, 46, 74, 58, 94, 166, 181, 288, 602, 142
327332142, 6197, 13385, -7127, 246, 1514, 1934, -3278, -134, -74, 46, 73, 57, 79, 161, 148, 267, 600, 143
327332957, 6197, 13385, -7127, 246, 1514, 1934, -3278, -134, -74, 46, 73, 57, 79, 161, 148, 267, 600, 143
327337944, 6197, 13385, -7127, 246, 1514, 1934, -3278, -134, -74, 46, 73, 57, 79, 161, 148, 267, 600, 143
327338738, 6197, 13385, -7127, 246, 1514, 1934, -3278, -134, -74, 46, 73, 57, 79, 161, 148, 267, 600, 143
327339608, 6197, 13385, -7127, 246, 1514, 1934, -3278, -134, -74, 46, 73, 57, 79, 161, 148, 267, 600, 143
327340363, 6197, 13385, -7127, 246, 1514, 1934, -3278, -134, -74, 46, 73, 57, 79, 161, 148, 267, 600, 143
327345354, 6197, 13385, -7127, 246, 1514, 1934, -3278, -134, -74, 46, 73, 57, 79, 161, 148, 267, 600, 143
327346160, 6197, 13385, -7127, 246, 1514, 1934, -3278, -134, -74, 46, 73, 57, 79, 161, 148, 267, 600, 143
327346992, 6197, 13385, -7127, 246, 1514, 1934, -3278, -134, -74, 46, 73, 57, 79, 161, 148, 267, 600, 143
327347785, 6197, 13385, -7127, 246, 1514, 1934, -3278, -134, -74, 46, 73, 57, 79, 161, 148, 267, 600, 143
327352881, 6197, 13385, -7127, 246, 1514, 1934, -3278, -134, -74, 46, 73, 57, 79, 161, 148, 267, 600, 143
327353772, 6175, 13375, -7166, 239, 1528, 1986, -3244, -240, -135, 67, 73, 57, 79, 161, 148, 267, 600, 143
327354662, 6175, 13375, -7166, 239, 1528, 1986, -3244, -240, -135, 67, 64, 51, 70, 157, 129, 254, 585, 123
327355382, 6175, 13375, -7166, 239, 1528, 1986, -3244, -240, -135, 67, 64, 51, 70, 157, 129, 254, 585, 123
327360413, 6175, 13375, -7166, 239, 1528, 1986, -3244, -240, -135, 67, 64, 51, 70, 157, 129, 254, 585, 123
327361239, 6175, 13375, -7166, 239, 1528, 1986, -3244, -240, -135, 67, 64, 51, 70, 157, 129, 254, 585, 123
327362037, 6175, 13375, -7166, 239, 1528, 1986, -3244, -240, -135, 67, 64, 51, 70, 157, 129, 254, 585, 123
327362891, 6175, 13375, -7166, 239, 1528, 1986, -3244, -240, -135, 67, 64, 51, 70, 157, 129, 254, 585, 123
327366491, 6175, 13375, -7166, 239, 1528, 1986, -3244, -240, -135, 67, 64, 51, 70, 157, 129, 254, 585, 123
327367315, 6175, 13375, -7166, 239, 1528, 1986, -3244, -240, -135, 67, 64, 51, 70, 157, 129, 254, 585, 123
327368118, 6175, 13375, -7166, 239, 1528, 1986, -3244, -240, -135, 67, 64, 51, 70, 157, 129, 254, 585, 123
327372709, 8941, 10299, -8349, -3565, 1596, 2498, -1693, -768, -377, -6, 64, 51, 70, 157, 129, 254, 585, 123
327389134, 8941, 10299, -8349, -3565, 1596, 2498, -1693, -768, -377, -6, 99, 103, 117, 216, 163, 348, 582, 209
327389879, 8941, 10299, -8349, -3565, 1596, 2498, -1693, -768, -377, -6, 99, 103, 117, 216, 163, 348, 582, 209
327390816, 8956, 10224, -8411, -3599, 1479, 2308, -1735, -786, -333, -36, 99, 103, 117, 216, 163, 348, 582, 209
327403351, 8956, 10224, -8411, -3599, 1479, 2308, -1735, -786, -333, -36, 99, 104, 113, 196, 161, 333, 593, 204
327404138, 8956, 10224, -8411, -3599, 1479, 2308, -1735, -786, -333, -36, 99, 104, 113, 196, 161, 333, 593, 204
327410332, 8952, 10171, -8477, -3605, 1475, 2382, -1764, -567, -266, 1, 99, 104, 113, 196, 161, 333, 593, 204
327425814, 8952, 10171, -8477, -3605, 1475, 2382, -1764, -567, -266, 1, 88, 102, 97, 152, 145, 309, 525, 172
327426704, 8952, 10171, -8477, -3605, 1475, 2382, -1764, -567, -266, 1, 88, 102, 97, 152, 145, 309, 525, 172
327432841, 8938, 10135, -8538, -3594, 1461, 2392, -1730, -412, -201, -11, 88, 102, 97, 152, 145, 309, 525, 172
327449038, 8938, 10135, -8538, -3594, 1461, 2392, -1730, -412, -201, -11, 76, 94, 94, 133, 122, 228, 590, 160
327449851, 8938, 10135, -8538, -3594, 1461, 2392, -1730, -412, -201, -11, 76, 94, 94, 133, 122, 228, 590, 160
327450818, 8913, 10115, -8600, -3565, 1350, 2373, -1695, -253, -140, 53, 76, 94, 94, 133, 122, 228, 590, 160
327463363, 8913, 10115, -8600, -3565, 1350, 2373, -1695, -253, -140, 53, 72, 87, 86, 115, 114, 209, 588, 140
327464190, 8913, 10115, -8600, -3565, 1350, 2373, -1695, -253, -140, 53, 72, 87, 86, 115, 114, 209, 588, 140
327470322, 8883, 10102, -8660, -3531, 1325, 2443, -1630, -143, -125, 72, 72, 87, 86, 115, 114, 209, 588, 140
327485864, 8883, 10102, -8660, -3531, 1325, 2443, -1630, -143, -125, 72, 68, 74, 74, 127, 106, 207, 594, 129
327486664, 8883, 10102, -8660, -3531, 1325, 2443, -1630, -143, -125, 72, 68, 74, 74, 127, 106, 207, 594, 129
327492857, 8856, 10084, -8723, -3497, 1397, 2397, -1636, -161, -144, 57, 68, 74, 74, 127, 106, 207, 594, 129
327509064, 8856, 10084, -8723, -3497, 1397, 2397, -1636, -161, -144, 57, 58, 60, 61, 124, 96, 200, 622, 118
327509873, 8856, 10084, -8723, -3497, 1397, 2397, -1636, -161, -144, 57, 58, 60, 61, 124, 96, 200, 622, 118
327510817, 8819, 10074, -8791, -3446, 1484, 2334, -1687, -74, -128, 56, 58, 60, 61, 124, 96, 200, 622, 118
327523337, 8819, 10074, -8791, -3446, 1484, 2334, -1687, -74, -128, 56, 58, 55, 55, 117, 94, 207, 607, 113
327524166, 8819, 10074, -8791, -3446, 1484, 2334, -1687, -74, -128, 56, 58, 55, 55, 117, 94, 207, 607, 113
327530299, 8778, 10074, -8853, -3392, 1457, 2387, -1662, 11, -100, 43, 58, 55, 55, 117, 94, 207, 607, 113
327545825, 8778, 10074, -8853, -3392, 1457, 2387, -1662, 11, -100, 43, 51, 47, 48, 112, 90, 217, 534, 100
327546685, 8778, 10074, -8853, -3392, 1457, 2387, -1662, 11, -100, 43, 51, 47, 48, 112, 90, 217, 534, 100
327552830, 8753, 10066, -8906, -3345, 1478, 2419, -1600, -52, -74, 34, 51, 47, 48, 112, 90, 217, 534, 100
327569038, 8753, 10066, -8906, -3345, 1478, 2419, -1600, -52, -74, 34, 48, 51, 52, 118, 88, 200, 562, 100
327569864, 8753, 10066, -8906, -3345, 1478, 2419, -1600, -52, -74, 34, 48, 51, 52, 118, 88, 200, 562, 100
327570790, 8732, 10055, -8954, -3301, 1510, 2312, -1601, -100, -65, 2, 48, 51, 52, 118, 88, 200, 562, 100
327583390, 8732, 10055, -8954, -3301, 1510, 2312, -1601, -100, -65, 2, 44, 48, 49, 102, 88, 190, 556, 89
327584191, 8732, 10055, -8954, -3301, 1510, 2312, -1601, -100, -65, 2, 44, 48, 49, 102, 88, 190, 556, 89
327590316, 8694, 10058, -9003, -3258, 1486, 2319, -1608, 10, -105, -38, 44, 48, 49, 102, 88, 190, 556, 89
327606536, 8694, 10058, -9003, -3258, 1486, 2319, -1608, 10, -105, -38, 49, 51, 48, 139, 92, 220, 472, 101
327607319, 8694, 10058, -9003, -3258, 1486, 2319, -1608, 10, -105, -38, 49, 51, 48, 139, 92, 220, 472, 101
327608305, 8665, 10057, -9042, -3233, 1437, 2460, -1575, -51, -114, -49, 49, 51, 48, 139, 92, 220, 472, 101
327629028, 8665, 10057, -9042, -3233, 1437, 2460, -1575, -51, -114, -49, 49, 58, 59, 136, 92, 206, 529, 103
327629859, 8665, 10057, -9042, -3233, 1437, 2460, -1575, -51, -114, -49, 49, 58, 59, 136, 92, 206, 529, 103
327630786, 8643, 10044, -9088, -3203, 1519, 2271, -1602, -126, -113, -31, 49, 58, 59, 136, 92, 206, 529, 103
