Timestamp, Orientation x, Orientation y, Orientation z, Orientation w, Acceleration x, Acceleration y, Acceleration z, Rotation x, Rotation y, Rotation z, EMG 0, EMG 1, EMG 2, EMG 3, EMG 4, EMG 5, EMG 6, EMG 7
347453749, 2508, 3757, -15512, 2720, 4046, 509, -2215, -10, 61, 20, 0, 0, 0, 0, 0, 0, 0, 0
347454546, 2516, 3754, -15513, 2715, 4071, 499, -2237, -43, 42, 4, 0, 0, 0, 0, 0, 0, 0, 0
347475491, 2517, 3756, -15514, 2705, 4096, 480, -2204, -51, -14, -16, 0, 0, 0, 0, 0, 0, 0, 0
347498090, 2513, 3761, -15515, 2698, 4124, 452, -2172, -30, -37, -31, 0, 0, 0, 0, 0, 0, 0, 0
347513016, 2510, 3775, -15512, 2694, 4106, 452, -2150, -5, -30, -74, 0, 0, 0, 0, 0, 0, 0, 0
347521112, 2510, 3775, -15512, 2694, 4106, 452, -2150, -5, -30, -74, 22, 29, 28, 24, 47, 124, 165, 29
347521939, 2510, 3775, -15512, 2694, 4106, 452, -2150, -5, -30, -74, 22, 29, 28, 24, 47, 124, 165, 29
347535503, 2509, 3786, -15509, 2696, 4066, 448, -2101, 26, -14, -63, 22, 29, 28, 24, 47, 124, 165, 29
347543654, 2509, 3786, -15509, 2696, 4066, 448, -2101, 26, -14, -63, 22, 26, 28, 26, 47, 115, 162, 31
347544466, 2509, 3786, -15509, 2696, 4066, 448, -2101, 26, -14, -63, 22, 26, 28, 26, 47, 115, 162, 31
347558030, 2506, 3794, -15506, 2707, 4043, 416, -2052, 71, -5, -35, 22, 26, 28, 26, 47, 115, 162, 31
347566206, 2506, 3794, -15506, 2707, 4043, 416, -2052, 71, -5, -35, 22, 26, 27, 25, 45, 113, 139, 48
347566990, 2506, 3794, -15506, 2707, 4043, 416, -2052, 71, -5, -35, 22, 26, 27, 25, 45, 113, 139, 48
347573149, 2490, 3801, -15502, 2734, 4032, 425, -2030, 172, -53, -2, 22, 26, 27, 25, 45, 113, 139, 48
347581116, 2490, 3801, -15502, 2734, 4032, 425, -2030, 172, -53, -2, 27, 26, 26, 26, 46, 112, 134, 53
347581947, 2490, 3801, -15502, 2734, 4032, 425, -2030, 172, -53, -2, 27, 26, 26, 26, 46, 112, 134, 53
347595496, 2457, 3810, -15497, 2782, 4023, 422, -2041, 305, -116, 14, 27, 26, 26, 26, 46, 112, 134, 53
347611169, 2457, 3810, -15497, 2782, 4023, 422, -2041, 305, -116, 14, 27, 25, 27, 23, 28, 84, 118, 55
347611964, 2457, 3810, -15497, 2782, 4023, 422, -2041, 305, -116, 14, 27, 25, 27, 23, 28, 84, 118, 55
347618129, 2412, 3823, -15488, 2852, 4017, 455, -2075, 450, -157, 22, 27, 25, 27, 23, 28, 84, 118, 55
347626163, 2412, 3823, -15488, 2852, 4017, 455, -2075, 450, -157, 22, 33, 27, 27, 24, 30, 84, 120, 57
347626986, 2412, 3823, -15488, 2852, 4017, 455, -2075, 450, -157, 22, 33, 27, 27, 24, 30, 84, 120, 57
347633125, 2364, 3834, -15479, 2927, 4029, 559, -2140, 478, -157, 35, 33, 27, 27, 24, 30, 84, 120, 57
347641189, 2364, 3834, -15479, 2927, 4029, 559, -2140, 478, -157, 35, 38, 29, 27, 25, 32, 85, 114, 58
347641975, 2364, 3834, -15479, 2927, 4029, 559, -2140, 478, -157, 35, 38, 29, 27, 25, 32, 85, 114, 58
347655526, 2325, 3842, -15469, 2995, 4040, 579, -2150, 425, -117, 41, 38, 29, 27, 25, 32, 85, 114, 58
347663673, 2325, 3842, -15469, 2995, 4040, 579, -2150, 425, -117, 41, 39, 31, 29, 28, 33, 85, 130, 67
347664469, 2325, 3842, -15469, 2995, 4040, 579, -2150, 425, -117, 41, 39, 31, 29, 28, 33, 85, 130, 67
347677989, 2297, 3860, -15459, 3048, 4107, 535, -2158, 343, -92, -36, 39, 31, 29, 28, 33, 85, 130, 67
347686168, 2297, 3860, -15459, 3048, 4107, 535, -2158, 343, -92, -36, 36, 30, 28, 26, 33, 92, 142, 81
347686965, 2297, 3860, -15459, 3048, 4107, 535, -2158, 343, -92, -36, 36, 30, 28, 26, 33, 92, 142, 81
347693140, 2278, 3890, -15446, 3090, 4087, 546, -2185, 282, -62, -125, 36, 30, 28, 26, 33, 92, 142, 81
347701173, 2278, 3890, -15446, 3090, 4087, 546, -2185, 282, -62, -125, 81, 52, 39, 32, 46, 99, 142, 287
347701965, 2278, 3890, -15446, 3090, 4087, 546, -2185, 282, -62, -125, 81, 52, 39, 32, 46, 99, 142, 287
347715499, 2271, 3925, -15433, 3113, 4082, 636, -2062, 171, -38, -178, 81, 52, 39, 32, 46, 99, 142, 287
347723644, 2271, 3925, -15433, 3113, 4082, 636, -2062, 171, -38, -178, 121, 65, 45, 33, 49, 116, 157, 352
347724441, 2271, 3925, -15433, 3113, 4082, 636, -2062, 171, -38, -178, 121, 65, 45, 33, 49, 116, 157, 352
347738027, 2272, 3974, -15415, 3143, 4121, 612, -2036, 213, 7, -264, 121, 65, 45, 33, 49, 116, 157, 352
347746184, 2272, 3974, -15415, 3143, 4121, 612, -2036, 213, 7, -264, 123, 66, 47, 32, 51, 133, 179, 372
347746962, 2272, 3974, -15415, 3143, 4121, 612, -2036, 213, 7, -264, 123, 66, 47, 32, 51, 133, 179, 372
347753090, 2286, 4037, -15393, 3159, 4056, 677, -2029, 140, 46, -364, 123, 66, 47, 32, 51, 133, 179, 372
347761180, 2286, 4037, -15393, 3159, 4056, 677, -2029, 140, 46, -364, 130, 67, 46, 32, 49, 130, 162, 383
347761964, 2286, 4037, -15393, 3159, 4056, 677, -2029, 140, 46, -364, 130, 67, 46, 32, 49, 130, 162, 383
347775564, 2314, 4107, -15375, 3135, 4056, 959, -2088, -92, 54, -437, 130, 67, 46, 32, 49, 130, 162, 383
347783663, 2314, 4107, -15375, 3135, 4056, 959, -2088, -92, 54, -437, 150, 79, 52, 32, 49, 138, 156, 384
347784469, 2314, 4107, -15375, 3135, 4056, 959, -2088, -92, 54, -437, 150, 79, 52, 32, 49, 138, 156, 384
347798016, 2361, 4196, -15358, 3064, 4234, 1041, -2029, -350, 63, -601, 150, 79, 52, 32, 49, 138, 156, 384
347806141, 2361, 4196, -15358, 3064, 4234, 1041, -2029, -350, 63, -601, 142, 73, 47, 31, 40, 126, 173, 304
347806939, 2361, 4196, -15358, 3064, 4234, 1041, -2029, -350, 63, -601, 142, 73, 47, 31, 40, 126, 173, 304
347813119, 2466, 4289, -15341, 2935, 4266, 1145, -1963, -735, 285, -725, 142, 73, 47, 31, 40, 126, 173, 304
347821183, 2466, 4289, -15341, 2935, 4266, 1145, -1963, -735, 285, -725, 120, 62, 44, 30, 46, 155, 183, 269
347821965, 2466, 4289, -15341, 2935, 4266, 1145, -1963, -735, 285, -725, 120, 62, 44, 30, 46, 155, 183, 269
347835522, 2593, 4400, -15324, 2745, 4189, 1067, -1789, -1071, 284, -895, 120, 62, 44, 30, 46, 155, 183, 269
347843667, 2593, 4400, -15324, 2745, 4189, 1067, -1789, -1071, 284, -895, 124, 72, 54, 56, 52, 173, 196, 330
347844472, 2593, 4400, -15324, 2745, 4189, 1067, -1789, -1071, 284, -895, 124, 72, 54, 56, 52, 173, 196, 330
347858016, 2786, 4520, -15294, 2516, 4245, 1209, -1873, -1355, 582, -1055, 124, 72, 54, 56, 52, 173, 196, 330
347866154, 2786, 4520, -15294, 2516, 4245, 1209, -1873, -1355, 582, -1055, 132, 119, 109, 84, 74, 187, 208, 335
347866941, 2786, 4520, -15294, 2516, 4245, 1209, -1873, -1355, 582, -1055, 132, 119, 109, 84, 74, 187, 208, 335
347873099, 3009, 4639, -15251, 2296, 4401, 1048, -1653, -1344, 763, -1094, 132, 119, 109, 84, 74, 187, 208, 335
347888695, 3009, 4639, -15251, 2296, 4401, 1048, -1653, -1344, 763, -1094, 126, 194, 204, 135, 106, 201, 214, 367
347889418, 3009, 4639, -15251, 2296, 4401, 1048, -1653, -1344, 763, -1094, 126, 194, 204, 135, 106, 201, 214, 367
347895593, 3210, 4795, -15184, 2145, 4457, 778, -1587, -892, 755, -1230, 126, 194, 204, 135, 106, 201, 214, 367
347903675, 3210, 4795, -15184, 2145, 4457, 778, -1587, -892, 755, -1230, 119, 202, 224, 158, 112, 224, 211, 375
347904418, 3210, 4795, -15184, 2145, 4457, 778, -1587, -892, 755, -1230, 119, 202, 224, 158, 112, 224, 211, 375
347917993, 3423, 4959, -15102, 2017, 4317, 1105, -1630, -772, 862, -1281, 119, 202, 224, 158, 112, 224, 211, 375
347926104, 3423, 4959, -15102, 2017, 4317, 1105, -1630, -772, 862, -1281, 117, 207, 231, 180, 112, 211, 185, 386
347926890, 3423, 4959, -15102, 2017, 4317, 1105, -1630, -772, 862, -1281, 117, 207, 231, 180, 112, 211, 185, 386
347933065, 3659, 5139, -14999, 1919, 4323, 1299, -1564, -626, 1045, -1385, 117, 207, 231, 180, 112, 211, 185, 386
347941141, 3659, 5139, -14999, 1919, 4323, 1299, -1564, -626, 1045, -1385, 122, 209, 231, 174, 111, 188, 164, 358
347941940, 3659, 5139, -14999, 1919, 4323, 1299, -1564, -626, 1045, -1385, 122, 209, 231, 174, 111, 188, 164, 358
347955554, 3913, 5339, -14875, 1832, 4378, 1227, -1421, -561, 1174, -1518, 122, 209, 231, 174, 111, 188, 164, 358
347963677, 3913, 5339, -14875, 1832, 4378, 1227, -1421, -561, 1174, -1518, 111, 191, 214, 162, 100, 184, 161, 352
347964417, 3913, 5339, -14875, 1832, 4378, 1227, -1421, -561, 1174, -1518, 111, 191, 214, 162, 100, 184, 161, 352
347978018, 4202, 5541, -14732, 1744, 4348, 1165, -1522, -618, 1370, -1582, 111, 191, 214, 162, 100, 184, 161, 352
347986109, 4202, 5541, -14732, 1744, 4348, 1165, -1522, -618, 1370, -1582, 109, 110, 127, 123, 66, 169, 178, 325
347986900, 4202, 5541, -14732, 1744, 4348, 1165, -1522, -618, 1370, -1582, 109, 110, 127, 123, 66, 169, 178, 325
347993124, 4508, 5751, -14567, 1684, 4303, 1228, -1559, -480, 1540, -1641, 109, 110, 127, 123, 66, 169, 178, 325
348001175, 4508, 5751, -14567, 1684, 4303, 1228, -1559, -480, 1540, -1641, 108, 94, 87, 91, 64, 175, 165, 308
348001952, 4508, 5751, -14567, 1684, 4303, 1228, -1559, -480, 1540, -1641, 108, 94, 87, 91, 64, 175, 165, 308
348015526, 4804, 5981, -14382, 1659, 4344, 1217, -1414, -244, 1576, -1714, 108, 94, 87, 91, 64, 175, 165, 308
348023698, 4804, 5981, -14382, 1659, 4344, 1217, -1414, -244, 1576, -1714, 109, 84, 65, 32, 58, 169, 177, 295
348024394, 4804, 5981, -14382, 1659, 4344, 1217, -1414, -244, 1576, -1714, 109, 84, 65, 32, 58, 169, 177, 295
348038006, 5108, 6208, -14181, 1647, 4295, 1239, -1438, -198, 1670, -1722, 109, 84, 65, 32, 58, 169, 177, 295
348046796, 5108, 6208, -14181, 1647, 4295, 1239, -1438, -198, 1670, -1722, 112, 72, 57, 31, 53, 165, 172, 314
348047706, 5108, 6208, -14181, 1647, 4295, 1239, -1438, -198, 1670, -1722, 112, 72, 57, 31, 53, 165, 172, 314
348053118, 5418, 6428, -13965, 1650, 4208, 1334, -1415, -137, 1758, -1694, 112, 72, 57, 31, 53, 165, 172, 314
348060450, 5418, 6428, -13965, 1650, 4208, 1334, -1415, -137, 1758, -1694, 162, 82, 49, 32, 49, 155, 174, 305
348067982, 5418, 6428, -13965, 1650, 4208, 1334, -1415, -137, 1758, -1694, 162, 82, 49, 32, 49, 155, 174, 305
348075666, 5717, 6659, -13734, 1671, 4250, 1361, -1295, 0, 1769, -1737, 162, 82, 49, 32, 49, 155, 174, 305
348083693, 5717, 6659, -13734, 1671, 4250, 1361, -1295, 0, 1769, -1737, 159, 79, 45, 30, 53, 163, 194, 318
348084417, 5717, 6659, -13734, 1671, 4250, 1361, -1295, 0, 1769, -1737, 159, 79, 45, 30, 53, 163, 194, 318
348098032, 6071, 6876, -13471, 1686, 4186, 1394, -1299, -55, 1808, -1741, 159, 79, 45, 30, 53, 163, 194, 318
348106107, 6071, 6876, -13471, 1686, 4186, 1394, -1299, -55, 1808, -1741, 159, 77, 44, 32, 44, 131, 209, 300
348106916, 6071, 6876, -13471, 1686, 4186, 1394, -1299, -55, 1808, -1741, 159, 77, 44, 32, 44, 131, 209, 300
348113063, 6421, 7070, -13204, 1695, 3994, 1470, -1321, -124, 1835, -1653, 159, 77, 44, 32, 44, 131, 209, 300
348120439, 6421, 7070, -13204, 1695, 3994, 1470, -1321, -124, 1835, -1653, 156, 82, 45, 32, 43, 124, 202, 298
348127951, 6421, 7070, -13204, 1695, 3994, 1470, -1321, -124, 1835, -1653, 156, 82, 45, 32, 43, 124, 202, 298
348135560, 6754, 7266, -12926, 1715, 3954, 1493, -1252, -32, 1831, -1665, 156, 82, 45, 32, 43, 124, 202, 298
348143691, 6754, 7266, -12926, 1715, 3954, 1493, -1252, -32, 1831, -1665, 149, 86, 44, 31, 44, 123, 197, 223
348144488, 6754, 7266, -12926, 1715, 3954, 1493, -1252, -32, 1831, -1665, 149, 86, 44, 31, 44, 123, 197, 223
348158024, 7073, 7463, -12636, 1745, 3908, 1507, -1158, 50, 1830, -1676, 149, 86, 44, 31, 44, 123, 197, 223
348166156, 7073, 7463, -12636, 1745, 3908, 1507, -1158, 50, 1830, -1676, 115, 76, 41, 28, 42, 127, 199, 238
348166916, 7073, 7463, -12636, 1745, 3908, 1507, -1158, 50, 1830, -1676, 115, 76, 41, 28, 42, 127, 199, 238
348173092, 7365, 7654, -12345, 1787, 3800, 1507, -1170, 143, 1782, -1614, 115, 76, 41, 28, 42, 127, 199, 238
348188588, 7365, 7654, -12345, 1787, 3800, 1507, -1170, 143, 1782, -1614, 119, 73, 39, 28, 37, 116, 169, 219
348189454, 7365, 7654, -12345, 1787, 3800, 1507, -1170, 143, 1782, -1614, 119, 73, 39, 28, 37, 116, 169, 219
348195567, 7629, 7841, -12057, 1835, 3699, 1537, -1255, 223, 1714, -1556, 119, 73, 39, 28, 37, 116, 169, 219
348203673, 7629, 7841, -12057, 1835, 3699, 1537, -1255, 223, 1714, -1556, 133, 78, 42, 25, 45, 113, 153, 253
348204418, 7629, 7841, -12057, 1835, 3699, 1537, -1255, 223, 1714, -1556, 133, 78, 42, 25, 45, 113, 153, 253
348218000, 7872, 8026, -11768, 1888, 3616, 1622, -1141, 295, 1650, -1528, 133, 78, 42, 25, 45, 113, 153, 253
348226119, 7872, 8026, -11768, 1888, 3616, 1622, -1141, 295, 1650, -1528, 142, 74, 39, 25, 46, 120, 148, 249
348226914, 7872, 8026, -11768, 1888, 3616, 1622, -1141, 295, 1650, -1528, 142, 74, 39, 25, 46, 120, 148, 249
348233075, 8154, 8198, -11443, 1949, 3570, 1626, -1080, 369, 1597, -1527, 142, 74, 39, 25, 46, 120, 148, 249
348248594, 8154, 8198, -11443, 1949, 3570, 1626, -1080, 369, 1597, -1527, 159, 85, 47, 27, 48, 125, 145, 286
348249443, 8154, 8198, -11443, 1949, 3570, 1626, -1080, 369, 1597, -1527, 159, 85, 47, 27, 48, 125, 145, 286
348255669, 8404, 8366, -11126, 2005, 3425, 1668, -1145, 381, 1578, -1481, 159, 85, 47, 27, 48, 125, 145, 286
348263665, 8404, 8366, -11126, 2005, 3425, 1668, -1145, 381, 1578, -1481, 144, 77, 45, 28, 48, 119, 135, 269
348264366, 8404, 8366, -11126, 2005, 3425, 1668, -1145, 381, 1578, -1481, 144, 77, 45, 28, 48, 119, 135, 269
348278005, 8633, 8538, -10808, 2047, 3306, 1748, -1175, 367, 1556, -1504, 144, 77, 45, 28, 48, 119, 135, 269
348286090, 8633, 8538, -10808, 2047, 3306, 1748, -1175, 367, 1556, -1504, 145, 85, 49, 30, 48, 102, 108, 275
348286943, 8633, 8538, -10808, 2047, 3306, 1748, -1175, 367, 1556, -1504, 145, 85, 49, 30, 48, 102, 108, 275
348293116, 8850, 8707, -10488, 2073, 3219, 1854, -1146, 317, 1535, -1521, 145, 85, 49, 30, 48, 102, 108, 275
348308690, 8850, 8707, -10488, 2073, 3219, 1854, -1146, 317, 1535, -1521, 143, 81, 47, 31, 41, 106, 120, 313
348309441, 8850, 8707, -10488, 2073, 3219, 1854, -1146, 317, 1535, -1521, 143, 81, 47, 31, 41, 106, 120, 313
348315693, 9053, 8859, -10179, 2093, 3125, 1802, -1110, 234, 1501, -1484, 143, 81, 47, 31, 41, 106, 120, 313
348323589, 9053, 8859, -10179, 2093, 3125, 1802, -1110, 234, 1501, -1484, 145, 85, 48, 30, 40, 103, 125, 320
348324442, 9053, 8859, -10179, 2093, 3125, 1802, -1110, 234, 1501, -1484, 145, 85, 48, 30, 40, 103, 125, 320
348337955, 9230, 9009, -9878, 2118, 3023, 1690, -1176, 237, 1490, -1492, 145, 85, 48, 30, 40, 103, 125, 320
348346154, 9230, 9009, -9878, 2118, 3023, 1690, -1176, 237, 1490, -1492, 187, 94, 55, 33, 43, 95, 142, 289
348346993, 9230, 9009, -9878, 2118, 3023, 1690, -1176, 237, 1490, -1492, 187, 94, 55, 33, 43, 95, 142, 289
348353091, 9387, 9156, -9585, 2146, 2932, 1648, -1247, 235, 1496, -1471, 187, 94, 55, 33, 43, 95, 142, 289
348368672, 9387, 9156, -9585, 2146, 2932, 1648, -1247, 235, 1496, -1471, 201, 101, 59, 35, 44, 100, 146, 303
348369444, 9387, 9156, -9585, 2146, 2932, 1648, -1247, 235, 1496, -1471, 201, 101, 59, 35, 44, 100, 146, 303
348375706, 9529, 9293, -9305, 2164, 2806, 1676, -1321, 151, 1466, -1405, 201, 101, 59, 35, 44, 100, 146, 303
348383672, 9529, 9293, -9305, 2164, 2806, 1676, -1321, 151, 1466, -1405, 193, 100, 59, 36, 68, 128, 156, 319
348384441, 9529, 9293, -9305, 2164, 2806, 1676, -1321, 151, 1466, -1405, 193, 100, 59, 36, 68, 128, 156, 319
348398004, 9654, 9411, -9052, 2173, 2670, 1567, -1303, 55, 1347, -1328, 193, 100, 59, 36, 68, 128, 156, 319
348406163, 9654, 9411, -9052, 2173, 2670, 1567, -1303, 55, 1347, -1328, 196, 111, 62, 38, 76, 157, 161, 258
348406927, 9654, 9411, -9052, 2173, 2670, 1567, -1303, 55, 1347, -1328, 196, 111, 62, 38, 76, 157, 161, 258
348413093, 9768, 9499, -8835, 2172, 2577, 1469, -1344, -116, 1233, -1190, 196, 111, 62, 38, 76, 157, 161, 258
348428691, 9768, 9499, -8835, 2172, 2577, 1469, -1344, -116, 1233, -1190, 218, 147, 78, 43, 78, 151, 169, 245
348429455, 9768, 9499, -8835, 2172, 2577, 1469, -1344, -116, 1233, -1190, 218, 147, 78, 43, 78, 151, 169, 245
348435592, 9863, 9568, -8650, 2183, 2505, 1417, -1344, -140, 1153, -1004, 218, 147, 78, 43, 78, 151, 169, 245
348451161, 9863, 9568, -8650, 2183, 2505, 1417, -1344, -140, 1153, -1004, 185, 144, 78, 46, 90, 160, 179, 264
348451957, 9863, 9568, -8650, 2183, 2505, 1417, -1344, -140, 1153, -1004, 185, 144, 78, 46, 90, 160, 179, 264
348458067, 9931, 9629, -8499, 2204, 2370, 1315, -1317, -93, 1007, -829, 185, 144, 78, 46, 90, 160, 179, 264
348466142, 9931, 9629, -8499, 2204, 2370, 1315, -1317, -93, 1007, -829, 189, 152, 89, 51, 96, 158, 175, 260
348466939, 9931, 9629, -8499, 2204, 2370, 1315, -1317, -93, 1007, -829, 189, 152, 89, 51, 96, 158, 175, 260
348473117, 9980, 9672, -8386, 2222, 2292, 1394, -1303, -131, 839, -602, 189, 152, 89, 51, 96, 158, 175, 260
348488694, 9980, 9672, -8386, 2222, 2292, 1394, -1303, -131, 839, -602, 202, 153, 87, 50, 79, 136, 172, 244
348489423, 9980, 9672, -8386, 2222, 2292, 1394, -1303, -131, 839, -602, 202, 153, 87, 50, 79, 136, 172, 244
348495569, 9997, 9713, -8309, 2256, 2223, 1380, -1281, -9, 680, -392, 202, 153, 87, 50, 79, 136, 172, 244
348511091, 9997, 9713, -8309, 2256, 2223, 1380, -1281, -9, 680, -392, 203, 151, 88, 55, 73, 88, 147, 245
348511944, 9997, 9713, -8309, 2256, 2223, 1380, -1281, -9, 680, -392, 203, 151, 88, 55, 73, 88, 147, 245
348518085, 9983, 9761, -8256, 2305, 2203, 1383, -1236, 159, 535, -243, 203, 151, 88, 55, 73, 88, 147, 245
348526126, 9983, 9761, -8256, 2305, 2203, 1383, -1236, 159, 535, -243, 306, 203, 289, 201, 90, 91, 131, 238
348526937, 9983, 9761, -8256, 2305, 2203, 1383, -1236, 159, 535, -243, 306, 203, 289, 201, 90, 91, 131, 238
348533066, 9940, 9818, -8223, 2366, 2201, 1503, -1243, 316, 421, -89, 306, 203, 289, 201, 90, 91, 131, 238
348548619, 9940, 9818, -8223, 2366, 2201, 1503, -1243, 316, 421, -89, 311, 202, 323, 243, 88, 74, 110, 250
348549435, 9940, 9818, -8223, 2366, 2201, 1503, -1243, 316, 421, -89, 311, 202, 323, 243, 88, 74, 110, 250
348555583, 9894, 9870, -8206, 2405, 2101, 1709, -1195, 282, 271, 31, 311, 202, 323, 243, 88, 74, 110, 250
348571119, 9894, 9870, -8206, 2405, 2101, 1709, -1195, 282, 271, 31, 329, 196, 341, 251, 126, 84, 139, 257
348571914, 9894, 9870, -8206, 2405, 2101, 1709, -1195, 282, 271, 31, 329, 196, 341, 251, 126, 84, 139, 257
348578076, 9868, 9905, -8188, 2428, 2147, 1922, -1008, 211, 197, 83, 329, 196, 341, 251, 126, 84, 139, 257
348585449, 9868, 9905, -8188, 2428, 2147, 1922, -1008, 211, 197, 83, 538, 432, 543, 345, 141, 120, 169, 408
348593590, 9868, 9905, -8188, 2428, 2147, 1922, -1008, 211, 197, 83, 538, 432, 543, 345, 141, 120, 169, 408
348594574, 9840, 9944, -8164, 2465, 2202, 1963, -999, 277, 243, 103, 538, 432, 543, 345, 141, 120, 169, 408
348608589, 9840, 9944, -8164, 2465, 2202, 1963, -999, 277, 243, 103, 672, 553, 652, 435, 176, 135, 191, 477
348609443, 9840, 9944, -8164, 2465, 2202, 1963, -999, 277, 243, 103, 672, 553, 652, 435, 176, 135, 191, 477
348615574, 9811, 9988, -8136, 2494, 2087, 1953, -1060, 268, 258, 80, 672, 553, 652, 435, 176, 135, 191, 477
348631097, 9811, 9988, -8136, 2494, 2087, 1953, -1060, 268, 258, 80, 718, 544, 606, 395, 190, 154, 201, 574
348631875, 9811, 9988, -8136, 2494, 2087, 1953, -1060, 268, 258, 80, 718, 544, 606, 395, 190, 154, 201, 574
348638142, 9795, 10019, -8115, 2502, 2022, 2102, -965, 164, 175, 139, 718, 544, 606, 395, 190, 154, 201, 574
348654320, 9795, 10019, -8115, 2502, 2022, 2102, -965, 164, 175, 139, 777, 572, 596, 372, 190, 165, 212, 566
348655109, 9795, 10019, -8115, 2502, 2022, 2102, -965, 164, 175, 139, 777, 572, 596, 372, 190, 165, 212, 566
348656042, 9782, 10046, -8097, 2501, 2078, 2232, -897, 156, 108, 170, 777, 572, 596, 372, 190, 165, 212, 566
348668660, 9782, 10046, -8097, 2501, 2078, 2232, -897, 156, 108, 170, 840, 601, 589, 369, 190, 205, 222, 583
348669456, 9782, 10046, -8097, 2501, 2078, 2232, -897, 156, 108, 170, 840, 601, 589, 369, 190, 205, 222, 583
348675591, 9761, 10089, -8068, 2502, 2112, 2278, -796, 290, 61, 97, 840, 601, 589, 369, 190, 205, 222, 583
348691134, 9761, 10089, -8068, 2502, 2112, 2278, -796, 290, 61, 97, 855, 594, 459, 299, 214, 269, 318, 642
348691914, 9761, 10089, -8068, 2502, 2112, 2278, -796, 290, 61, 97, 855, 594, 459, 299, 214, 269, 318, 642
348698107, 9737, 10135, -8039, 2501, 2091, 2227, -843, 293, 61, 67, 855, 594, 459, 299, 214, 269, 318, 642
348714015, 9737, 10135, -8039, 2501, 2091, 2227, -843, 293, 61, 67, 825, 515, 291, 145, 218, 293, 335, 608
348714881, 9737, 10135, -8039, 2501, 2091, 2227, -843, 293, 61, 67, 825, 515, 291, 145, 218, 293, 335, 608
348721041, 9703, 10178, -8024, 2512, 2080, 2101, -794, 341, 9, 118, 825, 515, 291, 145, 218, 293, 335, 608
348728675, 9703, 10178, -8024, 2512, 2080, 2101, -794, 341, 9, 118, 838, 546, 265, 139, 249, 292, 355, 542
348729417, 9703, 10178, -8024, 2512, 2080, 2101, -794, 341, 9, 118, 838, 546, 265, 139, 249, 292, 355, 542
348735573, 9658, 10227, -8013, 2520, 2122, 2218, -830, 396, -53, 150, 838, 546, 265, 139, 249, 292, 355, 542
348751134, 9658, 10227, -8013, 2520, 2122, 2218, -830, 396, -53, 150, 862, 600, 317, 150, 281, 322, 376, 586
348751927, 9658, 10227, -8013, 2520, 2122, 2218, -830, 396, -53, 150, 862, 600, 317, 150, 281, 322, 376, 586
348758066, 9590, 10305, -7995, 2518, 2117, 2258, -955, 526, -112, 47, 862, 600, 317, 150, 281, 322, 376, 586
348774341, 9590, 10305, -7995, 2518, 2117, 2258, -955, 526, -112, 47, 869, 675, 368, 176, 356, 367, 384, 674
348775113, 9590, 10305, -7995, 2518, 2117, 2258, -955, 526, -112, 47, 869, 675, 368, 176, 356, 367, 384, 674
348776106, 9529, 10369, -7988, 2512, 2102, 2163, -935, 443, -148, 63, 869, 675, 368, 176, 356, 367, 384, 674
348788592, 9529, 10369, -7988, 2512, 2102, 2163, -935, 443, -148, 63, 820, 655, 364, 172, 370, 347, 321, 657
348789415, 9529, 10369, -7988, 2512, 2102, 2163, -935, 443, -148, 63, 820, 655, 364, 172, 370, 347, 321, 657
348795563, 9453, 10433, -7995, 2510, 2147, 2112, -1055, 459, -193, 101, 820, 655, 364, 172, 370, 347, 321, 657
348811077, 9453, 10433, -7995, 2510, 2147, 2112, -1055, 459, -193, 101, 808, 662, 368, 170, 364, 325, 303, 660
348811931, 9453, 10433, -7995, 2510, 2147, 2112, -1055, 459, -193, 101, 808, 662, 368, 170, 364, 325, 303, 660
348818042, 9376, 10503, -7993, 2513, 2244, 2203, -1052, 530, -183, 72, 808, 662, 368, 170, 364, 325, 303, 660
348834302, 9376, 10503, -7993, 2513, 2244, 2203, -1052, 530, -183, 72, 764, 662, 371, 169, 344, 331, 337, 655
348835089, 9376, 10503, -7993, 2513, 2244, 2203, -1052, 530, -183, 72, 764, 662, 371, 169, 344, 331, 337, 655
348836080, 9319, 10568, -7976, 2504, 2223, 2307, -998, 470, -154, 26, 764, 662, 371, 169, 344, 331, 337, 655
348848686, 9319, 10568, -7976, 2504, 2223, 2307, -998, 470, -154, 26, 759, 651, 341, 165, 326, 338, 359, 662
348849410, 9319, 10568, -7976, 2504, 2223, 2307, -998, 470, -154, 26, 759, 651, 341, 165, 326, 338, 359, 662
348863083, 9282, 10613, -7968, 2475, 2253, 2323, -1079, 259, -162, 20, 759, 651, 341, 165, 326, 338, 359, 662
348871118, 9282, 10613, -7968, 2475, 2253, 2323, -1079, 259, -162, 20, 739, 594, 305, 141, 300, 326, 421, 611
348871952, 9282, 10613, -7968, 2475, 2253, 2323, -1079, 259, -162, 20, 739, 594, 305, 141, 300, 326, 421, 611
348878104, 9266, 10637, -7970, 2427, 2192, 2244, -1136, 23, -165, 9, 739, 594, 305, 141, 300, 326, 421, 611
348894264, 9266, 10637, -7970, 2427, 2192, 2244, -1136, 23, -165, 9, 685, 540, 252, 123, 367, 337, 411, 477
348895115, 9266, 10637, -7970, 2427, 2192, 2244, -1136, 23, -165, 9, 685, 540, 252, 123, 367, 337, 411, 477
348896016, 9259, 10649, -7976, 2383, 2317, 2211, -1101, -33, -163, -1, 685, 540, 252, 123, 367, 337, 411, 477
348908600, 9259, 10649, -7976, 2383, 2317, 2211, -1101, -33, -163, -1, 635, 541, 246, 128, 378, 352, 434, 514
348909403, 9259, 10649, -7976, 2383, 2317, 2211, -1101, -33, -163, -1, 635, 541, 246, 128, 378, 352, 434, 514
348915574, 9261, 10664, -7967, 2334, 2262, 2194, -1093, -60, -114, -82, 635, 541, 246, 128, 378, 352, 434, 514
348931091, 9261, 10664, -7967, 2334, 2262, 2194, -1093, -60, -114, -82, 604, 541, 267, 138, 393, 371, 482, 601
348931955, 9261, 10664, -7967, 2334, 2262, 2194, -1093, -60, -114, -82, 604, 541, 267, 138, 393, 371, 482, 601
348938078, 9269, 10664, -7977, 2270, 2237, 2122, -1128, -208, -180, -60, 604, 541, 267, 138, 393, 371, 482, 601
348954315, 9269, 10664, -7977, 2270, 2237, 2122, -1128, -208, -180, -60, 521, 523, 292, 164, 413, 406, 534, 678
348955138, 9269, 10664, -7977, 2270, 2237, 2122, -1128, -208, -180, -60, 521, 523, 292, 164, 413, 406, 534, 678
348956067, 9311, 10658, -7948, 2229, 2425, 2322, -950, -173, 14, -126, 521, 523, 292, 164, 413, 406, 534, 678
348968588, 9311, 10658, -7948, 2229, 2425, 2322, -950, -173, 14, -126, 420, 546, 292, 164, 383, 399, 573, 648
348969389, 9311, 10658, -7948, 2229, 2425, 2322, -950, -173, 14, -126, 420, 546, 292, 164, 383, 399, 573, 648
348983068, 9369, 10658, -7906, 2133, 2092, 2452, -961, -345, -34, -235, 420, 546, 292, 164, 383, 399, 573, 648
348990841, 9369, 10658, -7906, 2133, 2092, 2452, -961, -345, -34, -235, 383, 548, 328, 158, 293, 391, 679, 731
348998687, 9369, 10658, -7906, 2133, 2092, 2452, -961, -345, -34, -235, 383, 548, 328, 158, 293, 391, 679, 731
348999583, 9399, 10635, -7928, 2027, 1931, 1934, -1125, -541, -244, -125, 383, 548, 328, 158, 293, 391, 679, 731
349014312, 9399, 10635, -7928, 2027, 1931, 1934, -1125, -541, -244, -125, 358, 520, 346, 181, 307, 468, 781, 777
349015116, 9399, 10635, -7928, 2027, 1931, 1934, -1125, -541, -244, -125, 358, 520, 346, 181, 307, 468, 781, 777
349016058, 9410, 10558, -8028, 1988, 2082, 1477, -1189, -616, -267, 307, 358, 520, 346, 181, 307, 468, 781, 777
349028698, 9410, 10558, -8028, 1988, 2082, 1477, -1189, -616, -267, 307, 313, 479, 334, 175, 315, 504, 887, 759
349029472, 9410, 10558, -8028, 1988, 2082, 1477, -1189, -616, -267, 307, 313, 479, 334, 175, 315, 504, 887, 759
349035604, 9405, 10503, -8104, 1996, 2528, 1780, -1057, -248, -204, 302, 313, 479, 334, 175, 315, 504, 887, 759
349051136, 9405, 10503, -8104, 1996, 2528, 1780, -1057, -248, -204, 302, 254, 422, 289, 153, 314, 496, 997, 857
349051915, 9405, 10503, -8104, 1996, 2528, 1780, -1057, -248, -204, 302, 254, 422, 289, 153, 314, 496, 997, 857
349058093, 9454, 10472, -8088, 1990, 2421, 2343, -851, -174, 121, 91, 254, 422, 289, 153, 314, 496, 997, 857
349074722, 9454, 10472, -8088, 1990, 2421, 2343, -851, -174, 121, 91, 283, 337, 287, 171, 344, 561, 1059, 948
349075521, 9454, 10472, -8088, 1990, 2421, 2343, -851, -174, 121, 91, 283, 337, 287, 171, 344, 561, 1059, 948
349081020, 9532, 10455, -8028, 1954, 2328, 2540, -849, -270, 247, -128, 283, 337, 287, 171, 344, 561, 1059, 948
349088657, 9532, 10455, -8028, 1954, 2328, 2540, -849, -270, 247, -128, 565, 412, 288, 199, 347, 566, 1113, 998
349089407, 9532, 10455, -8028, 1954, 2328, 2540, -849, -270, 247, -128, 565, 412, 288, 199, 347, 566, 1113, 998
349095622, 9610, 10428, -7985, 1890, 2180, 2257, -997, -511, 197, -205, 565, 412, 288, 199, 347, 566, 1113, 998
349111115, 9610, 10428, -7985, 1890, 2180, 2257, -997, -511, 197, -205, 569, 407, 298, 183, 347, 565, 1147, 1013
349111954, 9610, 10428, -7985, 1890, 2180, 2257, -997, -511, 197, -205, 569, 407, 298, 183, 347, 565, 1147, 1013
349118066, 9727, 10352, -7962, 1802, 2132, 2354, -919, -862, 173, -64, 569, 407, 298, 183, 347, 565, 1147, 1013
349134269, 9727, 10352, -7962, 1802, 2132, 2354, -919, -862, 173, -64, 600, 472, 426, 217, 321, 540, 1085, 1003
349135065, 9727, 10352, -7962, 1802, 2132, 2354, -919, -862, 173, -64, 600, 472, 426, 217, 321, 540, 1085, 1003
349136034, 9823, 10285, -7946, 1731, 2214, 2041, -903, -780, 146, -160, 600, 472, 426, 217, 321, 540, 1085, 1003
349148628, 9823, 10285, -7946, 1731, 2214, 2041, -903, -780, 146, -160, 681, 558, 525, 254, 355, 625, 1153, 983
349149405, 9823, 10285, -7946, 1731, 2214, 2041, -903, -780, 146, -160, 681, 558, 525, 254, 355, 625, 1153, 983
349155557, 9929, 10209, -7932, 1640, 2210, 2021, -936, -931, 128, -223, 681, 558, 525, 254, 355, 625, 1153, 983
349171064, 9929, 10209, -7932, 1640, 2210, 2021, -936, -931, 128, -223, 717, 556, 539, 268, 372, 575, 1082, 968
349171916, 9929, 10209, -7932, 1640, 2210, 2021, -936, -931, 128, -223, 717, 556, 539, 268, 372, 575, 1082, 968
349178045, 10048, 10128, -7911, 1517, 2117, 2139, -921, -1082, 101, -285, 717, 556, 539, 268, 372, 575, 1082, 968
349194293, 10048, 10128, -7911, 1517, 2117, 2139, -921, -1082, 101, -285, 528, 462, 544, 266, 392, 590, 1037, 938
349195193, 10048, 10128, -7911, 1517, 2117, 2139, -921, -1082, 101, -285, 528, 462, 544, 266, 392, 590, 1037, 938
349196078, 10159, 10056, -7880, 1414, 2216, 2163, -825, -943, 147, -316, 528, 462, 544, 266, 392, 590, 1037, 938
349208664, 10159, 10056, -7880, 1414, 2216, 2163, -825, -943, 147, -316, 555, 497, 566, 307, 414, 617, 1105, 1032
349209458, 10159, 10056, -7880, 1414, 2216, 2163, -825, -943, 147, -316, 555, 497, 566, 307, 414, 617, 1105, 1032
349215591, 10280, 9987, -7823, 1350, 2260, 1910, -657, -842, 337, -411, 555, 497, 566, 307, 414, 617, 1105, 1032
349231143, 10280, 9987, -7823, 1350, 2260, 1910, -657, -842, 337, -411, 517, 460, 600, 345, 417, 637, 1183, 1080
349231914, 10280, 9987, -7823, 1350, 2260, 1910, -657, -842, 337, -411, 517, 460, 600, 345, 417, 637, 1183, 1080
349238072, 10396, 9924, -7762, 1265, 2106, 1998, -730, -892, 334, -433, 517, 460, 600, 345, 417, 637, 1183, 1080
349254295, 10396, 9924, -7762, 1265, 2106, 1998, -730, -892, 334, -433, 480, 432, 676, 385, 382, 543, 1088, 1011
349255067, 10396, 9924, -7762, 1265, 2106, 1998, -730, -892, 334, -433, 480, 432, 676, 385, 382, 543, 1088, 1011
349256041, 10550, 9821, -7705, 1144, 2076, 1978, -699, -1285, 325, -477, 480, 432, 676, 385, 382, 543, 1088, 1011
349268611, 10550, 9821, -7705, 1144, 2076, 1978, -699, -1285, 325, -477, 404, 423, 671, 384, 326, 509, 1080, 965
349269389, 10550, 9821, -7705, 1144, 2076, 1978, -699, -1285, 325, -477, 404, 423, 671, 384, 326, 509, 1080, 965
349283081, 10724, 9692, -7648, 993, 2116, 2114, -658, -1528, 296, -507, 404, 423, 671, 384, 326, 509, 1080, 965
349291110, 10724, 9692, -7648, 993, 2116, 2114, -658, -1528, 296, -507, 374, 428, 677, 386, 295, 478, 1102, 901
349291955, 10724, 9692, -7648, 993, 2116, 2114, -658, -1528, 296, -507, 374, 428, 677, 386, 295, 478, 1102, 901
349298081, 10933, 9541, -7562, 821, 2062, 1955, -573, -1694, 362, -618, 374, 428, 677, 386, 295, 478, 1102, 901
349314238, 10933, 9541, -7562, 821, 2062, 1955, -573, -1694, 362, -618, 346, 538, 808, 421, 257, 410, 1032, 852
349315091, 10933, 9541, -7562, 821, 2062, 1955, -573, -1694, 362, -618, 346, 538, 808, 421, 257, 410, 1032, 852
349315990, 11159, 9358, -7479, 611, 1952, 1934, -663, -1984, 305, -668, 346, 538, 808, 421, 257, 410, 1032, 852
349328629, 11159, 9358, -7479, 611, 1952, 1934, -663, -1984, 305, -668, 461, 608, 800, 412, 279, 399, 989, 821
349329410, 11159, 9358, -7479, 611, 1952, 1934, -663, -1984, 305, -668, 461, 608, 800, 412, 279, 399, 989, 821
349335553, 11409, 9124, -7407, 367, 1930, 1823, -604, -2355, 229, -653, 461, 608, 800, 412, 279, 399, 989, 821
349351074, 11409, 9124, -7407, 367, 1930, 1823, -604, -2355, 229, -653, 445, 559, 676, 347, 276, 419, 986, 881
349351899, 11409, 9124, -7407, 367, 1930, 1823, -604, -2355, 229, -653, 445, 559, 676, 347, 276, 419, 986, 881
349358017, 11686, 8833, -7337, 105, 2008, 1666, -397, -2699, 228, -603, 445, 559, 676, 347, 276, 419, 986, 881
349374315, 11686, 8833, -7337, 105, 2008, 1666, -397, -2699, 228, -603, 448, 555, 661, 334, 270, 428, 992, 936
349375089, 11686, 8833, -7337, 105, 2008, 1666, -397, -2699, 228, -603, 448, 555, 661, 334, 270, 428, 992, 936
349376081, 11979, 8498, -7257, -189, 1885, 1675, -371, -3011, 228, -638, 448, 555, 661, 334, 270, 428, 992, 936
349396769, 11979, 8498, -7257, -189, 1885, 1675, -371, -3011, 228, -638, 466, 544, 634, 319, 292, 437, 932, 966
349397567, 11979, 8498, -7257, -189, 1885, 1675, -371, -3011, 228, -638, 466, 544, 634, 319, 292, 437, 932, 966
349398509, 12279, 8114, -7179, -518, 1821, 1634, -401, -3334, 144, -658, 466, 544, 634, 319, 292, 437, 932, 966
349411109, 12279, 8114, -7179, -518, 1821, 1634, -401, -3334, 144, -658, 499, 407, 417, 232, 284, 417, 847, 850
349411935, 12279, 8114, -7179, -518, 1821, 1634, -401, -3334, 144, -658, 499, 407, 417, 232, 284, 417, 847, 850
349418068, 12581, 7667, -7114, -872, 1977, 1365, -284, -3655, 26, -611, 499, 407, 417, 232, 284, 417, 847, 850
349434966, 12581, 7667, -7114, -872, 1977, 1365, -284, -3655, 26, -611, 433, 265, 301, 158, 259, 380, 816, 920
349435749, 12581, 7667, -7114, -872, 1977, 1365, -284, -3655, 26, -611, 433, 265, 301, 158, 259, 380, 816, 920
349436672, 12851, 7221, -7048, -1209, 1976, 894, -199, -3514, 0, -587, 433, 265, 301, 158, 259, 380, 816, 920
349448609, 12851, 7221, -7048, -1209, 1976, 894, -199, -3514, 0, -587, 379, 249, 303, 172, 264, 358, 782, 897
349449371, 12851, 7221, -7048, -1209, 1976, 894, -199, -3514, 0, -587, 379, 249, 303, 172, 264, 358, 782, 897
349455518, 13058, 6832, -7001, -1489, 1818, 551, -128, -2952, -71, -462, 379, 249, 303, 172, 264, 358, 782, 897
349471047, 13058, 6832, -7001, -1489, 1818, 551, -128, -2952, -71, -462, 376, 297, 378, 222, 294, 379, 850, 846
349471876, 13058, 6832, -7001, -1489, 1818, 551, -128, -2952, -71, -462, 376, 297, 378, 222, 294, 379, 850, 846
349478018, 13220, 6487, -6973, -1715, 1957, 523, -123, -2505, -100, -320, 376, 297, 378, 222, 294, 379, 850, 846
349494291, 13220, 6487, -6973, -1715, 1957, 523, -123, -2505, -100, -320, 352, 315, 441, 261, 274, 359, 851, 835
349495066, 13220, 6487, -6973, -1715, 1957, 523, -123, -2505, -100, -320, 352, 315, 441, 261, 274, 359, 851, 835
349496018, 13380, 6145, -6924, -1921, 2070, 570, -126, -2460, 55, -289, 352, 315, 441, 261, 274, 359, 851, 835
349507940, 13380, 6145, -6924, -1921, 2070, 570, -126, -2460, 55, -289, 306, 307, 451, 292, 292, 354, 858, 889
349516095, 13380, 6145, -6924, -1921, 2070, 570, -126, -2460, 55, -289, 306, 307, 451, 292, 292, 354, 858, 889
349517043, 13543, 5799, -6846, -2122, 1993, 543, 30, -2478, 192, -301, 306, 307, 451, 292, 292, 354, 858, 889
349531117, 13543, 5799, -6846, -2122, 1993, 543, 30, -2478, 192, -301, 266, 292, 408, 310, 323, 390, 862, 827
349531889, 13543, 5799, -6846, -2122, 1993, 543, 30, -2478, 192, -301, 266, 292, 408, 310, 323, 390, 862, 827
349538050, 13690, 5469, -6767, -2305, 1806, 324, 87, -2314, 199, -266, 266, 292, 408, 310, 323, 390, 862, 827
349554375, 13690, 5469, -6767, -2305, 1806, 324, 87, -2314, 199, -266, 255, 328, 414, 310, 304, 364, 790, 739
349555124, 13690, 5469, -6767, -2305, 1806, 324, 87, -2314, 199, -266, 255, 328, 414, 310, 304, 364, 790, 739
349556084, 13814, 5164, -6700, -2458, 1838, 141, 33, -2068, 187, -195, 255, 328, 414, 310, 304, 364, 790, 739
349567889, 13814, 5164, -6700, -2458, 1838, 141, 33, -2068, 187, -195, 259, 321, 369, 289, 293, 345, 722, 747
349576154, 13814, 5164, -6700, -2458, 1838, 141, 33, -2068, 187, -195, 259, 321, 369, 289, 293, 345, 722, 747
349577066, 13928, 4869, -6628, -2609, 1827, 320, 101, -2015, 194, -199, 259, 321, 369, 289, 293, 345, 722, 747
349591044, 13928, 4869, -6628, -2609, 1827, 320, 101, -2015, 194, -199, 261, 292, 283, 273, 312, 346, 743, 822
349591865, 13928, 4869, -6628, -2609, 1827, 320, 101, -2015, 194, -199, 261, 292, 283, 273, 312, 346, 743, 822
349598028, 14035, 4569, -6547, -2775, 1738, 283, 177, -2059, 192, -274, 261, 292, 283, 273, 312, 346, 743, 822
349614264, 14035, 4569, -6547, -2775, 1738, 283, 177, -2059, 192, -274, 292, 288, 257, 235, 283, 345, 788, 878
349615093, 14035, 4569, -6547, -2775, 1738, 283, 177, -2059, 192, -274, 292, 288, 257, 235, 283, 345, 788, 878
349616016, 14125, 4289, -6476, -2926, 1712, 156, 119, -1889, 157, -252, 292, 288, 257, 235, 283, 345, 788, 878
349636744, 14125, 4289, -6476, -2926, 1712, 156, 119, -1889, 157, -252, 326, 289, 243, 213, 252, 294, 758, 878
349637608, 14125, 4289, -6476, -2926, 1712, 156, 119, -1889, 157, -252, 326, 289, 243, 213, 252, 294, 758, 878
349638490, 14190, 4006, -6480, -3003, 1817, -53, 198, -1551, 215, -260, 326, 289, 243, 213, 252, 294, 758, 878
349651085, 14190, 4006, -6480, -3003, 1817, -53, 198, -1551, 215, -260, 345, 255, 219, 218, 251, 277, 738, 882
349651902, 14190, 4006, -6480, -3003, 1817, -53, 198, -1551, 215, -260, 345, 255, 219, 218, 251, 277, 738, 882
349658075, 14241, 3770, -6492, -3046, 1690, -105, 184, -1210, 219, -166, 345, 255, 219, 218, 251, 277, 738, 882
349674311, 14241, 3770, -6492, -3046, 1690, -105, 184, -1210, 219, -166, 421, 242, 179, 213, 265, 305, 754, 880
349675131, 14241, 3770, -6492, -3046, 1690, -105, 184, -1210, 219, -166, 421, 242, 179, 213, 265, 305, 754, 880
349676017, 14275, 3567, -6518, -3075, 1731, -70, 266, -969, 163, -149, 421, 242, 179, 213, 265, 305, 754, 880
349696780, 14275, 3567, -6518, -3075, 1731, -70, 266, -969, 163, -149, 440, 260, 175, 198, 242, 296, 681, 801
349697568, 14275, 3567, -6518, -3075, 1731, -70, 266, -969, 163, -149, 440, 260, 175, 198, 242, 296, 681, 801
349698520, 14299, 3379, -6561, -3083, 1685, -164, 220, -804, 100, -73, 440, 260, 175, 198, 242, 296, 681, 801
349711063, 14299, 3379, -6561, -3083, 1685, -164, 220, -804, 100, -73, 420, 262, 179, 207, 254, 255, 555, 728
349711918, 14299, 3379, -6561, -3083, 1685, -164, 220, -804, 100, -73, 420, 262, 179, 207, 254, 255, 555, 728
349718063, 14303, 3206, -6643, -3072, 1721, -198, 75, -655, -34, 7, 420, 262, 179, 207, 254, 255, 555, 728
349734319, 14303, 3206, -6643, -3072, 1721, -198, 75, -655, -34, 7, 419, 255, 179, 204, 242, 230, 456, 666
349735112, 14303, 3206, -6643, -3072, 1721, -198, 75, -655, -34, 7, 419, 255, 179, 204, 242, 230, 456, 666
349736065, 14289, 3046, -6756, -3051, 1806, -166, 16, -543, -158, 41, 419, 255, 179, 204, 242, 230, 456, 666
349756764, 14289, 3046, -6756, -3051, 1806, -166, 16, -543, -158, 41, 404, 238, 156, 191, 240, 229, 475, 673
349757567, 14289, 3046, -6756, -3051, 1806, -166, 16, -543, -158, 41, 404, 238, 156, 191, 240, 229, 475, 673
349758556, 14262, 2905, -6886, -3027, 1793, -190, 67, -396, -272, 27, 404, 238, 156, 191, 240, 229, 475, 673
349771095, 14262, 2905, -6886, -3027, 1793, -190, 67, -396, -272, 27, 347, 256, 229, 243, 284, 204, 402, 642
349771913, 14262, 2905, -6886, -3027, 1793, -190, 67, -396, -272, 27, 347, 256, 229, 243, 284, 204, 402, 642
349778040, 14218, 2801, -7042, -2972, 1695, -260, 3, -84, -393, 108, 347, 256, 229, 243, 284, 204, 402, 642
349794254, 14218, 2801, -7042, -2972, 1695, -260, 3, -84, -393, 108, 347, 240, 232, 262, 302, 215, 460, 675
349795025, 14218, 2801, -7042, -2972, 1695, -260, 3, -84, -393, 108, 347, 240, 232, 262, 302, 215, 460, 675
349795967, 14158, 2720, -7226, -2895, 1822, -325, -70, 117, -469, 123, 347, 240, 232, 262, 302, 215, 460, 675
349816764, 14158, 2720, -7226, -2895, 1822, -325, -70, 117, -469, 123, 312, 233, 225, 272, 310, 231, 484, 654
349817606, 14158, 2720, -7226, -2895, 1822, -325, -70, 117, -469, 123, 312, 233, 225, 272, 310, 231, 484, 654
349818516, 14088, 2650, -7411, -2832, 1939, -39, -92, 54, -472, 102, 312, 233, 225, 272, 310, 231, 484, 654
349831516, 14088, 2650, -7411, -2832, 1939, -39, -92, 54, -472, 102, 467, 375, 286, 305, 343, 268, 552, 728
349838589, 14088, 2650, -7411, -2832, 1939, -39, -92, 54, -472, 102, 467, 375, 286, 305, 343, 268, 552, 728
349839548, 14030, 2567, -7565, -2787, 1940, -16, 86, -56, -404, 50, 467, 375, 286, 305, 343, 268, 552, 728
349854281, 14030, 2567, -7565, -2787, 1940, -16, 86, -56, -404, 50, 519, 410, 307, 318, 354, 293, 581, 859
349855092, 14030, 2567, -7565, -2787, 1940, -16, 86, -56, -404, 50, 519, 410, 307, 318, 354, 293, 581, 859
349855991, 13992, 2475, -7689, -2723, 1742, -266, 132, -20, -294, 119, 519, 410, 307, 318, 354, 293, 581, 859
349876768, 13992, 2475, -7689, -2723, 1742, -266, 132, -20, -294, 119, 538, 390, 271, 306, 347, 328, 663, 883
349877678, 13992, 2475, -7689, -2723, 1742, -266, 132, -20, -294, 119, 538, 390, 271, 306, 347, 328, 663, 883
349878519, 13947, 2391, -7817, -2661, 1936, -160, 102, -15, -266, 84, 538, 390, 271, 306, 347, 328, 663, 883
349891062, 13947, 2391, -7817, -2661, 1936, -160, 102, -15, -266, 84, 543, 400, 278, 306, 348, 327, 643, 843
349891882, 13947, 2391, -7817, -2661, 1936, -160, 102, -15, -266, 84, 543, 400, 278, 306, 348, 327, 643, 843
349898043, 13913, 2304, -7922, -2609, 1877, -87, 128, -103, -176, 99, 543, 400, 278, 306, 348, 327, 643, 843
