Timestamp, Orientation x, Orientation y, Orientation z, Orientation w, Acceleration x, Acceleration y, Acceleration z, Rotation x, Rotation y, Rotation z, EMG 0, EMG 1, EMG 2, EMG 3, EMG 4, EMG 5, EMG 6, EMG 7
656885892, 6508, 7091, -12721, -3739, 3978, 806, -1733, -8, 151, -8, 0, 0, 0, 0, 0, 0, 0, 0
656886684, 6515, 7093, -12718, -3733, 4004, 787, -1737, 13, 48, 7, 0, 0, 0, 0, 0, 0, 0, 0
656900277, 6517, 7096, -12718, -3725, 4006, 831, -1744, 31, 33, 5, 0, 0, 0, 0, 0, 0, 0, 0
656915215, 6521, 7099, -12716, -3720, 4018, 838, -1760, 21, 37, -1, 0, 0, 0, 0, 0, 0, 0, 0
656937736, 6524, 7101, -12714, -3715, 4007, 824, -1767, 15, 32, -4, 0, 0, 0, 0, 0, 0, 0, 0
656953342, 6524, 7101, -12714, -3715, 4007, 824, -1767, 15, 32, -4, 63, 39, 31, 29, 73, 116, 98, 133
656954153, 6524, 7101, -12714, -3715, 4007, 824, -1767, 15, 32, -4, 63, 39, 31, 29, 73, 116, 98, 133
656960292, 6528, 7101, -12712, -3714, 3999, 809, -1752, -9, 23, 5, 63, 39, 31, 29, 73, 116, 98, 133
656976513, 6528, 7101, -12712, -3714, 3999, 809, -1752, -9, 23, 5, 64, 38, 31, 32, 72, 112, 67, 129
656977391, 6528, 7101, -12712, -3714, 3999, 809, -1752, -9, 23, 5, 64, 38, 31, 32, 72, 112, 67, 129
656978258, 6530, 7100, -12712, -3710, 4001, 807, -1762, 8, 19, 14, 64, 38, 31, 32, 72, 112, 67, 129
656999046, 6530, 7100, -12712, -3710, 4001, 807, -1762, 8, 19, 14, 71, 42, 33, 31, 66, 102, 64, 133
656999840, 6530, 7100, -12712, -3710, 4001, 807, -1762, 8, 19, 14, 71, 42, 33, 31, 66, 102, 64, 133
657000766, 6532, 7100, -12713, -3705, 4013, 820, -1750, 21, 20, 17, 71, 42, 33, 31, 66, 102, 64, 133
657013929, 6532, 7100, -12713, -3705, 4013, 820, -1750, 21, 20, 17, 70, 41, 33, 32, 72, 116, 66, 132
657014744, 6532, 7100, -12713, -3705, 4013, 820, -1750, 21, 20, 17, 70, 41, 33, 32, 72, 116, 66, 132
657020266, 6534, 7103, -12713, -3697, 4005, 815, -1776, 35, 31, 7, 70, 41, 33, 32, 72, 116, 66, 132
657036540, 6534, 7103, -12713, -3697, 4005, 815, -1776, 35, 31, 7, 60, 38, 31, 30, 65, 106, 59, 95
657037320, 6534, 7103, -12713, -3697, 4005, 815, -1776, 35, 31, 7, 60, 38, 31, 30, 65, 106, 59, 95
657038307, 6539, 7106, -12712, -3687, 4002, 787, -1758, 34, 50, 14, 60, 38, 31, 30, 65, 106, 59, 95
657059070, 6539, 7106, -12712, -3687, 4002, 787, -1758, 34, 50, 14, 55, 76, 68, 36, 65, 111, 57, 64
657059796, 6539, 7106, -12712, -3687, 4002, 787, -1758, 34, 50, 14, 55, 76, 68, 36, 65, 111, 57, 64
657060741, 6543, 7114, -12711, -3667, 4022, 789, -1775, 92, 76, 12, 55, 76, 68, 36, 65, 111, 57, 64
657073311, 6543, 7114, -12711, -3667, 4022, 789, -1775, 92, 76, 12, 58, 119, 123, 58, 66, 109, 46, 57
657074165, 6543, 7114, -12711, -3667, 4022, 789, -1775, 92, 76, 12, 58, 119, 123, 58, 66, 109, 46, 57
657080292, 6547, 7128, -12709, -3639, 4037, 803, -1826, 142, 106, -1, 58, 119, 123, 58, 66, 109, 46, 57
657096517, 6547, 7128, -12709, -3639, 4037, 803, -1826, 142, 106, -1, 49, 123, 138, 78, 68, 114, 52, 48
657097348, 6547, 7128, -12709, -3639, 4037, 803, -1826, 142, 106, -1, 49, 123, 138, 78, 68, 114, 52, 48
657098289, 6566, 7147, -12694, -3621, 4082, 906, -1850, 54, 186, -57, 49, 123, 138, 78, 68, 114, 52, 48
657118988, 6566, 7147, -12694, -3621, 4082, 906, -1850, 54, 186, -57, 54, 133, 163, 106, 69, 124, 54, 48
657119840, 6566, 7147, -12694, -3621, 4082, 906, -1850, 54, 186, -57, 54, 133, 163, 106, 69, 124, 54, 48
657120741, 6627, 7173, -12643, -3634, 4210, 1030, -1898, -210, 376, -188, 54, 133, 163, 106, 69, 124, 54, 48
657133311, 6627, 7173, -12643, -3634, 4210, 1030, -1898, -210, 376, -188, 68, 201, 310, 208, 93, 149, 61, 44
657134128, 6627, 7173, -12643, -3634, 4210, 1030, -1898, -210, 376, -188, 68, 201, 310, 208, 93, 149, 61, 44
657140342, 6761, 7203, -12534, -3706, 4357, 1202, -1897, -706, 687, -393, 68, 201, 310, 208, 93, 149, 61, 44
657156555, 6761, 7203, -12534, -3706, 4357, 1202, -1897, -706, 687, -393, 86, 265, 482, 322, 125, 162, 63, 50
657157337, 6761, 7203, -12534, -3706, 4357, 1202, -1897, -706, 687, -393, 86, 265, 482, 322, 125, 162, 63, 50
657158291, 6976, 7260, -12351, -3810, 4539, 1331, -1896, -1076, 1162, -663, 86, 265, 482, 322, 125, 162, 63, 50
657179013, 6976, 7260, -12351, -3810, 4539, 1331, -1896, -1076, 1162, -663, 106, 370, 529, 362, 179, 186, 80, 74
657179840, 6976, 7260, -12351, -3810, 4539, 1331, -1896, -1076, 1162, -663, 106, 370, 529, 362, 179, 186, 80, 74
657180766, 7274, 7366, -12065, -3964, 4558, 1251, -1799, -1509, 1692, -1139, 106, 370, 529, 362, 179, 186, 80, 74
657193351, 7274, 7366, -12065, -3964, 4558, 1251, -1799, -1509, 1692, -1139, 114, 414, 558, 373, 181, 194, 78, 76
657194139, 7274, 7366, -12065, -3964, 4558, 1251, -1799, -1509, 1692, -1139, 114, 414, 558, 373, 181, 194, 78, 76
657200319, 7603, 7530, -11707, -4108, 4547, 1173, -1358, -1499, 2108, -1485, 114, 414, 558, 373, 181, 194, 78, 76
657216489, 7603, 7530, -11707, -4108, 4547, 1173, -1358, -1499, 2108, -1485, 137, 458, 836, 668, 224, 206, 86, 111
657217355, 7603, 7530, -11707, -4108, 4547, 1173, -1358, -1499, 2108, -1485, 137, 458, 836, 668, 224, 206, 86, 111
657218263, 7932, 7774, -11310, -4144, 4501, 1252, -967, -913, 2595, -1637, 137, 458, 836, 668, 224, 206, 86, 111
657239028, 7932, 7774, -11310, -4144, 4501, 1252, -967, -913, 2595, -1637, 138, 448, 859, 726, 223, 196, 82, 114
657239863, 7932, 7774, -11310, -4144, 4501, 1252, -967, -913, 2595, -1637, 138, 448, 859, 726, 223, 196, 82, 114
657240765, 8246, 8130, -10854, -4066, 4338, 1264, -730, -216, 3160, -1932, 138, 448, 859, 726, 223, 196, 82, 114
657253317, 8246, 8130, -10854, -4066, 4338, 1264, -730, -216, 3160, -1932, 137, 453, 897, 808, 224, 195, 87, 119
657254113, 8246, 8130, -10854, -4066, 4338, 1264, -730, -216, 3160, -1932, 137, 453, 897, 808, 224, 195, 87, 119
657260307, 8507, 8605, -10332, -3907, 4067, 1434, -608, 478, 3545, -2399, 137, 453, 897, 808, 224, 195, 87, 119
657276511, 8507, 8605, -10332, -3907, 4067, 1434, -608, 478, 3545, -2399, 132, 393, 913, 821, 209, 188, 84, 115
657277337, 8507, 8605, -10332, -3907, 4067, 1434, -608, 478, 3545, -2399, 132, 393, 913, 821, 209, 188, 84, 115
657278241, 8734, 9121, -9777, -3653, 3832, 1725, -525, 987, 3710, -2771, 132, 393, 913, 821, 209, 188, 84, 115
657299038, 8734, 9121, -9777, -3653, 3832, 1725, -525, 987, 3710, -2771, 131, 364, 942, 874, 231, 223, 96, 117
657299839, 8734, 9121, -9777, -3653, 3832, 1725, -525, 987, 3710, -2771, 131, 364, 942, 874, 231, 223, 96, 117
657300831, 8924, 9661, -9152, -3421, 3640, 1972, -489, 1023, 3765, -3165, 131, 364, 942, 874, 231, 223, 96, 117
657313290, 8924, 9661, -9152, -3421, 3640, 1972, -489, 1023, 3765, -3165, 126, 323, 748, 769, 252, 278, 98, 89
657314112, 8924, 9661, -9152, -3421, 3640, 1972, -489, 1023, 3765, -3165, 126, 323, 748, 769, 252, 278, 98, 89
657320266, 9114, 10188, -8435, -3228, 3380, 2216, -342, 779, 3920, -3525, 126, 323, 748, 769, 252, 278, 98, 89
657336525, 9114, 10188, -8435, -3228, 3380, 2216, -342, 779, 3920, -3525, 155, 343, 763, 764, 303, 296, 106, 104
657337323, 9114, 10188, -8435, -3228, 3380, 2216, -342, 779, 3920, -3525, 155, 343, 763, 764, 303, 296, 106, 104
657338294, 9288, 10714, -7624, -3039, 3106, 2245, -335, 711, 4161, -3862, 155, 343, 763, 764, 303, 296, 106, 104
657366523, 9288, 10714, -7624, -3039, 3106, 2245, -335, 711, 4161, -3862, 156, 301, 666, 694, 313, 292, 110, 115
657367357, 9288, 10714, -7624, -3039, 3106, 2245, -335, 711, 4161, -3862, 156, 301, 666, 694, 313, 292, 110, 115
657368267, 9421, 11222, -6753, -2854, 2764, 2108, -501, 703, 4234, -4077, 156, 301, 666, 694, 313, 292, 110, 115
657374129, 9421, 11222, -6753, -2854, 2764, 2108, -501, 703, 4234, -4077, 166, 267, 631, 689, 329, 302, 112, 119
657374888, 9421, 11222, -6753, -2854, 2764, 2108, -501, 703, 4234, -4077, 166, 267, 631, 689, 329, 302, 112, 119
657375743, 9421, 11222, -6753, -2854, 2764, 2108, -501, 703, 4234, -4077, 166, 267, 631, 689, 329, 302, 112, 119
657382204, 9421, 11222, -6753, -2854, 2764, 2108, -501, 703, 4234, -4077, 166, 267, 631, 689, 329, 302, 112, 119
657383032, 9421, 11222, -6753, -2854, 2764, 2108, -501, 703, 4234, -4077, 166, 267, 631, 689, 329, 302, 112, 119
657383829, 9421, 11222, -6753, -2854, 2764, 2108, -501, 703, 4234, -4077, 166, 267, 631, 689, 329, 302, 112, 119
657384763, 9515, 11691, -5832, -2678, 2501, 2013, -397, 663, 4238, -4235, 166, 267, 631, 689, 329, 302, 112, 119
657396527, 9515, 11691, -5832, -2678, 2501, 2013, -397, 663, 4238, -4235, 172, 263, 583, 621, 334, 306, 112, 121
657397317, 9515, 11691, -5832, -2678, 2501, 2013, -397, 663, 4238, -4235, 172, 263, 583, 621, 334, 306, 112, 121
657398229, 9564, 12123, -4881, -2483, 2234, 1928, -345, 741, 4295, -4245, 172, 263, 583, 621, 334, 306, 112, 121
657418998, 9564, 12123, -4881, -2483, 2234, 1928, -345, 741, 4295, -4245, 168, 260, 548, 533, 428, 366, 129, 124
657419802, 9564, 12123, -4881, -2483, 2234, 1928, -345, 741, 4295, -4245, 168, 260, 548, 533, 428, 366, 129, 124
657420743, 9548, 12527, -3902, -2260, 1782, 1775, -335, 936, 4387, -4238, 168, 260, 548, 533, 428, 366, 129, 124
657433342, 9548, 12527, -3902, -2260, 1782, 1775, -335, 936, 4387, -4238, 155, 377, 464, 444, 434, 367, 128, 115
657434180, 9548, 12527, -3902, -2260, 1782, 1775, -335, 936, 4387, -4238, 155, 377, 464, 444, 434, 367, 128, 115
657463435, 9440, 12913, -2910, -2026, 1487, 1805, -366, 1289, 4336, -4282, 155, 377, 464, 444, 434, 367, 128, 115
657464239, 9260, 13259, -1917, -1789, 1576, 1717, -434, 1467, 4243, -4305, 155, 377, 464, 444, 434, 367, 128, 115
657470789, 9260, 13259, -1917, -1789, 1576, 1717, -434, 1467, 4243, -4305, 154, 386, 430, 346, 429, 369, 123, 106
657471692, 9260, 13259, -1917, -1789, 1576, 1717, -434, 1467, 4243, -4305, 154, 386, 430, 346, 429, 369, 123, 106
657477782, 9063, 13532, -904, -1532, 1579, 1724, -555, 1314, 4333, -4303, 154, 386, 430, 346, 429, 369, 123, 106
657485835, 9063, 13532, -904, -1532, 1579, 1724, -555, 1314, 4333, -4303, 175, 406, 421, 297, 429, 359, 119, 116
657486692, 9063, 13532, -904, -1532, 1579, 1724, -555, 1314, 4333, -4303, 175, 406, 421, 297, 429, 359, 119, 116
657493428, 9063, 13532, -904, -1532, 1579, 1724, -555, 1314, 4333, -4303, 215, 448, 476, 326, 509, 423, 139, 130
657494254, 9063, 13532, -904, -1532, 1579, 1724, -555, 1314, 4333, -4303, 215, 448, 476, 326, 509, 423, 139, 130
657501514, 9063, 13532, -904, -1532, 1579, 1724, -555, 1314, 4333, -4303, 215, 448, 476, 326, 509, 423, 139, 130
657502374, 9063, 13532, -904, -1532, 1579, 1724, -555, 1314, 4333, -4303, 215, 448, 476, 326, 509, 423, 139, 130
657503314, 8849, 13729, 92, -1274, 1179, 1765, -813, 1142, 4245, -4166, 215, 448, 476, 326, 509, 423, 139, 130
657516528, 8849, 13729, 92, -1274, 1179, 1765, -813, 1142, 4245, -4166, 216, 458, 471, 299, 453, 351, 118, 129
657517345, 8849, 13729, 92, -1274, 1179, 1765, -813, 1142, 4245, -4166, 216, 458, 471, 299, 453, 351, 118, 129
657518306, 8618, 13855, 1085, -996, 1077, 1515, -964, 990, 4291, -4081, 216, 458, 471, 299, 453, 351, 118, 129
657539021, 8618, 13855, 1085, -996, 1077, 1515, -964, 990, 4291, -4081, 236, 426, 507, 305, 441, 345, 122, 145
657539836, 8618, 13855, 1085, -996, 1077, 1515, -964, 990, 4291, -4081, 236, 426, 507, 305, 441, 345, 122, 145
657540764, 8359, 13922, 2047, -727, 1072, 1285, -1038, 951, 4140, -3992, 236, 426, 507, 305, 441, 345, 122, 145
657553329, 8359, 13922, 2047, -727, 1072, 1285, -1038, 951, 4140, -3992, 249, 460, 543, 350, 494, 357, 126, 151
657554166, 8359, 13922, 2047, -727, 1072, 1285, -1038, 951, 4140, -3992, 249, 460, 543, 350, 494, 357, 126, 151
657567791, 8074, 13939, 2954, -448, 1009, 1232, -1160, 927, 4025, -3732, 249, 460, 543, 350, 494, 357, 126, 151
657576516, 8074, 13939, 2954, -448, 1009, 1232, -1160, 927, 4025, -3732, 232, 448, 540, 357, 489, 353, 124, 139
657577288, 8074, 13939, 2954, -448, 1009, 1232, -1160, 927, 4025, -3732, 232, 448, 540, 357, 489, 353, 124, 139
657578240, 7793, 13889, 3839, -156, 942, 1219, -1306, 710, 4005, -3646, 232, 448, 540, 357, 489, 353, 124, 139
657599041, 7793, 13889, 3839, -156, 942, 1219, -1306, 710, 4005, -3646, 228, 404, 486, 367, 492, 352, 117, 144
657599840, 7793, 13889, 3839, -156, 942, 1219, -1306, 710, 4005, -3646, 228, 404, 486, 367, 492, 352, 117, 144
657600806, 7522, 13773, 4703, 169, 1120, 1183, -1426, 435, 4061, -3562, 228, 404, 486, 367, 492, 352, 117, 144
657612687, 7522, 13773, 4703, 169, 1120, 1183, -1426, 435, 4061, -3562, 261, 395, 470, 349, 500, 352, 132, 387
657620844, 7522, 13773, 4703, 169, 1120, 1183, -1426, 435, 4061, -3562, 261, 395, 470, 349, 500, 352, 132, 387
657621808, 7243, 13588, 5570, 533, 1206, 866, -1688, 188, 4259, -3578, 261, 395, 470, 349, 500, 352, 132, 387
657636511, 7243, 13588, 5570, 533, 1206, 866, -1688, 188, 4259, -3578, 271, 297, 377, 350, 551, 362, 154, 698
657637311, 7243, 13588, 5570, 533, 1206, 866, -1688, 188, 4259, -3578, 271, 297, 377, 350, 551, 362, 154, 698
657638237, 6953, 13351, 6396, 956, 930, 604, -2005, -55, 4467, -3296, 271, 297, 377, 350, 551, 362, 154, 698
657658990, 6953, 13351, 6396, 956, 930, 604, -2005, -55, 4467, -3296, 272, 207, 265, 303, 519, 386, 172, 841
657659783, 6953, 13351, 6396, 956, 930, 604, -2005, -55, 4467, -3296, 272, 207, 265, 303, 519, 386, 172, 841
657660722, 6617, 13102, 7142, 1401, 829, 517, -2256, 31, 4488, -2871, 272, 207, 265, 303, 519, 386, 172, 841
657681513, 6617, 13102, 7142, 1401, 829, 517, -2256, 31, 4488, -2871, 272, 190, 202, 279, 552, 498, 211, 1038
657682336, 6617, 13102, 7142, 1401, 829, 517, -2256, 31, 4488, -2871, 272, 190, 202, 279, 552, 498, 211, 1038
657683268, 6288, 12864, 7756, 1795, 659, 522, -2378, 81, 3958, -2348, 272, 190, 202, 279, 552, 498, 211, 1038
657695766, 6288, 12864, 7756, 1795, 659, 522, -2378, 81, 3958, -2348, 270, 193, 165, 228, 491, 482, 215, 1065
657696687, 6288, 12864, 7756, 1795, 659, 522, -2378, 81, 3958, -2348, 270, 193, 165, 228, 491, 482, 215, 1065
657702792, 6025, 12670, 8185, 2143, 541, 560, -2512, -107, 3164, -1554, 270, 193, 165, 228, 491, 482, 215, 1065
657719001, 6025, 12670, 8185, 2143, 541, 560, -2512, -107, 3164, -1554, 259, 198, 164, 217, 461, 492, 217, 1019
657719789, 6025, 12670, 8185, 2143, 541, 560, -2512, -107, 3164, -1554, 259, 198, 164, 217, 461, 492, 217, 1019
657720782, 5853, 12562, 8400, 2403, 653, 672, -2697, -244, 2015, -640, 259, 198, 164, 217, 461, 492, 217, 1019
657741532, 5853, 12562, 8400, 2403, 653, 672, -2697, -244, 2015, -640, 233, 212, 171, 171, 417, 489, 204, 841
657742322, 5853, 12562, 8400, 2403, 653, 672, -2697, -244, 2015, -640, 233, 212, 171, 171, 417, 489, 204, 841
657743278, 5625, 12598, 8470, 2514, 549, 547, -2994, -129, 823, -27, 233, 212, 171, 171, 417, 489, 204, 841
657755813, 5625, 12598, 8470, 2514, 549, 547, -2994, -129, 823, -27, 228, 227, 171, 172, 404, 483, 191, 724
657756692, 5625, 12598, 8470, 2514, 549, 547, -2994, -129, 823, -27, 228, 227, 171, 172, 404, 483, 191, 724
657762740, 5470, 12703, 8413, 2516, 389, 652, -2978, -38, -78, 502, 228, 227, 171, 172, 404, 483, 191, 724
657779012, 5470, 12703, 8413, 2516, 389, 652, -2978, -38, -78, 502, 233, 258, 217, 179, 348, 367, 157, 495
657779814, 5470, 12703, 8413, 2516, 389, 652, -2978, -38, -78, 502, 233, 258, 217, 179, 348, 367, 157, 495
657780769, 5366, 12829, 8299, 2477, 559, 657, -2829, -69, -575, 628, 233, 258, 217, 179, 348, 367, 157, 495
657801439, 5366, 12829, 8299, 2477, 559, 657, -2829, -69, -575, 628, 245, 267, 223, 170, 336, 309, 171, 572
657808323, 5366, 12829, 8299, 2477, 559, 657, -2829, -69, -575, 628, 245, 267, 223, 170, 336, 309, 171, 572
657809249, 5289, 12939, 8190, 2438, 719, 543, -2744, -210, -680, 487, 245, 267, 223, 170, 336, 309, 171, 572
657817901, 5289, 12939, 8190, 2438, 719, 543, -2744, -210, -680, 487, 224, 247, 216, 166, 388, 406, 175, 599
657818757, 5289, 12939, 8190, 2438, 719, 543, -2744, -210, -680, 487, 224, 247, 216, 166, 388, 406, 175, 599
657819530, 5289, 12939, 8190, 2438, 719, 543, -2744, -210, -680, 487, 224, 247, 216, 166, 388, 406, 175, 599
657820367, 5289, 12939, 8190, 2438, 719, 543, -2744, -210, -680, 487, 224, 247, 216, 166, 388, 406, 175, 599
657825289, 5289, 12939, 8190, 2438, 719, 543, -2744, -210, -680, 487, 224, 247, 216, 166, 388, 406, 175, 599
657826154, 5289, 12939, 8190, 2438, 719, 543, -2744, -210, -680, 487, 224, 247, 216, 166, 388, 406, 175, 599
657826914, 5289, 12939, 8190, 2438, 719, 543, -2744, -210, -680, 487, 224, 247, 216, 166, 388, 406, 175, 599
657827767, 5289, 12939, 8190, 2438, 719, 543, -2744, -210, -680, 487, 224, 247, 216, 166, 388, 406, 175, 599
657830292, 5206, 13025, 8114, 2410, 636, 595, -2787, -215, -497, 336, 224, 247, 216, 166, 388, 406, 175, 599
657846504, 5206, 13025, 8114, 2410, 636, 595, -2787, -215, -497, 336, 221, 230, 209, 162, 349, 395, 184, 734
657847290, 5206, 13025, 8114, 2410, 636, 595, -2787, -215, -497, 336, 221, 230, 209, 162, 349, 395, 184, 734
657848263, 5104, 13094, 8080, 2370, 321, 712, -2801, -36, -266, 214, 221, 230, 209, 162, 349, 395, 184, 734
657861492, 5104, 13094, 8080, 2370, 321, 712, -2801, -36, -266, 214, 236, 218, 211, 150, 342, 368, 190, 824
657862291, 5104, 13094, 8080, 2370, 321, 712, -2801, -36, -266, 214, 236, 218, 211, 150, 342, 368, 190, 824
657863257, 4986, 13149, 8077, 2324, 74, 769, -2840, 92, -78, 119, 236, 218, 211, 150, 342, 368, 190, 824
657883990, 4986, 13149, 8077, 2324, 74, 769, -2840, 92, -78, 119, 226, 169, 161, 131, 337, 382, 219, 950
657884840, 4986, 13149, 8077, 2324, 74, 769, -2840, 92, -78, 119, 226, 169, 161, 131, 337, 382, 219, 950
657885740, 4857, 13189, 8102, 2285, 25, 688, -2895, 84, 68, -4, 226, 169, 161, 131, 337, 382, 219, 950
657898262, 4857, 13189, 8102, 2285, 25, 688, -2895, 84, 68, -4, 198, 127, 123, 114, 325, 377, 215, 1048
657899128, 4857, 13189, 8102, 2285, 25, 688, -2895, 84, 68, -4, 198, 127, 123, 114, 325, 377, 215, 1048
657905254, 4730, 13208, 8155, 2255, 56, 617, -2951, 11, 160, -173, 198, 127, 123, 114, 325, 377, 215, 1048
657921522, 4609, 13225, 8207, 2214, 238, 610, -3031, 7, 11, -265, 198, 127, 123, 114, 325, 377, 215, 1048
657922286, 4609, 13225, 8207, 2214, 238, 610, -3031, 7, 11, -265, 215, 118, 111, 116, 257, 272, 216, 1072
657923092, 4609, 13225, 8207, 2214, 238, 610, -3031, 7, 11, -265, 215, 118, 111, 116, 257, 272, 216, 1072
657942655, 4514, 13253, 8232, 2148, 378, 617, -2960, 7, -291, -211, 215, 118, 111, 116, 257, 272, 216, 1072
657950815, 4514, 13253, 8232, 2148, 378, 617, -2960, 7, -291, -211, 212, 107, 98, 139, 345, 402, 255, 1128
657951692, 4514, 13253, 8232, 2148, 378, 617, -2960, 7, -291, -211, 212, 107, 98, 139, 345, 402, 255, 1128
657965192, 4442, 13305, 8212, 2054, 485, 647, -2883, 45, -623, -39, 212, 107, 98, 139, 345, 402, 255, 1128
657973316, 4442, 13305, 8212, 2054, 485, 647, -2883, 45, -623, -39, 220, 113, 92, 154, 379, 503, 302, 1227
657974114, 4442, 13305, 8212, 2054, 485, 647, -2883, 45, -623, -39, 220, 113, 92, 154, 379, 503, 302, 1227
657982268, 4406, 13399, 8100, 1961, 559, 762, -2814, -27, -929, 450, 220, 113, 92, 154, 379, 503, 302, 1227
657983065, 4406, 13399, 8100, 1961, 559, 762, -2814, -27, -929, 450, 226, 114, 92, 157, 390, 518, 298, 1160
657983903, 4406, 13399, 8100, 1961, 559, 762, -2814, -27, -929, 450, 226, 114, 92, 157, 390, 518, 298, 1160
657984690, 4406, 13399, 8100, 1961, 559, 762, -2814, -27, -929, 450, 226, 114, 92, 157, 390, 518, 298, 1160
657989001, 4406, 13399, 8100, 1961, 559, 762, -2814, -27, -929, 450, 226, 114, 92, 157, 390, 518, 298, 1160
657989831, 4406, 13399, 8100, 1961, 559, 762, -2814, -27, -929, 450, 226, 114, 92, 157, 390, 518, 298, 1160
657990668, 4406, 13399, 8100, 1961, 559, 762, -2814, -27, -929, 450, 226, 114, 92, 157, 390, 518, 298, 1160
657995345, 4405, 13557, 7859, 1853, 437, 702, -2667, -108, -1273, 1208, 226, 114, 92, 157, 390, 518, 298, 1160
658003292, 4405, 13557, 7859, 1853, 437, 702, -2667, -108, -1273, 1208, 208, 103, 109, 175, 456, 566, 297, 1050
658004087, 4405, 13557, 7859, 1853, 437, 702, -2667, -108, -1273, 1208, 208, 103, 109, 175, 456, 566, 297, 1050
658017703, 4542, 13741, 7472, 1771, 204, 675, -2524, -499, -1494, 2054, 208, 103, 109, 175, 456, 566, 297, 1050
658025829, 4542, 13741, 7472, 1771, 204, 675, -2524, -499, -1494, 2054, 196, 107, 123, 187, 448, 548, 289, 1045
658026706, 4542, 13741, 7472, 1771, 204, 675, -2524, -499, -1494, 2054, 196, 107, 123, 187, 448, 548, 289, 1045
658041562, 4740, 13970, 6913, 1730, -33, 771, -2481, -922, -1726, 3021, 196, 107, 123, 187, 448, 548, 289, 1045
658042352, 4740, 13970, 6913, 1730, -33, 771, -2481, -922, -1726, 3021, 196, 139, 165, 197, 378, 470, 249, 960
658043194, 4740, 13970, 6913, 1730, -33, 771, -2481, -922, -1726, 3021, 196, 139, 165, 197, 378, 470, 249, 960
658062690, 4952, 14245, 6166, 1716, -35, 684, -2262, -1088, -1959, 4067, 196, 139, 165, 197, 378, 470, 249, 960
658070787, 4952, 14245, 6166, 1716, -35, 684, -2262, -1088, -1959, 4067, 155, 137, 174, 220, 389, 423, 181, 722
658071664, 4952, 14245, 6166, 1716, -35, 684, -2262, -1088, -1959, 4067, 155, 137, 174, 220, 389, 423, 181, 722
658085178, 5184, 14518, 5266, 1739, 124, 763, -2229, -1352, -2089, 4849, 155, 137, 174, 220, 389, 423, 181, 722
658093266, 5184, 14518, 5266, 1739, 124, 763, -2229, -1352, -2089, 4849, 144, 136, 180, 224, 390, 429, 162, 636
658094079, 5184, 14518, 5266, 1739, 124, 763, -2229, -1352, -2089, 4849, 144, 136, 180, 224, 390, 429, 162, 636
658115140, 5377, 14767, 4248, 1841, 291, 769, -1998, -1401, -1820, 5552, 144, 136, 180, 224, 390, 429, 162, 636
658123320, 5377, 14767, 4248, 1841, 291, 769, -1998, -1401, -1820, 5552, 145, 140, 180, 216, 368, 416, 157, 647
658124114, 5377, 14767, 4248, 1841, 291, 769, -1998, -1401, -1820, 5552, 145, 140, 180, 216, 368, 416, 157, 647
658137703, 5489, 14971, 3172, 2020, 349, 967, -1804, -1193, -1387, 5970, 145, 140, 180, 216, 368, 416, 157, 647
658146546, 5506, 15120, 2060, 2287, 648, 1019, -1771, -919, -872, 6319, 145, 140, 180, 216, 368, 416, 157, 647
658147333, 5506, 15120, 2060, 2287, 648, 1019, -1771, -919, -872, 6319, 126, 189, 289, 315, 369, 419, 164, 625
658148163, 5506, 15120, 2060, 2287, 648, 1019, -1771, -919, -872, 6319, 126, 189, 289, 315, 369, 419, 164, 625
658167668, 5450, 15196, 935, 2632, 1094, 1087, -1800, -738, -402, 6518, 126, 189, 289, 315, 369, 419, 164, 625
658175786, 5450, 15196, 935, 2632, 1094, 1087, -1800, -738, -402, 6518, 118, 194, 295, 336, 407, 468, 170, 658
658176663, 5450, 15196, 935, 2632, 1094, 1087, -1800, -738, -402, 6518, 118, 194, 295, 336, 407, 468, 170, 658
658190206, 5314, 15203, -149, 3005, 1418, 1332, -1611, -373, -110, 6406, 118, 194, 295, 336, 407, 468, 170, 658
658198264, 5314, 15203, -149, 3005, 1418, 1332, -1611, -373, -110, 6406, 126, 189, 291, 318, 382, 509, 179, 705
658199091, 5314, 15203, -149, 3005, 1418, 1332, -1611, -373, -110, 6406, 126, 189, 291, 318, 382, 509, 179, 705
658220841, 5167, 15124, -1169, 3409, 1680, 1392, -1633, -390, 252, 6154, 126, 189, 291, 318, 382, 509, 179, 705
658221664, 5021, 14963, -2133, 3844, 1816, 1405, -1520, -445, 611, 5966, 126, 189, 291, 318, 382, 509, 179, 705
658228314, 5021, 14963, -2133, 3844, 1816, 1405, -1520, -445, 611, 5966, 177, 200, 300, 331, 384, 500, 179, 761
658229135, 5021, 14963, -2133, 3844, 1816, 1405, -1520, -445, 611, 5966, 177, 200, 300, 331, 384, 500, 179, 761
658237889, 5021, 14963, -2133, 3844, 1816, 1405, -1520, -445, 611, 5966, 205, 221, 307, 336, 348, 494, 187, 829
658238728, 5021, 14963, -2133, 3844, 1816, 1405, -1520, -445, 611, 5966, 205, 221, 307, 336, 348, 494, 187, 829
658239521, 5021, 14963, -2133, 3844, 1816, 1405, -1520, -445, 611, 5966, 205, 221, 307, 336, 348, 494, 187, 829
658240366, 5021, 14963, -2133, 3844, 1816, 1405, -1520, -445, 611, 5966, 205, 221, 307, 336, 348, 494, 187, 829
658245334, 5021, 14963, -2133, 3844, 1816, 1405, -1520, -445, 611, 5966, 205, 221, 307, 336, 348, 494, 187, 829
658246091, 5021, 14963, -2133, 3844, 1816, 1405, -1520, -445, 611, 5966, 205, 221, 307, 336, 348, 494, 187, 829
658246943, 5021, 14963, -2133, 3844, 1816, 1405, -1520, -445, 611, 5966, 205, 221, 307, 336, 348, 494, 187, 829
658247713, 5021, 14963, -2133, 3844, 1816, 1405, -1520, -445, 611, 5966, 205, 221, 307, 336, 348, 494, 187, 829
658252816, 5021, 14963, -2133, 3844, 1816, 1405, -1520, -445, 611, 5966, 205, 221, 307, 336, 348, 494, 187, 829
658253735, 5021, 14963, -2133, 3844, 1816, 1405, -1520, -445, 611, 5966, 222, 182, 206, 234, 350, 504, 196, 859
658254557, 5021, 14963, -2133, 3844, 1816, 1405, -1520, -445, 611, 5966, 222, 182, 206, 234, 350, 504, 196, 859
658255345, 5021, 14963, -2133, 3844, 1816, 1405, -1520, -445, 611, 5966, 222, 182, 206, 234, 350, 504, 196, 859
658260343, 5021, 14963, -2133, 3844, 1816, 1405, -1520, -445, 611, 5966, 222, 182, 206, 234, 350, 504, 196, 859
658261164, 5021, 14963, -2133, 3844, 1816, 1405, -1520, -445, 611, 5966, 222, 182, 206, 234, 350, 504, 196, 859
658261999, 5021, 14963, -2133, 3844, 1816, 1405, -1520, -445, 611, 5966, 222, 182, 206, 234, 350, 504, 196, 859
658262791, 5021, 14963, -2133, 3844, 1816, 1405, -1520, -445, 611, 5966, 222, 182, 206, 234, 350, 504, 196, 859
658267739, 5021, 14963, -2133, 3844, 1816, 1405, -1520, -445, 611, 5966, 222, 182, 206, 234, 350, 504, 196, 859
658268568, 5021, 14963, -2133, 3844, 1816, 1405, -1520, -445, 611, 5966, 222, 182, 206, 234, 350, 504, 196, 859
658269404, 5021, 14963, -2133, 3844, 1816, 1405, -1520, -445, 611, 5966, 222, 182, 206, 234, 350, 504, 196, 859
658270189, 5021, 14963, -2133, 3844, 1816, 1405, -1520, -445, 611, 5966, 222, 182, 206, 234, 350, 504, 196, 859
658275341, 5021, 14963, -2133, 3844, 1816, 1405, -1520, -445, 611, 5966, 222, 182, 206, 234, 350, 504, 196, 859
658276242, 4896, 14728, -3067, 4259, 1830, 1317, -1572, -658, 695, 5823, 222, 182, 206, 234, 350, 504, 196, 859
658277104, 4896, 14728, -3067, 4259, 1830, 1317, -1572, -658, 695, 5823, 245, 173, 198, 187, 311, 489, 223, 862
658277888, 4896, 14728, -3067, 4259, 1830, 1317, -1572, -658, 695, 5823, 245, 173, 198, 187, 311, 489, 223, 862
658282879, 4896, 14728, -3067, 4259, 1830, 1317, -1572, -658, 695, 5823, 245, 173, 198, 187, 311, 489, 223, 862
658283664, 4896, 14728, -3067, 4259, 1830, 1317, -1572, -658, 695, 5823, 245, 173, 198, 187, 311, 489, 223, 862
658284491, 4896, 14728, -3067, 4259, 1830, 1317, -1572, -658, 695, 5823, 245, 173, 198, 187, 311, 489, 223, 862
658285313, 4896, 14728, -3067, 4259, 1830, 1317, -1572, -658, 695, 5823, 245, 173, 198, 187, 311, 489, 223, 862
658290265, 4896, 14728, -3067, 4259, 1830, 1317, -1572, -658, 695, 5823, 245, 173, 198, 187, 311, 489, 223, 862
658291129, 4896, 14728, -3067, 4259, 1830, 1317, -1572, -658, 695, 5823, 245, 173, 198, 187, 311, 489, 223, 862
658291916, 4896, 14728, -3067, 4259, 1830, 1317, -1572, -658, 695, 5823, 245, 173, 198, 187, 311, 489, 223, 862
658292716, 4896, 14728, -3067, 4259, 1830, 1317, -1572, -658, 695, 5823, 245, 173, 198, 187, 311, 489, 223, 862
658297791, 4896, 14728, -3067, 4259, 1830, 1317, -1572, -658, 695, 5823, 245, 173, 198, 187, 311, 489, 223, 862
658298714, 4770, 14439, -4012, 4590, 2001, 1216, -1747, -853, 344, 5809, 245, 173, 198, 187, 311, 489, 223, 862
658299544, 4770, 14439, -4012, 4590, 2001, 1216, -1747, -853, 344, 5809, 256, 174, 190, 183, 318, 421, 228, 906
658300385, 4770, 14439, -4012, 4590, 2001, 1216, -1747, -853, 344, 5809, 256, 174, 190, 183, 318, 421, 228, 906
658305364, 4770, 14439, -4012, 4590, 2001, 1216, -1747, -853, 344, 5809, 256, 174, 190, 183, 318, 421, 228, 906
658306216, 4770, 14439, -4012, 4590, 2001, 1216, -1747, -853, 344, 5809, 256, 174, 190, 183, 318, 421, 228, 906
658306988, 4770, 14439, -4012, 4590, 2001, 1216, -1747, -853, 344, 5809, 256, 174, 190, 183, 318, 421, 228, 906
658307812, 4770, 14439, -4012, 4590, 2001, 1216, -1747, -853, 344, 5809, 256, 174, 190, 183, 318, 421, 228, 906
658312763, 4770, 14439, -4012, 4590, 2001, 1216, -1747, -853, 344, 5809, 256, 174, 190, 183, 318, 421, 228, 906
658313606, 4770, 14439, -4012, 4590, 2001, 1216, -1747, -853, 344, 5809, 256, 174, 190, 183, 318, 421, 228, 906
658314388, 4770, 14439, -4012, 4590, 2001, 1216, -1747, -853, 344, 5809, 256, 174, 190, 183, 318, 421, 228, 906
658315233, 4770, 14439, -4012, 4590, 2001, 1216, -1747, -853, 344, 5809, 256, 174, 190, 183, 318, 421, 228, 906
658320264, 4770, 14439, -4012, 4590, 2001, 1216, -1747, -853, 344, 5809, 256, 174, 190, 183, 318, 421, 228, 906
658321246, 4553, 14130, -4945, 4856, 2180, 1303, -1461, -472, -83, 5844, 256, 174, 190, 183, 318, 421, 228, 906
658322036, 4553, 14130, -4945, 4856, 2180, 1303, -1461, -472, -83, 5844, 238, 176, 187, 170, 430, 460, 240, 943
658322850, 4553, 14130, -4945, 4856, 2180, 1303, -1461, -472, -83, 5844, 256, 174, 190, 183, 318, 421, 228, 906
658327838, 4553, 14130, -4945, 4856, 2180, 1303, -1461, -472, -83, 5844, 238, 176, 187, 170, 430, 460, 240, 943
658328690, 4553, 14130, -4945, 4856, 2180, 1303, -1461, -472, -83, 5844, 238, 176, 187, 170, 430, 460, 240, 943
658329469, 4553, 14130, -4945, 4856, 2180, 1303, -1461, -472, -83, 5844, 238, 176, 187, 170, 430, 460, 240, 943
658330299, 4553, 14130, -4945, 4856, 2180, 1303, -1461, -472, -83, 5844, 238, 176, 187, 170, 430, 460, 240, 943
658335290, 4553, 14130, -4945, 4856, 2180, 1303, -1461, -472, -83, 5844, 238, 176, 187, 170, 430, 460, 240, 943
658336123, 4553, 14130, -4945, 4856, 2180, 1303, -1461, -472, -83, 5844, 238, 176, 187, 170, 430, 460, 240, 943
658336892, 4553, 14130, -4945, 4856, 2180, 1303, -1461, -472, -83, 5844, 238, 176, 187, 170, 430, 460, 240, 943
658337713, 4553, 14130, -4945, 4856, 2180, 1303, -1461, -472, -83, 5844, 238, 176, 187, 170, 430, 460, 240, 943
658342816, 4553, 14130, -4945, 4856, 2180, 1303, -1461, -472, -83, 5844, 238, 176, 187, 170, 430, 460, 240, 943
658343782, 4208, 13812, -5820, 5108, 2520, 1180, -1118, 228, -320, 5771, 238, 176, 187, 170, 430, 460, 240, 943
658344569, 4208, 13812, -5820, 5108, 2520, 1180, -1118, 228, -320, 5771, 234, 198, 212, 160, 528, 421, 250, 914
658345404, 4208, 13812, -5820, 5108, 2520, 1180, -1118, 228, -320, 5771, 234, 198, 212, 160, 528, 421, 250, 914
658350392, 4208, 13812, -5820, 5108, 2520, 1180, -1118, 228, -320, 5771, 234, 198, 212, 160, 528, 421, 250, 914
658351179, 4208, 13812, -5820, 5108, 2520, 1180, -1118, 228, -320, 5771, 234, 198, 212, 160, 528, 421, 250, 914
658351989, 4208, 13812, -5820, 5108, 2520, 1180, -1118, 228, -320, 5771, 234, 198, 212, 160, 528, 421, 250, 914
658352789, 4208, 13812, -5820, 5108, 2520, 1180, -1118, 228, -320, 5771, 234, 198, 212, 160, 528, 421, 250, 914
658357740, 4208, 13812, -5820, 5108, 2520, 1180, -1118, 228, -320, 5771, 234, 198, 212, 160, 528, 421, 250, 914
658358638, 4208, 13812, -5820, 5108, 2520, 1180, -1118, 228, -320, 5771, 234, 198, 212, 160, 528, 421, 250, 914
658359316, 4208, 13812, -5820, 5108, 2520, 1180, -1118, 228, -320, 5771, 234, 198, 212, 160, 528, 421, 250, 914
658360188, 4208, 13812, -5820, 5108, 2520, 1180, -1118, 228, -320, 5771, 234, 198, 212, 160, 528, 421, 250, 914
658365293, 4208, 13812, -5820, 5108, 2520, 1180, -1118, 228, -320, 5771, 234, 198, 212, 160, 528, 421, 250, 914
658366237, 3841, 13480, -6635, 5285, 2743, 1332, -1243, 294, -611, 5495, 234, 198, 212, 160, 528, 421, 250, 914
658367039, 3841, 13480, -6635, 5285, 2743, 1332, -1243, 294, -611, 5495, 251, 222, 259, 175, 532, 416, 250, 923
658367879, 3841, 13480, -6635, 5285, 2743, 1332, -1243, 294, -611, 5495, 251, 222, 259, 175, 532, 416, 250, 923
658372864, 3841, 13480, -6635, 5285, 2743, 1332, -1243, 294, -611, 5495, 251, 222, 259, 175, 532, 416, 250, 923
658373690, 3841, 13480, -6635, 5285, 2743, 1332, -1243, 294, -611, 5495, 251, 222, 259, 175, 532, 416, 250, 923
658374491, 3841, 13480, -6635, 5285, 2743, 1332, -1243, 294, -611, 5495, 251, 222, 259, 175, 532, 416, 250, 923
658375312, 3841, 13480, -6635, 5285, 2743, 1332, -1243, 294, -611, 5495, 251, 222, 259, 175, 532, 416, 250, 923
658380239, 3841, 13480, -6635, 5285, 2743, 1332, -1243, 294, -611, 5495, 251, 222, 259, 175, 532, 416, 250, 923
658381093, 3841, 13480, -6635, 5285, 2743, 1332, -1243, 294, -611, 5495, 251, 222, 259, 175, 532, 416, 250, 923
658381939, 3841, 13480, -6635, 5285, 2743, 1332, -1243, 294, -611, 5495, 251, 222, 259, 175, 532, 416, 250, 923
658382676, 3841, 13480, -6635, 5285, 2743, 1332, -1243, 294, -611, 5495, 251, 222, 259, 175, 532, 416, 250, 923
658387817, 3841, 13480, -6635, 5285, 2743, 1332, -1243, 294, -611, 5495, 251, 222, 259, 175, 532, 416, 250, 923
658388710, 3488, 13116, -7468, 5335, 2892, 1644, -1399, -90, -1139, 5517, 251, 222, 259, 175, 532, 416, 250, 923
658389518, 3488, 13116, -7468, 5335, 2892, 1644, -1399, -90, -1139, 5517, 264, 235, 246, 188, 569, 463, 256, 899
658390360, 3488, 13116, -7468, 5335, 2892, 1644, -1399, -90, -1139, 5517, 264, 235, 246, 188, 569, 463, 256, 899
658402872, 3488, 13116, -7468, 5335, 2892, 1644, -1399, -90, -1139, 5517, 264, 235, 246, 188, 569, 463, 256, 899
658403677, 3488, 13116, -7468, 5335, 2892, 1644, -1399, -90, -1139, 5517, 264, 235, 246, 188, 569, 463, 256, 899
658404481, 3488, 13116, -7468, 5335, 2892, 1644, -1399, -90, -1139, 5517, 264, 235, 246, 188, 569, 463, 256, 899
658405286, 3488, 13116, -7468, 5335, 2892, 1644, -1399, -90, -1139, 5517, 264, 235, 246, 188, 569, 463, 256, 899
658410291, 3488, 13116, -7468, 5335, 2892, 1644, -1399, -90, -1139, 5517, 264, 235, 246, 188, 569, 463, 256, 899
658411088, 3488, 13116, -7468, 5335, 2892, 1644, -1399, -90, -1139, 5517, 264, 235, 246, 188, 569, 463, 256, 899
658411913, 3488, 13116, -7468, 5335, 2892, 1644, -1399, -90, -1139, 5517, 264, 235, 246, 188, 569, 463, 256, 899
658412738, 3488, 13116, -7468, 5335, 2892, 1644, -1399, -90, -1139, 5517, 264, 235, 246, 188, 569, 463, 256, 899
658417861, 3488, 13116, -7468, 5335, 2892, 1644, -1399, -90, -1139, 5517, 267, 237, 254, 200, 691, 527, 257, 865
658418690, 3488, 13116, -7468, 5335, 2892, 1644, -1399, -90, -1139, 5517, 267, 237, 254, 200, 691, 527, 257, 865
658419466, 3488, 13116, -7468, 5335, 2892, 1644, -1399, -90, -1139, 5517, 267, 237, 254, 200, 691, 527, 257, 865
658420279, 3488, 13116, -7468, 5335, 2892, 1644, -1399, -90, -1139, 5517, 267, 237, 254, 200, 691, 527, 257, 865
658425286, 3488, 13116, -7468, 5335, 2892, 1644, -1399, -90, -1139, 5517, 267, 237, 254, 200, 691, 527, 257, 865
658426141, 3488, 13116, -7468, 5335, 2892, 1644, -1399, -90, -1139, 5517, 267, 237, 254, 200, 691, 527, 257, 865
658426914, 3488, 13116, -7468, 5335, 2892, 1644, -1399, -90, -1139, 5517, 267, 237, 254, 200, 691, 527, 257, 865
658427780, 3488, 13116, -7468, 5335, 2892, 1644, -1399, -90, -1139, 5517, 267, 237, 254, 200, 691, 527, 257, 865
658432815, 3488, 13116, -7468, 5335, 2892, 1644, -1399, -90, -1139, 5517, 267, 237, 254, 200, 691, 527, 257, 865
658433782, 2665, 12380, -9168, 4900, 4347, 1816, -1651, -872, -2863, 5189, 267, 237, 254, 200, 691, 527, 257, 865
658434569, 2665, 12380, -9168, 4900, 4347, 1816, -1651, -872, -2863, 5189, 348, 258, 256, 210, 678, 476, 266, 937
658435391, 2665, 12380, -9168, 4900, 4347, 1816, -1651, -872, -2863, 5189, 348, 258, 256, 210, 678, 476, 266, 937
658440388, 2665, 12380, -9168, 4900, 4347, 1816, -1651, -872, -2863, 5189, 348, 258, 256, 210, 678, 476, 266, 937
658441230, 2665, 12380, -9168, 4900, 4347, 1816, -1651, -872, -2863, 5189, 348, 258, 256, 210, 678, 476, 266, 937
658442023, 2665, 12380, -9168, 4900, 4347, 1816, -1651, -872, -2863, 5189, 348, 258, 256, 210, 678, 476, 266, 937
658442811, 2665, 12380, -9168, 4900, 4347, 1816, -1651, -872, -2863, 5189, 348, 258, 256, 210, 678, 476, 266, 937
658447780, 2665, 12380, -9168, 4900, 4347, 1816, -1651, -872, -2863, 5189, 348, 258, 256, 210, 678, 476, 266, 937
658448675, 2665, 12380, -9168, 4900, 4347, 1816, -1651, -872, -2863, 5189, 348, 258, 256, 210, 678, 476, 266, 937
658449382, 2665, 12380, -9168, 4900, 4347, 1816, -1651, -872, -2863, 5189, 348, 258, 256, 210, 678, 476, 266, 937
658450213, 2665, 12380, -9168, 4900, 4347, 1816, -1651, -872, -2863, 5189, 348, 258, 256, 210, 678, 476, 266, 937
658455317, 2665, 12380, -9168, 4900, 4347, 1816, -1651, -872, -2863, 5189, 348, 258, 256, 210, 678, 476, 266, 937
658456216, 2248, 12033, -9947, 4433, 5259, 1803, -1853, -1322, -3417, 4660, 348, 258, 256, 210, 678, 476, 266, 937
658457029, 2248, 12033, -9947, 4433, 5259, 1803, -1853, -1322, -3417, 4660, 363, 290, 296, 236, 604, 504, 245, 902
658457814, 2248, 12033, -9947, 4433, 5259, 1803, -1853, -1322, -3417, 4660, 363, 290, 296, 236, 604, 504, 245, 902
658462839, 2248, 12033, -9947, 4433, 5259, 1803, -1853, -1322, -3417, 4660, 363, 290, 296, 236, 604, 504, 245, 902
658463638, 2248, 12033, -9947, 4433, 5259, 1803, -1853, -1322, -3417, 4660, 363, 290, 296, 236, 604, 504, 245, 902
658464466, 2248, 12033, -9947, 4433, 5259, 1803, -1853, -1322, -3417, 4660, 363, 290, 296, 236, 604, 504, 245, 902
658465296, 2248, 12033, -9947, 4433, 5259, 1803, -1853, -1322, -3417, 4660, 363, 290, 296, 236, 604, 504, 245, 902
658470232, 2248, 12033, -9947, 4433, 5259, 1803, -1853, -1322, -3417, 4660, 363, 290, 296, 236, 604, 504, 245, 902
658471060, 2248, 12033, -9947, 4433, 5259, 1803, -1853, -1322, -3417, 4660, 363, 290, 296, 236, 604, 504, 245, 902
658471887, 2248, 12033, -9947, 4433, 5259, 1803, -1853, -1322, -3417, 4660, 363, 290, 296, 236, 604, 504, 245, 902
658472710, 2248, 12033, -9947, 4433, 5259, 1803, -1853, -1322, -3417, 4660, 363, 290, 296, 236, 604, 504, 245, 902
658477763, 2248, 12033, -9947, 4433, 5259, 1803, -1853, -1322, -3417, 4660, 363, 290, 296, 236, 604, 504, 245, 902
658478690, 1871, 11714, -10612, 3886, 6250, 1464, -2790, -1561, -3564, 3972, 363, 290, 296, 236, 604, 504, 245, 902
658479518, 1871, 11714, -10612, 3886, 6250, 1464, -2790, -1561, -3564, 3972, 360, 292, 359, 335, 667, 558, 256, 908
658480366, 1871, 11714, -10612, 3886, 6250, 1464, -2790, -1561, -3564, 3972, 360, 292, 359, 335, 667, 558, 256, 908
658485339, 1871, 11714, -10612, 3886, 6250, 1464, -2790, -1561, -3564, 3972, 360, 292, 359, 335, 667, 558, 256, 908
658486167, 1871, 11714, -10612, 3886, 6250, 1464, -2790, -1561, -3564, 3972, 360, 292, 359, 335, 667, 558, 256, 908
658486964, 1871, 11714, -10612, 3886, 6250, 1464, -2790, -1561, -3564, 3972, 360, 292, 359, 335, 667, 558, 256, 908
658487830, 1871, 11714, -10612, 3886, 6250, 1464, -2790, -1561, -3564, 3972, 360, 292, 359, 335, 667, 558, 256, 908
658492789, 1871, 11714, -10612, 3886, 6250, 1464, -2790, -1561, -3564, 3972, 360, 292, 359, 335, 667, 558, 256, 908
658493704, 1871, 11714, -10612, 3886, 6250, 1464, -2790, -1561, -3564, 3972, 360, 292, 359, 335, 667, 558, 256, 908
658494419, 1871, 11714, -10612, 3886, 6250, 1464, -2790, -1561, -3564, 3972, 360, 292, 359, 335, 667, 558, 256, 908
658495241, 1871, 11714, -10612, 3886, 6250, 1464, -2790, -1561, -3564, 3972, 360, 292, 359, 335, 667, 558, 256, 908
658500290, 1871, 11714, -10612, 3886, 6250, 1464, -2790, -1561, -3564, 3972, 360, 292, 359, 335, 667, 558, 256, 908
658501281, 1507, 11513, -11036, 3438, 6481, 1000, -3591, -859, -3118, 2626, 360, 292, 359, 335, 667, 558, 256, 908
658502039, 1507, 11513, -11036, 3438, 6481, 1000, -3591, -859, -3118, 2626, 337, 274, 385, 741, 653, 499, 233, 907
658502905, 1507, 11513, -11036, 3438, 6481, 1000, -3591, -859, -3118, 2626, 337, 274, 385, 741, 653, 499, 233, 907
658507864, 1507, 11513, -11036, 3438, 6481, 1000, -3591, -859, -3118, 2626, 337, 274, 385, 741, 653, 499, 233, 907
658508694, 1507, 11513, -11036, 3438, 6481, 1000, -3591, -859, -3118, 2626, 337, 274, 385, 741, 653, 499, 233, 907
658509502, 1507, 11513, -11036, 3438, 6481, 1000, -3591, -859, -3118, 2626, 337, 274, 385, 741, 653, 499, 233, 907
658510310, 1507, 11513, -11036, 3438, 6481, 1000, -3591, -859, -3118, 2626, 337, 274, 385, 741, 653, 499, 233, 907
658515270, 1507, 11513, -11036, 3438, 6481, 1000, -3591, -859, -3118, 2626, 337, 274, 385, 741, 653, 499, 233, 907
658516080, 1507, 11513, -11036, 3438, 6481, 1000, -3591, -859, -3118, 2626, 337, 274, 385, 741, 653, 499, 233, 907
658516870, 1507, 11513, -11036, 3438, 6481, 1000, -3591, -859, -3118, 2626, 337, 274, 385, 741, 653, 499, 233, 907
658517700, 1507, 11513, -11036, 3438, 6481, 1000, -3591, -859, -3118, 2626, 337, 274, 385, 741, 653, 499, 233, 907
658522810, 1507, 11513, -11036, 3438, 6481, 1000, -3591, -859, -3118, 2626, 337, 274, 385, 741, 653, 499, 233, 907
658523717, 1248, 11301, -11362, 3173, 6181, 1190, -4009, -476, -1940, 2245, 337, 274, 385, 741, 653, 499, 233, 907
658524542, 1248, 11301, -11362, 3173, 6181, 1190, -4009, -476, -1940, 2245, 341, 297, 387, 1018, 540, 421, 250, 925
658525373, 1248, 11301, -11362, 3173, 6181, 1190, -4009, -476, -1940, 2245, 341, 297, 387, 1018, 540, 421, 250, 925
658530420, 1248, 11301, -11362, 3173, 6181, 1190, -4009, -476, -1940, 2245, 341, 297, 387, 1018, 540, 421, 250, 925
658531173, 1248, 11301, -11362, 3173, 6181, 1190, -4009, -476, -1940, 2245, 341, 297, 387, 1018, 540, 421, 250, 925
658532013, 1248, 11301, -11362, 3173, 6181, 1190, -4009, -476, -1940, 2245, 341, 297, 387, 1018, 540, 421, 250, 925
658532789, 1248, 11301, -11362, 3173, 6181, 1190, -4009, -476, -1940, 2245, 341, 297, 387, 1018, 540, 421, 250, 925
658537792, 1248, 11301, -11362, 3173, 6181, 1190, -4009, -476, -1940, 2245, 341, 297, 387, 1018, 540, 421, 250, 925
658538603, 1248, 11301, -11362, 3173, 6181, 1190, -4009, -476, -1940, 2245, 341, 297, 387, 1018, 540, 421, 250, 925
658539379, 1248, 11301, -11362, 3173, 6181, 1190, -4009, -476, -1940, 2245, 341, 297, 387, 1018, 540, 421, 250, 925
658540188, 1248, 11301, -11362, 3173, 6181, 1190, -4009, -476, -1940, 2245, 341, 297, 387, 1018, 540, 421, 250, 925
658545356, 1248, 11301, -11362, 3173, 6181, 1190, -4009, -476, -1940, 2245, 341, 297, 387, 1018, 540, 421, 250, 925
658546242, 1240, 11106, -11588, 3043, 5475, 1760, -4109, -800, -418, 1587, 341, 297, 387, 1018, 540, 421, 250, 925
658547080, 1240, 11106, -11588, 3043, 5475, 1760, -4109, -800, -418, 1587, 289, 283, 382, 1351, 562, 432, 245, 811
658547896, 1240, 11106, -11588, 3043, 5475, 1760, -4109, -800, -418, 1587, 289, 283, 382, 1351, 562, 432, 245, 811
658552911, 1240, 11106, -11588, 3043, 5475, 1760, -4109, -800, -418, 1587, 289, 283, 382, 1351, 562, 432, 245, 811
658553702, 1240, 11106, -11588, 3043, 5475, 1760, -4109, -800, -418, 1587, 289, 283, 382, 1351, 562, 432, 245, 811
658554542, 1240, 11106, -11588, 3043, 5475, 1760, -4109, -800, -418, 1587, 289, 283, 382, 1351, 562, 432, 245, 811
658555321, 1240, 11106, -11588, 3043, 5475, 1760, -4109, -800, -418, 1587, 289, 283, 382, 1351, 562, 432, 245, 811
658560276, 1240, 11106, -11588, 3043, 5475, 1760, -4109, -800, -418, 1587, 289, 283, 382, 1351, 562, 432, 245, 811
658561089, 1240, 11106, -11588, 3043, 5475, 1760, -4109, -800, -418, 1587, 289, 283, 382, 1351, 562, 432, 245, 811
658561928, 1240, 11106, -11588, 3043, 5475, 1760, -4109, -800, -418, 1587, 289, 283, 382, 1351, 562, 432, 245, 811
658562713, 1240, 11106, -11588, 3043, 5475, 1760, -4109, -800, -418, 1587, 289, 283, 382, 1351, 562, 432, 245, 811
658567802, 1240, 11106, -11588, 3043, 5475, 1760, -4109, -800, -418, 1587, 289, 283, 382, 1351, 562, 432, 245, 811
658568715, 1411, 10959, -11718, 3005, 4786, 1211, -3403, -997, 629, 877, 289, 283, 382, 1351, 562, 432, 245, 811
658569569, 1411, 10959, -11718, 3005, 4786, 1211, -3403, -997, 629, 877, 269, 243, 329, 1467, 578, 418, 271, 899
658570345, 1411, 10959, -11718, 3005, 4786, 1211, -3403, -997, 629, 877, 269, 243, 329, 1467, 578, 418, 271, 899
658575404, 1411, 10959, -11718, 3005, 4786, 1211, -3403, -997, 629, 877, 269, 243, 329, 1467, 578, 418, 271, 899
658576164, 1411, 10959, -11718, 3005, 4786, 1211, -3403, -997, 629, 877, 269, 243, 329, 1467, 578, 418, 271, 899
658577018, 1411, 10959, -11718, 3005, 4786, 1211, -3403, -997, 629, 877, 269, 243, 329, 1467, 578, 418, 271, 899
658577813, 1411, 10959, -11718, 3005, 4786, 1211, -3403, -997, 629, 877, 269, 243, 329, 1467, 578, 418, 271, 899
658582771, 1411, 10959, -11718, 3005, 4786, 1211, -3403, -997, 629, 877, 269, 243, 329, 1467, 578, 418, 271, 899
658583566, 1411, 10959, -11718, 3005, 4786, 1211, -3403, -997, 629, 877, 269, 243, 329, 1467, 578, 418, 271, 899
658584429, 1411, 10959, -11718, 3005, 4786, 1211, -3403, -997, 629, 877, 269, 243, 329, 1467, 578, 418, 271, 899
658585213, 1411, 10959, -11718, 3005, 4786, 1211, -3403, -997, 629, 877, 269, 243, 329, 1467, 578, 418, 271, 899
658590305, 1411, 10959, -11718, 3005, 4786, 1211, -3403, -997, 629, 877, 269, 243, 329, 1467, 578, 418, 271, 899
658591216, 1616, 10859, -11767, 3075, 4295, 1096, -2636, -588, 1160, 409, 269, 243, 329, 1467, 578, 418, 271, 899
658592040, 1616, 10859, -11767, 3075, 4295, 1096, -2636, -588, 1160, 409, 259, 228, 214, 1464, 575, 342, 271, 969
658592838, 1616, 10859, -11767, 3075, 4295, 1096, -2636, -588, 1160, 409, 259, 228, 214, 1464, 575, 342, 271, 969
658597875, 1616, 10859, -11767, 3075, 4295, 1096, -2636, -588, 1160, 409, 259, 228, 214, 1464, 575, 342, 271, 969
658598664, 1616, 10859, -11767, 3075, 4295, 1096, -2636, -588, 1160, 409, 259, 228, 214, 1464, 575, 342, 271, 969
658599507, 1616, 10859, -11767, 3075, 4295, 1096, -2636, -588, 1160, 409, 259, 228, 214, 1464, 575, 342, 271, 969
658600289, 1616, 10859, -11767, 3075, 4295, 1096, -2636, -588, 1160, 409, 259, 228, 214, 1464, 575, 342, 271, 969
658605253, 1616, 10859, -11767, 3075, 4295, 1096, -2636, -588, 1160, 409, 259, 228, 214, 1464, 575, 342, 271, 969
658606038, 1616, 10859, -11767, 3075, 4295, 1096, -2636, -588, 1160, 409, 259, 228, 214, 1464, 575, 342, 271, 969
658606905, 1616, 10859, -11767, 3075, 4295, 1096, -2636, -588, 1160, 409, 259, 228, 214, 1464, 575, 342, 271, 969
658607711, 1616, 10859, -11767, 3075, 4295, 1096, -2636, -588, 1160, 409, 259, 228, 214, 1464, 575, 342, 271, 969
658612826, 1616, 10859, -11767, 3075, 4295, 1096, -2636, -588, 1160, 409, 259, 228, 214, 1464, 575, 342, 271, 969
658613740, 1751, 10795, -11760, 3245, 3867, 1206, -2190, 152, 1245, 180, 259, 228, 214, 1464, 575, 342, 271, 969
658614584, 1751, 10795, -11760, 3245, 3867, 1206, -2190, 152, 1245, 180, 273, 225, 155, 1306, 572, 316, 266, 929
658615370, 1751, 10795, -11760, 3245, 3867, 1206, -2190, 152, 1245, 180, 273, 225, 155, 1306, 572, 316, 266, 929
658620416, 1751, 10795, -11760, 3245, 3867, 1206, -2190, 152, 1245, 180, 273, 225, 155, 1306, 572, 316, 266, 929
658621188, 1751, 10795, -11760, 3245, 3867, 1206, -2190, 152, 1245, 180, 273, 225, 155, 1306, 572, 316, 266, 929
658622040, 1751, 10795, -11760, 3245, 3867, 1206, -2190, 152, 1245, 180, 273, 225, 155, 1306, 572, 316, 266, 929
658622814, 1751, 10795, -11760, 3245, 3867, 1206, -2190, 152, 1245, 180, 273, 225, 155, 1306, 572, 316, 266, 929
658627748, 1751, 10795, -11760, 3245, 3867, 1206, -2190, 152, 1245, 180, 273, 225, 155, 1306, 572, 316, 266, 929
658628639, 1751, 10795, -11760, 3245, 3867, 1206, -2190, 152, 1245, 180, 273, 225, 155, 1306, 572, 316, 266, 929
658629316, 1751, 10795, -11760, 3245, 3867, 1206, -2190, 152, 1245, 180, 273, 225, 155, 1306, 572, 316, 266, 929
658630188, 1751, 10795, -11760, 3245, 3867, 1206, -2190, 152, 1245, 180, 273, 225, 155, 1306, 572, 316, 266, 929
658634381, 1751, 10795, -11760, 3245, 3867, 1206, -2190, 152, 1245, 180, 273, 225, 155, 1306, 572, 316, 266, 929
658635317, 1785, 10767, -11721, 3452, 3578, 1355, -2099, 734, 956, 56, 273, 225, 155, 1306, 572, 316, 266, 929
658636152, 1785, 10767, -11721, 3452, 3578, 1355, -2099, 734, 956, 56, 252, 188, 140, 1101, 541, 293, 250, 985
658642894, 1785, 10767, -11721, 3452, 3578, 1355, -2099, 734, 956, 56, 252, 188, 140, 1101, 541, 293, 250, 985
658643684, 1785, 10767, -11721, 3452, 3578, 1355, -2099, 734, 956, 56, 252, 188, 140, 1101, 541, 293, 250, 985
658644517, 1785, 10767, -11721, 3452, 3578, 1355, -2099, 734, 956, 56, 252, 188, 140, 1101, 541, 293, 250, 985
658645318, 1785, 10767, -11721, 3452, 3578, 1355, -2099, 734, 956, 56, 252, 188, 140, 1101, 541, 293, 250, 985
658650260, 1785, 10767, -11721, 3452, 3578, 1355, -2099, 734, 956, 56, 252, 188, 140, 1101, 541, 293, 250, 985
658651052, 1785, 10767, -11721, 3452, 3578, 1355, -2099, 734, 956, 56, 252, 188, 140, 1101, 541, 293, 250, 985
658651842, 1785, 10767, -11721, 3452, 3578, 1355, -2099, 734, 956, 56, 252, 188, 140, 1101, 541, 293, 250, 985
658652664, 1785, 10767, -11721, 3452, 3578, 1355, -2099, 734, 956, 56, 252, 188, 140, 1101, 541, 293, 250, 985
658657768, 1785, 10767, -11721, 3452, 3578, 1355, -2099, 734, 956, 56, 252, 188, 140, 1101, 541, 293, 250, 985
658658734, 1739, 10764, -11671, 3650, 3511, 1350, -2227, 1019, 577, 3, 252, 188, 140, 1101, 541, 293, 250, 985
658659522, 1739, 10764, -11671, 3650, 3511, 1350, -2227, 1019, 577, 3, 208, 168, 129, 643, 455, 289, 233, 989
658660322, 1739, 10764, -11671, 3650, 3511, 1350, -2227, 1019, 577, 3, 208, 168, 129, 643, 455, 289, 233, 989
658665341, 1739, 10764, -11671, 3650, 3511, 1350, -2227, 1019, 577, 3, 208, 168, 129, 643, 455, 289, 233, 989
658666137, 1739, 10764, -11671, 3650, 3511, 1350, -2227, 1019, 577, 3, 208, 168, 129, 643, 455, 289, 233, 989
658666964, 1739, 10764, -11671, 3650, 3511, 1350, -2227, 1019, 577, 3, 208, 168, 129, 643, 455, 289, 233, 989
658667805, 1739, 10764, -11671, 3650, 3511, 1350, -2227, 1019, 577, 3, 208, 168, 129, 643, 455, 289, 233, 989
658670515, 1739, 10764, -11671, 3650, 3511, 1350, -2227, 1019, 577, 3, 208, 168, 129, 643, 455, 289, 233, 989
658680316, 1739, 10764, -11671, 3650, 3511, 1350, -2227, 1019, 577, 3, 208, 168, 129, 643, 455, 289, 233, 989
658681089, 1739, 10764, -11671, 3650, 3511, 1350, -2227, 1019, 577, 3, 208, 168, 129, 643, 455, 289, 233, 989
658681955, 1739, 10764, -11671, 3650, 3511, 1350, -2227, 1019, 577, 3, 208, 168, 129, 643, 455, 289, 233, 989
658682740, 1739, 10764, -11671, 3650, 3511, 1350, -2227, 1019, 577, 3, 208, 168, 129, 643, 455, 289, 233, 989
658687907, 1660, 10771, -11631, 3793, 3605, 1442, -2284, 914, 224, 6, 208, 168, 129, 643, 455, 289, 233, 989
658688715, 1660, 10771, -11631, 3793, 3605, 1442, -2284, 914, 224, 6, 199, 122, 137, 262, 491, 286, 221, 920
658689516, 1660, 10771, -11631, 3793, 3605, 1442, -2284, 914, 224, 6, 199, 122, 137, 262, 491, 286, 221, 920
658690360, 1660, 10771, -11631, 3793, 3605, 1442, -2284, 914, 224, 6, 199, 122, 137, 262, 491, 286, 221, 920
658695236, 1660, 10771, -11631, 3793, 3605, 1442, -2284, 914, 224, 6, 199, 122, 137, 262, 491, 286, 221, 920
658696064, 1660, 10771, -11631, 3793, 3605, 1442, -2284, 914, 224, 6, 199, 122, 137, 262, 491, 286, 221, 920
658696929, 1660, 10771, -11631, 3793, 3605, 1442, -2284, 914, 224, 6, 199, 122, 137, 262, 491, 286, 221, 920
658697690, 1660, 10771, -11631, 3793, 3605, 1442, -2284, 914, 224, 6, 199, 122, 137, 262, 491, 286, 221, 920
658702765, 1660, 10771, -11631, 3793, 3605, 1442, -2284, 914, 224, 6, 199, 122, 137, 262, 491, 286, 221, 920
658703717, 1595, 10788, -11604, 3852, 3800, 1477, -2314, 519, -50, -48, 199, 122, 137, 262, 491, 286, 221, 920
658704518, 1595, 10788, -11604, 3852, 3800, 1477, -2314, 519, -50, -48, 183, 101, 131, 111, 423, 261, 198, 809
658705360, 1595, 10788, -11604, 3852, 3800, 1477, -2314, 519, -50, -48, 183, 101, 131, 111, 423, 261, 198, 809
658710339, 1595, 10788, -11604, 3852, 3800, 1477, -2314, 519, -50, -48, 183, 101, 131, 111, 423, 261, 198, 809
658711181, 1595, 10788, -11604, 3852, 3800, 1477, -2314, 519, -50, -48, 183, 101, 131, 111, 423, 261, 198, 809
658711964, 1595, 10788, -11604, 3852, 3800, 1477, -2314, 519, -50, -48, 183, 101, 131, 111, 423, 261, 198, 809
658712816, 1595, 10788, -11604, 3852, 3800, 1477, -2314, 519, -50, -48, 183, 101, 131, 111, 423, 261, 198, 809
658717714, 1595, 10788, -11604, 3852, 3800, 1477, -2314, 519, -50, -48, 183, 101, 131, 111, 423, 261, 198, 809
658718539, 1595, 10788, -11604, 3852, 3800, 1477, -2314, 519, -50, -48, 183, 101, 131, 111, 423, 261, 198, 809
658719345, 1595, 10788, -11604, 3852, 3800, 1477, -2314, 519, -50, -48, 183, 101, 131, 111, 423, 261, 198, 809
658720203, 1595, 10788, -11604, 3852, 3800, 1477, -2314, 519, -50, -48, 183, 101, 131, 111, 423, 261, 198, 809
658725288, 1595, 10788, -11604, 3852, 3800, 1477, -2314, 519, -50, -48, 183, 101, 131, 111, 423, 261, 198, 809
658726282, 1567, 10814, -11591, 3833, 3948, 1410, -2375, 58, -207, -123, 183, 101, 131, 111, 423, 261, 198, 809
658727039, 1567, 10814, -11591, 3833, 3948, 1410, -2375, 58, -207, -123, 180, 97, 127, 389, 425, 273, 199, 810
658727904, 1567, 10814, -11591, 3833, 3948, 1410, -2375, 58, -207, -123, 180, 97, 127, 389, 425, 273, 199, 810
658732865, 1567, 10814, -11591, 3833, 3948, 1410, -2375, 58, -207, -123, 180, 97, 127, 389, 425, 273, 199, 810
658733699, 1567, 10814, -11591, 3833, 3948, 1410, -2375, 58, -207, -123, 180, 97, 127, 389, 425, 273, 199, 810
658734494, 1567, 10814, -11591, 3833, 3948, 1410, -2375, 58, -207, -123, 180, 97, 127, 389, 425, 273, 199, 810
658735312, 1567, 10814, -11591, 3833, 3948, 1410, -2375, 58, -207, -123, 180, 97, 127, 389, 425, 273, 199, 810
658740263, 1567, 10814, -11591, 3833, 3948, 1410, -2375, 58, -207, -123, 180, 97, 127, 389, 425, 273, 199, 810
658741132, 1567, 10814, -11591, 3833, 3948, 1410, -2375, 58, -207, -123, 180, 97, 127, 389, 425, 273, 199, 810
658741897, 1567, 10814, -11591, 3833, 3948, 1410, -2375, 58, -207, -123, 180, 97, 127, 389, 425, 273, 199, 810
658742700, 1567, 10814, -11591, 3833, 3948, 1410, -2375, 58, -207, -123, 180, 97, 127, 389, 425, 273, 199, 810
658747772, 1567, 10814, -11591, 3833, 3948, 1410, -2375, 58, -207, -123, 180, 97, 127, 389, 425, 273, 199, 810
658748716, 1593, 10840, -11588, 3756, 4047, 1355, -2351, -383, -217, -194, 180, 97, 127, 389, 425, 273, 199, 810
658749545, 1593, 10840, -11588, 3756, 4047, 1355, -2351, -383, -217, -194, 192, 100, 127, 500, 434, 272, 211, 822
658750344, 1593, 10840, -11588, 3756, 4047, 1355, -2351, -383, -217, -194, 192, 100, 127, 500, 434, 272, 211, 822
658755330, 1593, 10840, -11588, 3756, 4047, 1355, -2351, -383, -217, -194, 192, 100, 127, 500, 434, 272, 211, 822
658756169, 1593, 10840, -11588, 3756, 4047, 1355, -2351, -383, -217, -194, 192, 100, 127, 500, 434, 272, 211, 822
658757000, 1593, 10840, -11588, 3756, 4047, 1355, -2351, -383, -217, -194, 192, 100, 127, 500, 434, 272, 211, 822
658757814, 1593, 10840, -11588, 3756, 4047, 1355, -2351, -383, -217, -194, 192, 100, 127, 500, 434, 272, 211, 822
658762744, 1593, 10840, -11588, 3756, 4047, 1355, -2351, -383, -217, -194, 192, 100, 127, 500, 434, 272, 211, 822
658763588, 1593, 10840, -11588, 3756, 4047, 1355, -2351, -383, -217, -194, 192, 100, 127, 500, 434, 272, 211, 822
658764370, 1593, 10840, -11588, 3756, 4047, 1355, -2351, -383, -217, -194, 192, 100, 127, 500, 434, 272, 211, 822
658765217, 1593, 10840, -11588, 3756, 4047, 1355, -2351, -383, -217, -194, 192, 100, 127, 500, 434, 272, 211, 822
658770308, 1593, 10840, -11588, 3756, 4047, 1355, -2351, -383, -217, -194, 192, 100, 127, 500, 434, 272, 211, 822
658771192, 1666, 10874, -11585, 3631, 4059, 1275, -2299, -748, -216, -306, 192, 100, 127, 500, 434, 272, 211, 822
658772041, 1666, 10874, -11585, 3631, 4059, 1275, -2299, -748, -216, -306, 183, 96, 126, 505, 446, 257, 207, 813
658772813, 1666, 10874, -11585, 3631, 4059, 1275, -2299, -748, -216, -306, 183, 96, 126, 505, 446, 257, 207, 813
658777831, 1666, 10874, -11585, 3631, 4059, 1275, -2299, -748, -216, -306, 183, 96, 126, 505, 446, 257, 207, 813
658778662, 1666, 10874, -11585, 3631, 4059, 1275, -2299, -748, -216, -306, 183, 96, 126, 505, 446, 257, 207, 813
658779494, 1666, 10874, -11585, 3631, 4059, 1275, -2299, -748, -216, -306, 183, 96, 126, 505, 446, 257, 207, 813
658780266, 1666, 10874, -11585, 3631, 4059, 1275, -2299, -748, -216, -306, 183, 96, 126, 505, 446, 257, 207, 813
658785280, 1666, 10874, -11585, 3631, 4059, 1275, -2299, -748, -216, -306, 183, 96, 126, 505, 446, 257, 207, 813
658786064, 1666, 10874, -11585, 3631, 4059, 1275, -2299, -748, -216, -306, 183, 96, 126, 505, 446, 257, 207, 813
658786889, 1666, 10874, -11585, 3631, 4059, 1275, -2299, -748, -216, -306, 183, 96, 126, 505, 446, 257, 207, 813
658787705, 1666, 10874, -11585, 3631, 4059, 1275, -2299, -748, -216, -306, 183, 96, 126, 505, 446, 257, 207, 813
658792804, 1666, 10874, -11585, 3631, 4059, 1275, -2299, -748, -216, -306, 183, 96, 126, 505, 446, 257, 207, 813
658793725, 1790, 10912, -11584, 3459, 4034, 1226, -2199, -1116, -193, -405, 183, 96, 126, 505, 446, 257, 207, 813
658794519, 1790, 10912, -11584, 3459, 4034, 1226, -2199, -1116, -193, -405, 175, 96, 104, 512, 372, 221, 179, 785
658795344, 1790, 10912, -11584, 3459, 4034, 1226, -2199, -1116, -193, -405, 175, 96, 104, 512, 372, 221, 179, 785
658800338, 1790, 10912, -11584, 3459, 4034, 1226, -2199, -1116, -193, -405, 175, 96, 104, 512, 372, 221, 179, 785
658801163, 1790, 10912, -11584, 3459, 4034, 1226, -2199, -1116, -193, -405, 175, 96, 104, 512, 372, 221, 179, 785
658801963, 1790, 10912, -11584, 3459, 4034, 1226, -2199, -1116, -193, -405, 175, 96, 104, 512, 372, 221, 179, 785
658802789, 1790, 10912, -11584, 3459, 4034, 1226, -2199, -1116, -193, -405, 175, 96, 104, 512, 372, 221, 179, 785
658807766, 1790, 10912, -11584, 3459, 4034, 1226, -2199, -1116, -193, -405, 175, 96, 104, 512, 372, 221, 179, 785
658808609, 1790, 10912, -11584, 3459, 4034, 1226, -2199, -1116, -193, -405, 175, 96, 104, 512, 372, 221, 179, 785
658809389, 1790, 10912, -11584, 3459, 4034, 1226, -2199, -1116, -193, -405, 175, 96, 104, 512, 372, 221, 179, 785
658810216, 1790, 10912, -11584, 3459, 4034, 1226, -2199, -1116, -193, -405, 175, 96, 104, 512, 372, 221, 179, 785
658815287, 1790, 10912, -11584, 3459, 4034, 1226, -2199, -1116, -193, -405, 175, 96, 104, 512, 372, 221, 179, 785
658816238, 1936, 10952, -11578, 3271, 4007, 1064, -2103, -1259, -168, -469, 175, 96, 104, 512, 372, 221, 179, 785
658817041, 1936, 10952, -11578, 3271, 4007, 1064, -2103, -1259, -168, -469, 177, 90, 87, 520, 352, 214, 168, 809
658817838, 1936, 10952, -11578, 3271, 4007, 1064, -2103, -1259, -168, -469, 177, 90, 87, 520, 352, 214, 168, 809
658822831, 1936, 10952, -11578, 3271, 4007, 1064, -2103, -1259, -168, -469, 177, 90, 87, 520, 352, 214, 168, 809
658823662, 1936, 10952, -11578, 3271, 4007, 1064, -2103, -1259, -168, -469, 177, 90, 87, 520, 352, 214, 168, 809
658824489, 1936, 10952, -11578, 3271, 4007, 1064, -2103, -1259, -168, -469, 177, 90, 87, 520, 352, 214, 168, 809
658825289, 1936, 10952, -11578, 3271, 4007, 1064, -2103, -1259, -168, -469, 177, 90, 87, 520, 352, 214, 168, 809
658830265, 1936, 10952, -11578, 3271, 4007, 1064, -2103, -1259, -168, -469, 177, 90, 87, 520, 352, 214, 168, 809
658831039, 1936, 10952, -11578, 3271, 4007, 1064, -2103, -1259, -168, -469, 177, 90, 87, 520, 352, 214, 168, 809
658831855, 1936, 10952, -11578, 3271, 4007, 1064, -2103, -1259, -168, -469, 177, 90, 87, 520, 352, 214, 168, 809
658832664, 1936, 10952, -11578, 3271, 4007, 1064, -2103, -1259, -168, -469, 177, 90, 87, 520, 352, 214, 168, 809
658837812, 1936, 10952, -11578, 3271, 4007, 1064, -2103, -1259, -168, -469, 177, 90, 87, 520, 352, 214, 168, 809
658838782, 2063, 10994, -11562, 3103, 3972, 888, -2096, -1090, -164, -481, 177, 90, 87, 520, 352, 214, 168, 809
658839551, 2063, 10994, -11562, 3103, 3972, 888, -2096, -1090, -164, -481, 152, 89, 71, 358, 346, 210, 166, 858
658840412, 2063, 10994, -11562, 3103, 3972, 888, -2096, -1090, -164, -481, 152, 89, 71, 358, 346, 210, 166, 858
658845378, 2063, 10994, -11562, 3103, 3972, 888, -2096, -1090, -164, -481, 152, 89, 71, 358, 346, 210, 166, 858
658846200, 2063, 10994, -11562, 3103, 3972, 888, -2096, -1090, -164, -481, 152, 89, 71, 358, 346, 210, 166, 858
658847014, 2063, 10994, -11562, 3103, 3972, 888, -2096, -1090, -164, -481, 152, 89, 71, 358, 346, 210, 166, 858
658847820, 2063, 10994, -11562, 3103, 3972, 888, -2096, -1090, -164, -481, 152, 89, 71, 358, 346, 210, 166, 858
658852743, 2063, 10994, -11562, 3103, 3972, 888, -2096, -1090, -164, -481, 152, 89, 71, 358, 346, 210, 166, 858
658853639, 2063, 10994, -11562, 3103, 3972, 888, -2096, -1090, -164, -481, 152, 89, 71, 358, 346, 210, 166, 858
658854316, 2063, 10994, -11562, 3103, 3972, 888, -2096, -1090, -164, -481, 152, 89, 71, 358, 346, 210, 166, 858
658855188, 2063, 10994, -11562, 3103, 3972, 888, -2096, -1090, -164, -481, 152, 89, 71, 358, 346, 210, 166, 858
658860305, 2063, 10994, -11562, 3103, 3972, 888, -2096, -1090, -164, -481, 152, 89, 71, 358, 346, 210, 166, 858
658861216, 2146, 11036, -11538, 2985, 3920, 805, -2072, -727, -141, -429, 152, 89, 71, 358, 346, 210, 166, 858
658862079, 2146, 11036, -11538, 2985, 3920, 805, -2072, -727, -141, -429, 150, 83, 59, 171, 336, 223, 126, 768
658862913, 2146, 11036, -11538, 2985, 3920, 805, -2072, -727, -141, -429, 150, 83, 59, 171, 336, 223, 126, 768
658867874, 2146, 11036, -11538, 2985, 3920, 805, -2072, -727, -141, -429, 150, 83, 59, 171, 336, 223, 126, 768
658868674, 2146, 11036, -11538, 2985, 3920, 805, -2072, -727, -141, -429, 150, 83, 59, 171, 336, 223, 126, 768
658869494, 2146, 11036, -11538, 2985, 3920, 805, -2072, -727, -141, -429, 150, 83, 59, 171, 336, 223, 126, 768
658870298, 2146, 11036, -11538, 2985, 3920, 805, -2072, -727, -141, -429, 150, 83, 59, 171, 336, 223, 126, 768
658875238, 2146, 11036, -11538, 2985, 3920, 805, -2072, -727, -141, -429, 150, 83, 59, 171, 336, 223, 126, 768
658876093, 2146, 11036, -11538, 2985, 3920, 805, -2072, -727, -141, -429, 150, 83, 59, 171, 336, 223, 126, 768
658876889, 2146, 11036, -11538, 2985, 3920, 805, -2072, -727, -141, -429, 150, 83, 59, 171, 336, 223, 126, 768
658877719, 2146, 11036, -11538, 2985, 3920, 805, -2072, -727, -141, -429, 150, 83, 59, 171, 336, 223, 126, 768
658882766, 2146, 11036, -11538, 2985, 3920, 805, -2072, -727, -141, -429, 150, 83, 59, 171, 336, 223, 126, 768
658883702, 2187, 11076, -11507, 2925, 3890, 876, -2092, -327, -82, -360, 150, 83, 59, 171, 336, 223, 126, 768
658884521, 2187, 11076, -11507, 2925, 3890, 876, -2092, -327, -82, -360, 165, 99, 69, 160, 331, 245, 126, 733
658885328, 2187, 11076, -11507, 2925, 3890, 876, -2092, -327, -82, -360, 165, 99, 69, 160, 331, 245, 126, 733
658890338, 2187, 11076, -11507, 2925, 3890, 876, -2092, -327, -82, -360, 165, 99, 69, 160, 331, 245, 126, 733
658891173, 2187, 11076, -11507, 2925, 3890, 876, -2092, -327, -82, -360, 165, 99, 69, 160, 331, 245, 126, 733
658891985, 2187, 11076, -11507, 2925, 3890, 876, -2092, -327, -82, -360, 165, 99, 69, 160, 331, 245, 126, 733
658892810, 2187, 11076, -11507, 2925, 3890, 876, -2092, -327, -82, -360, 165, 99, 69, 160, 331, 245, 126, 733
658897720, 2187, 11076, -11507, 2925, 3890, 876, -2092, -327, -82, -360, 165, 99, 69, 160, 331, 245, 126, 733
658898562, 2187, 11076, -11507, 2925, 3890, 876, -2092, -327, -82, -360, 165, 99, 69, 160, 331, 245, 126, 733
658899346, 2187, 11076, -11507, 2925, 3890, 876, -2092, -327, -82, -360, 165, 99, 69, 160, 331, 245, 126, 733
658900204, 2187, 11076, -11507, 2925, 3890, 876, -2092, -327, -82, -360, 165, 99, 69, 160, 331, 245, 126, 733
658905289, 2187, 11076, -11507, 2925, 3890, 876, -2092, -327, -82, -360, 165, 99, 69, 160, 331, 245, 126, 733
658906269, 2190, 11110, -11476, 2915, 3839, 915, -2090, 3, -39, -261, 165, 99, 69, 160, 331, 245, 126, 733
658907039, 2190, 11110, -11476, 2915, 3839, 915, -2090, 3, -39, -261, 166, 105, 80, 144, 323, 245, 131, 778
658907903, 2190, 11110, -11476, 2915, 3839, 915, -2090, 3, -39, -261, 166, 105, 80, 144, 323, 245, 131, 778
658912866, 2190, 11110, -11476, 2915, 3839, 915, -2090, 3, -39, -261, 166, 105, 80, 144, 323, 245, 131, 778
658913699, 2190, 11110, -11476, 2915, 3839, 915, -2090, 3, -39, -261, 166, 105, 80, 144, 323, 245, 131, 778
658914494, 2190, 11110, -11476, 2915, 3839, 915, -2090, 3, -39, -261, 166, 105, 80, 144, 323, 245, 131, 778
658915312, 2190, 11110, -11476, 2915, 3839, 915, -2090, 3, -39, -261, 166, 105, 80, 144, 323, 245, 131, 778
658920263, 2190, 11110, -11476, 2915, 3839, 915, -2090, 3, -39, -261, 166, 105, 80, 144, 323, 245, 131, 778
658921130, 2190, 11110, -11476, 2915, 3839, 915, -2090, 3, -39, -261, 166, 105, 80, 144, 323, 245, 131, 778
658921889, 2190, 11110, -11476, 2915, 3839, 915, -2090, 3, -39, -261, 166, 105, 80, 144, 323, 245, 131, 778
658922737, 2190, 11110, -11476, 2915, 3839, 915, -2090, 3, -39, -261, 166, 105, 80, 144, 323, 245, 131, 778
658927763, 2190, 11110, -11476, 2915, 3839, 915, -2090, 3, -39, -261, 166, 105, 80, 144, 323, 245, 131, 778
658928755, 2168, 11139, -11447, 2937, 3813, 1049, -2167, 221, -10, -184, 166, 105, 80, 144, 323, 245, 131, 778
658929518, 2168, 11139, -11447, 2937, 3813, 1049, -2167, 221, -10, -184, 163, 104, 82, 114, 332, 255, 151, 762
658930385, 2168, 11139, -11447, 2937, 3813, 1049, -2167, 221, -10, -184, 163, 104, 82, 114, 332, 255, 151, 762
658935363, 2168, 11139, -11447, 2937, 3813, 1049, -2167, 221, -10, -184, 163, 104, 82, 114, 332, 255, 151, 762
658936170, 2168, 11139, -11447, 2937, 3813, 1049, -2167, 221, -10, -184, 163, 104, 82, 114, 332, 255, 151, 762
658936987, 2168, 11139, -11447, 2937, 3813, 1049, -2167, 221, -10, -184, 163, 104, 82, 114, 332, 255, 151, 762
658937815, 2168, 11139, -11447, 2937, 3813, 1049, -2167, 221, -10, -184, 163, 104, 82, 114, 332, 255, 151, 762
658942742, 2168, 11139, -11447, 2937, 3813, 1049, -2167, 221, -10, -184, 163, 104, 82, 114, 332, 255, 151, 762
658943569, 2168, 11139, -11447, 2937, 3813, 1049, -2167, 221, -10, -184, 163, 104, 82, 114, 332, 255, 151, 762
658944369, 2168, 11139, -11447, 2937, 3813, 1049, -2167, 221, -10, -184, 163, 104, 82, 114, 332, 255, 151, 762
658945229, 2168, 11139, -11447, 2937, 3813, 1049, -2167, 221, -10, -184, 163, 104, 82, 114, 332, 255, 151, 762
