Timestamp, Orientation x, Orientation y, Orientation z, Orientation w, Acceleration x, Acceleration y, Acceleration z, Rotation x, Rotation y, Rotation z, EMG 0, EMG 1, EMG 2, EMG 3, EMG 4, EMG 5, EMG 6, EMG 7
471566340, 8876, 1304, -13689, -759, 4010, 786, -1776, 143, 1, 22, 0, 0, 0, 0, 0, 0, 0, 0
471573855, 8879, 1315, -13687, -744, 4015, 792, -1768, 122, -5, 23, 0, 0, 0, 0, 0, 0, 0, 0
471588840, 8881, 1324, -13685, -735, 4016, 812, -1771, 92, -8, 31, 0, 0, 0, 0, 0, 0, 0, 0
471611317, 8881, 1329, -13685, -731, 4023, 813, -1792, 55, -14, 31, 0, 0, 0, 0, 0, 0, 0, 0
471635194, 8884, 1329, -13683, -730, 4016, 793, -1755, 29, -17, 34, 0, 0, 0, 0, 0, 0, 0, 0
471635978, 8884, 1329, -13683, -730, 4016, 793, -1755, 29, -17, 34, 68, 39, 27, 27, 30, 89, 128, 204
471636790, 8884, 1329, -13683, -730, 4016, 793, -1755, 29, -17, 34, 68, 39, 27, 27, 30, 89, 128, 204
471648847, 8885, 1329, -13682, -730, 4013, 796, -1763, 15, -18, 37, 68, 39, 27, 27, 30, 89, 128, 204
471656906, 8885, 1329, -13682, -730, 4013, 796, -1763, 15, -18, 37, 73, 43, 29, 25, 31, 87, 121, 172
471657738, 8885, 1329, -13682, -730, 4013, 796, -1763, 15, -18, 37, 73, 43, 29, 25, 31, 87, 121, 172
471671317, 8885, 1328, -13682, -731, 3992, 797, -1745, 18, -38, 37, 73, 43, 29, 25, 31, 87, 121, 172
471679491, 8885, 1328, -13682, -731, 3992, 797, -1745, 18, -38, 37, 77, 50, 29, 24, 34, 116, 142, 146
471680289, 8885, 1328, -13682, -731, 3992, 797, -1745, 18, -38, 37, 77, 50, 29, 24, 34, 116, 142, 146
471695224, 8884, 1326, -13683, -728, 4016, 767, -1756, 27, -44, 40, 77, 50, 29, 24, 34, 116, 142, 146
471695989, 8884, 1326, -13683, -728, 4016, 767, -1756, 27, -44, 40, 81, 53, 30, 26, 33, 115, 138, 137
471696841, 8884, 1326, -13683, -728, 4016, 767, -1756, 27, -44, 40, 81, 53, 30, 26, 33, 115, 138, 137
471708791, 8884, 1327, -13683, -722, 4025, 772, -1728, 53, -49, 40, 81, 53, 30, 26, 33, 115, 138, 137
471716980, 8884, 1327, -13683, -722, 4025, 772, -1728, 53, -49, 40, 83, 52, 29, 24, 33, 111, 136, 90
471717780, 8884, 1327, -13683, -722, 4025, 772, -1728, 53, -49, 40, 83, 52, 29, 24, 33, 111, 136, 90
471731376, 8891, 1339, -13679, -698, 4071, 747, -1545, 173, -93, 26, 83, 52, 29, 24, 33, 111, 136, 90
471739457, 8891, 1339, -13679, -698, 4071, 747, -1545, 173, -93, 26, 83, 57, 32, 24, 33, 111, 135, 79
471740276, 8891, 1339, -13679, -698, 4071, 747, -1545, 173, -93, 26, 83, 57, 32, 24, 33, 111, 135, 79
471755172, 8889, 1391, -13678, -627, 4093, 644, -1340, 523, -227, -62, 83, 57, 32, 24, 33, 111, 135, 79
471755965, 8889, 1391, -13678, -627, 4093, 644, -1340, 523, -227, -62, 78, 57, 32, 26, 33, 110, 104, 67
471756801, 8889, 1391, -13678, -627, 4093, 644, -1340, 523, -227, -62, 78, 57, 32, 26, 33, 110, 104, 67
471768798, 8866, 1492, -13687, -510, 4076, 750, -1424, 916, -286, -87, 78, 57, 32, 26, 33, 110, 104, 67
471776955, 8866, 1492, -13687, -510, 4076, 750, -1424, 916, -286, -87, 69, 50, 31, 25, 28, 54, 51, 51
471777751, 8866, 1492, -13687, -510, 4076, 750, -1424, 916, -286, -87, 69, 50, 31, 25, 28, 54, 51, 51
471791332, 8854, 1606, -13686, -385, 4001, 1096, -1367, 1082, -216, 72, 69, 50, 31, 25, 28, 54, 51, 51
471799434, 8854, 1606, -13686, -385, 4001, 1096, -1367, 1082, -216, 72, 60, 52, 44, 33, 30, 48, 44, 43
471800268, 8854, 1606, -13686, -385, 4001, 1096, -1367, 1082, -216, 72, 60, 52, 44, 33, 30, 48, 44, 43
471815147, 8881, 1713, -13659, -251, 4152, 1028, -1031, 1090, -146, 86, 60, 52, 44, 33, 30, 48, 44, 43
471815940, 8881, 1713, -13659, -251, 4152, 1028, -1031, 1090, -146, 86, 55, 55, 85, 75, 32, 42, 41, 44
471816805, 8881, 1713, -13659, -251, 4152, 1028, -1031, 1090, -146, 86, 55, 55, 85, 75, 32, 42, 41, 44
471828792, 8924, 1867, -13612, -152, 4302, 1267, -1164, 1097, 8, -138, 55, 55, 85, 75, 32, 42, 41, 44
471836986, 8924, 1867, -13612, -152, 4302, 1267, -1164, 1097, 8, -138, 51, 52, 87, 83, 35, 73, 38, 45
471837791, 8924, 1867, -13612, -152, 4302, 1267, -1164, 1097, 8, -138, 51, 52, 87, 83, 35, 73, 38, 45
471851295, 9044, 1960, -13519, -177, 4133, 1461, -1197, 308, 530, -169, 51, 52, 87, 83, 35, 73, 38, 45
471859424, 9044, 1960, -13519, -177, 4133, 1461, -1197, 308, 530, -169, 55, 55, 99, 88, 39, 117, 31, 45
471860240, 9044, 1960, -13519, -177, 4133, 1461, -1197, 308, 530, -169, 55, 55, 99, 88, 39, 117, 31, 45
471875166, 9226, 2015, -13387, -197, 4388, 1065, -1267, 54, 986, -231, 55, 55, 99, 88, 39, 117, 31, 45
471875986, 9226, 2015, -13387, -197, 4388, 1065, -1267, 54, 986, -231, 49, 61, 103, 97, 40, 166, 35, 64
471876788, 9226, 2015, -13387, -197, 4388, 1065, -1267, 54, 986, -231, 49, 61, 103, 97, 40, 166, 35, 64
471888847, 9519, 2019, -13177, -330, 4331, 1038, -711, -686, 1488, -447, 49, 61, 103, 97, 40, 166, 35, 64
471896947, 9519, 2019, -13177, -330, 4331, 1038, -711, -686, 1488, -447, 49, 128, 173, 126, 46, 311, 39, 110
471897720, 9519, 2019, -13177, -330, 4331, 1038, -711, -686, 1488, -447, 49, 128, 173, 126, 46, 311, 39, 110
471911325, 9794, 2079, -12964, -356, 4315, 637, -720, -133, 1847, -497, 49, 128, 173, 126, 46, 311, 39, 110
471919422, 9794, 2079, -12964, -356, 4315, 637, -720, -133, 1847, -497, 53, 171, 198, 133, 53, 321, 50, 157
471920225, 9794, 2079, -12964, -356, 4315, 637, -720, -133, 1847, -497, 53, 171, 198, 133, 53, 321, 50, 157
471935117, 10096, 2184, -12713, -327, 4459, 712, -333, 248, 2108, -538, 53, 171, 198, 133, 53, 321, 50, 157
471935969, 10096, 2184, -12713, -327, 4459, 712, -333, 248, 2108, -538, 54, 171, 202, 139, 52, 320, 53, 157
471936772, 10096, 2184, -12713, -327, 4459, 712, -333, 248, 2108, -538, 54, 171, 202, 139, 52, 320, 53, 157
471948816, 10419, 2327, -12426, -248, 4467, 862, -429, 570, 2403, -539, 54, 171, 202, 139, 52, 320, 53, 157
471956964, 10419, 2327, -12426, -248, 4467, 862, -429, 570, 2403, -539, 51, 172, 199, 138, 50, 307, 53, 159
471957787, 10419, 2327, -12426, -248, 4467, 862, -429, 570, 2403, -539, 51, 172, 199, 138, 50, 307, 53, 159
471971291, 10770, 2467, -12097, -181, 4333, 1193, -644, 481, 2734, -555, 51, 172, 199, 138, 50, 307, 53, 159
471979479, 10770, 2467, -12097, -181, 4333, 1193, -644, 481, 2734, -555, 50, 170, 200, 138, 50, 283, 50, 152
471980265, 10770, 2467, -12097, -181, 4333, 1193, -644, 481, 2734, -555, 50, 170, 200, 138, 50, 283, 50, 152
471995229, 11147, 2588, -11724, -156, 4412, 1277, -582, 205, 2991, -671, 50, 170, 200, 138, 50, 283, 50, 152
471995978, 11147, 2588, -11724, -156, 4412, 1277, -582, 205, 2991, -671, 49, 132, 197, 146, 53, 107, 47, 122
471996796, 11147, 2588, -11724, -156, 4412, 1277, -582, 205, 2991, -671, 49, 132, 197, 146, 53, 107, 47, 122
472008855, 11543, 2690, -11310, -169, 4587, 1095, -536, -56, 3224, -811, 49, 132, 197, 146, 53, 107, 47, 122
472016952, 11543, 2690, -11310, -169, 4587, 1095, -536, -56, 3224, -811, 48, 105, 350, 291, 72, 74, 34, 52
472017755, 11543, 2690, -11310, -169, 4587, 1095, -536, -56, 3224, -811, 48, 105, 350, 291, 72, 74, 34, 52
472031345, 11949, 2758, -10863, -214, 4515, 1084, -657, -340, 3418, -848, 48, 105, 350, 291, 72, 74, 34, 52
472039421, 11949, 2758, -10863, -214, 4515, 1084, -657, -340, 3418, -848, 50, 115, 374, 303, 77, 48, 29, 51
472040250, 11949, 2758, -10863, -214, 4515, 1084, -657, -340, 3418, -848, 50, 115, 374, 303, 77, 48, 29, 51
472055152, 12355, 2793, -10388, -276, 4392, 1116, -683, -548, 3566, -821, 50, 115, 374, 303, 77, 48, 29, 51
472055962, 12355, 2793, -10388, -276, 4392, 1116, -683, -548, 3566, -821, 48, 112, 378, 308, 80, 47, 31, 49
472056765, 12355, 2793, -10388, -276, 4392, 1116, -683, -548, 3566, -821, 48, 112, 378, 308, 80, 47, 31, 49
472068818, 12759, 2800, -9884, -338, 4334, 1025, -643, -681, 3710, -773, 48, 112, 378, 308, 80, 47, 31, 49
472076965, 12759, 2800, -9884, -338, 4334, 1025, -643, -681, 3710, -773, 53, 116, 389, 314, 84, 66, 77, 50
472077793, 12759, 2800, -9884, -338, 4334, 1025, -643, -681, 3710, -773, 53, 116, 389, 314, 84, 66, 77, 50
472091292, 13158, 2774, -9352, -395, 4191, 1046, -739, -821, 3866, -664, 53, 116, 389, 314, 84, 66, 77, 50
472099480, 13158, 2774, -9352, -395, 4191, 1046, -739, -821, 3866, -664, 58, 113, 384, 305, 79, 71, 84, 53
472100265, 13158, 2774, -9352, -395, 4191, 1046, -739, -821, 3866, -664, 58, 113, 384, 305, 79, 71, 84, 53
472115194, 13546, 2721, -8793, -446, 4033, 1036, -833, -930, 4002, -584, 58, 113, 384, 305, 79, 71, 84, 53
472115966, 13546, 2721, -8793, -446, 4033, 1036, -833, -930, 4002, -584, 74, 92, 255, 175, 66, 104, 102, 61
472116818, 13546, 2721, -8793, -446, 4033, 1036, -833, -930, 4002, -584, 74, 92, 255, 175, 66, 104, 102, 61
472128865, 13918, 2637, -8216, -505, 3855, 977, -872, -1098, 4056, -547, 74, 92, 255, 175, 66, 104, 102, 61
472136962, 13918, 2637, -8216, -505, 3855, 977, -872, -1098, 4056, -547, 83, 81, 215, 147, 68, 109, 106, 63
472137739, 13918, 2637, -8216, -505, 3855, 977, -872, -1098, 4056, -547, 83, 81, 215, 147, 68, 109, 106, 63
472151354, 14271, 2486, -7631, -582, 3577, 1010, -893, -1462, 4026, -442, 83, 81, 215, 147, 68, 109, 106, 63
472159436, 14271, 2486, -7631, -582, 3577, 1010, -893, -1462, 4026, -442, 98, 87, 207, 137, 67, 137, 133, 68
472160261, 14271, 2486, -7631, -582, 3577, 1010, -893, -1462, 4026, -442, 98, 87, 207, 137, 67, 137, 133, 68
472175154, 14593, 2295, -7054, -668, 3451, 922, -841, -1649, 3904, -390, 98, 87, 207, 137, 67, 137, 133, 68
472175939, 14593, 2295, -7054, -668, 3451, 922, -841, -1649, 3904, -390, 106, 86, 186, 142, 64, 149, 124, 73
472176803, 14593, 2295, -7054, -668, 3451, 922, -841, -1649, 3904, -390, 106, 86, 186, 142, 64, 149, 124, 73
472188792, 14879, 2089, -6491, -738, 3323, 780, -778, -1649, 3767, -277, 106, 86, 186, 142, 64, 149, 124, 73
472204460, 14879, 2089, -6491, -738, 3323, 780, -778, -1649, 3767, -277, 116, 82, 144, 147, 67, 149, 121, 77
472205255, 14879, 2089, -6491, -738, 3323, 780, -778, -1649, 3767, -277, 116, 82, 144, 147, 67, 149, 121, 77
472211446, 15130, 1889, -5945, -782, 3002, 689, -741, -1520, 3603, -150, 116, 82, 144, 147, 67, 149, 121, 77
472219461, 15130, 1889, -5945, -782, 3002, 689, -741, -1520, 3603, -150, 115, 72, 75, 129, 60, 130, 110, 77
472220304, 15130, 1889, -5945, -782, 3002, 689, -741, -1520, 3603, -150, 115, 72, 75, 129, 60, 130, 110, 77
472234513, 15336, 1710, -5444, -815, 2758, 571, -671, -1342, 3274, -114, 115, 72, 75, 129, 60, 130, 110, 77
472235337, 15336, 1710, -5444, -815, 2758, 571, -671, -1342, 3274, -114, 116, 73, 71, 127, 52, 129, 124, 84
472241305, 15336, 1710, -5444, -815, 2758, 571, -671, -1342, 3274, -114, 116, 73, 71, 127, 52, 129, 124, 84
472248948, 15502, 1552, -5001, -842, 2651, 621, -661, -1185, 2907, -95, 116, 73, 71, 127, 52, 129, 124, 84
472256940, 15502, 1552, -5001, -842, 2651, 621, -661, -1185, 2907, -95, 123, 75, 67, 127, 59, 157, 132, 81
472257777, 15502, 1552, -5001, -842, 2651, 621, -661, -1185, 2907, -95, 123, 75, 67, 127, 59, 157, 132, 81
472271266, 15635, 1410, -4610, -859, 2479, 691, -614, -1057, 2566, -35, 123, 75, 67, 127, 59, 157, 132, 81
472279479, 15635, 1410, -4610, -859, 2479, 691, -614, -1057, 2566, -35, 120, 79, 68, 104, 78, 140, 123, 77
472280264, 15635, 1410, -4610, -859, 2479, 691, -614, -1057, 2566, -35, 120, 79, 68, 104, 78, 140, 123, 77
472293829, 15743, 1270, -4267, -863, 2243, 662, -529, -996, 2252, 59, 120, 79, 68, 104, 78, 140, 123, 77
472301982, 15743, 1270, -4267, -863, 2243, 662, -529, -996, 2252, 59, 117, 78, 81, 81, 83, 148, 147, 76
472302740, 15743, 1270, -4267, -863, 2243, 662, -529, -996, 2252, 59, 117, 78, 81, 81, 83, 148, 147, 76
472308903, 15827, 1146, -3986, -855, 2075, 675, -499, -866, 1875, 121, 117, 78, 81, 81, 83, 148, 147, 76
472316940, 15827, 1146, -3986, -855, 2075, 675, -499, -866, 1875, 121, 121, 97, 141, 123, 90, 154, 164, 85
472317802, 15827, 1146, -3986, -855, 2075, 675, -499, -866, 1875, 121, 121, 97, 141, 123, 90, 154, 164, 85
472331286, 15851, 1085, -3910, -840, 1983, 672, -471, -701, 1487, 142, 121, 97, 141, 123, 90, 154, 164, 85
472339441, 15851, 1085, -3910, -840, 1983, 672, -471, -701, 1487, 142, 117, 105, 240, 203, 93, 155, 159, 79
472340266, 15851, 1085, -3910, -840, 1983, 672, -471, -701, 1487, 142, 117, 105, 240, 203, 93, 155, 159, 79
472353830, 15862, 1034, -3880, -825, 1928, 679, -419, -625, 1187, 151, 117, 105, 240, 203, 93, 155, 159, 79
472361921, 15862, 1034, -3880, -825, 1928, 679, -419, -625, 1187, 151, 128, 120, 268, 218, 89, 98, 150, 79
472362747, 15862, 1034, -3880, -825, 1928, 679, -419, -625, 1187, 151, 128, 120, 268, 218, 89, 98, 150, 79
472368896, 15867, 990, -3878, -808, 1835, 675, -312, -566, 959, 173, 128, 120, 268, 218, 89, 98, 150, 79
472376939, 15867, 990, -3878, -808, 1835, 675, -312, -566, 959, 173, 135, 123, 314, 229, 86, 131, 156, 83
472377759, 15867, 990, -3878, -808, 1835, 675, -312, -566, 959, 173, 135, 123, 314, 229, 86, 131, 156, 83
472391346, 15862, 947, -3912, -795, 1792, 567, -262, -499, 719, 144, 135, 123, 314, 229, 86, 131, 156, 83
472399798, 15862, 947, -3912, -795, 1792, 567, -262, -499, 719, 144, 135, 124, 336, 235, 82, 121, 134, 81
472406299, 15862, 947, -3912, -795, 1792, 567, -262, -499, 719, 144, 135, 124, 336, 235, 82, 121, 134, 81
472413901, 15848, 915, -3975, -790, 1758, 533, -220, -413, 523, 96, 135, 124, 336, 235, 82, 121, 134, 81
472421952, 15848, 915, -3975, -790, 1758, 533, -220, -413, 523, 96, 127, 114, 331, 222, 82, 116, 110, 63
472422739, 15848, 915, -3975, -790, 1758, 533, -220, -413, 523, 96, 127, 114, 331, 222, 82, 116, 110, 63
472428933, 15826, 916, -4065, -779, 1690, 602, -232, -253, 346, 109, 127, 114, 331, 222, 82, 116, 110, 63
472436948, 15826, 916, -4065, -779, 1690, 602, -232, -253, 346, 109, 122, 110, 302, 188, 78, 114, 99, 58
472437790, 15826, 916, -4065, -779, 1690, 602, -232, -253, 346, 109, 122, 110, 302, 188, 78, 114, 99, 58
472451295, 15797, 929, -4175, -770, 1712, 557, -227, -157, 231, 83, 122, 110, 302, 188, 78, 114, 99, 58
472459442, 15797, 929, -4175, -770, 1712, 557, -227, -157, 231, 83, 87, 91, 345, 189, 84, 112, 61, 51
472460239, 15797, 929, -4175, -770, 1712, 557, -227, -157, 231, 83, 87, 91, 345, 189, 84, 112, 61, 51
472473829, 15763, 934, -4298, -780, 1806, 513, -158, -192, 165, -25, 87, 91, 345, 189, 84, 112, 61, 51
472481914, 15763, 934, -4298, -780, 1806, 513, -158, -192, 165, -25, 73, 99, 344, 190, 79, 110, 80, 58
472482780, 15763, 934, -4298, -780, 1806, 513, -158, -192, 165, -25, 73, 99, 344, 190, 79, 110, 80, 58
472488912, 15732, 924, -4410, -794, 1796, 519, -100, -282, 198, -25, 73, 99, 344, 190, 79, 110, 80, 58
472496956, 15732, 924, -4410, -794, 1796, 519, -100, -282, 198, -25, 63, 119, 338, 200, 88, 128, 85, 61
472497738, 15732, 924, -4410, -794, 1796, 519, -100, -282, 198, -25, 63, 119, 338, 200, 88, 128, 85, 61
472511344, 15706, 899, -4503, -803, 1742, 498, -42, -344, 262, 27, 63, 119, 338, 200, 88, 128, 85, 61
472519457, 15706, 899, -4503, -803, 1742, 498, -42, -344, 262, 27, 96, 198, 381, 207, 109, 154, 97, 82
472520268, 15706, 899, -4503, -803, 1742, 498, -42, -344, 262, 27, 96, 198, 381, 207, 109, 154, 97, 82
472533845, 15682, 860, -4596, -793, 1717, 316, -126, -315, 276, 102, 96, 198, 381, 207, 109, 154, 97, 82
472541939, 15682, 860, -4596, -793, 1717, 316, -126, -315, 276, 102, 163, 288, 395, 184, 147, 233, 112, 217
472542720, 15682, 860, -4596, -793, 1717, 316, -126, -315, 276, 102, 163, 288, 395, 184, 147, 233, 112, 217
472548897, 15661, 834, -4679, -751, 1587, 221, -99, -154, 269, 241, 163, 288, 395, 184, 147, 233, 112, 217
472564403, 15661, 834, -4679, -751, 1587, 221, -99, -154, 269, 241, 175, 339, 435, 275, 232, 331, 154, 237
472565236, 15661, 834, -4679, -751, 1587, 221, -99, -154, 269, 241, 175, 339, 435, 275, 232, 331, 154, 237
472571394, 15631, 805, -4782, -763, 1550, 1246, -251, -717, 158, 270, 175, 339, 435, 275, 232, 331, 154, 237
472579424, 15631, 805, -4782, -763, 1550, 1246, -251, -717, 158, 270, 192, 372, 469, 270, 294, 373, 185, 255
472580248, 15631, 805, -4782, -763, 1550, 1246, -251, -717, 158, 270, 192, 372, 469, 270, 294, 373, 185, 255
472593815, 15581, 737, -4957, -749, 1736, -36, -180, -275, -206, 102, 192, 372, 469, 270, 294, 373, 185, 255
472601900, 15581, 737, -4957, -749, 1736, -36, -180, -275, -206, 102, 271, 386, 494, 271, 297, 389, 237, 398
472602691, 15581, 737, -4957, -749, 1736, -36, -180, -275, -206, 102, 271, 386, 494, 271, 297, 389, 237, 398
472608867, 15535, 663, -5105, -775, 2253, 158, 23, -456, 88, -73, 271, 386, 494, 271, 297, 389, 237, 398
472624416, 15535, 663, -5105, -775, 2253, 158, 23, -456, 88, -73, 617, 498, 498, 288, 309, 409, 295, 470
472625214, 15535, 663, -5105, -775, 2253, 158, 23, -456, 88, -73, 617, 498, 498, 288, 309, 409, 295, 470
472631396, 15521, 645, -5145, -806, 1805, 222, 210, -224, 468, -163, 617, 498, 498, 288, 309, 409, 295, 470
472639415, 15521, 645, -5145, -806, 1805, 222, 210, -224, 468, -163, 751, 607, 538, 338, 378, 434, 479, 518
472640240, 15521, 645, -5145, -806, 1805, 222, 210, -224, 468, -163, 751, 607, 538, 338, 378, 434, 479, 518
472653815, 15512, 668, -5164, -825, 1455, 207, 157, 16, 466, -154, 751, 607, 538, 338, 378, 434, 479, 518
472661916, 15512, 668, -5164, -825, 1455, 207, 157, 16, 466, -154, 814, 592, 492, 397, 611, 545, 520, 525
472662728, 15512, 668, -5164, -825, 1455, 207, 157, 16, 466, -154, 814, 592, 492, 397, 611, 545, 520, 525
472668890, 15493, 722, -5217, -816, 1471, 170, 114, 253, 301, -81, 814, 592, 492, 397, 611, 545, 520, 525
472684439, 15493, 722, -5217, -816, 1471, 170, 114, 253, 301, -81, 883, 587, 470, 481, 655, 560, 529, 548
472685293, 15493, 722, -5217, -816, 1471, 170, 114, 253, 301, -81, 883, 587, 470, 481, 655, 560, 529, 548
472691439, 15454, 803, -5318, -810, 1358, 438, -136, 285, 43, -45, 883, 587, 470, 481, 655, 560, 529, 548
472698747, 15454, 803, -5318, -810, 1358, 438, -136, 285, 43, -45, 920, 605, 469, 492, 679, 554, 514, 469
472706241, 15454, 803, -5318, -810, 1358, 438, -136, 285, 43, -45, 920, 605, 469, 492, 679, 554, 514, 469
472713871, 15403, 860, -5452, -835, 1517, 617, -110, 36, -116, -113, 920, 605, 469, 492, 679, 554, 514, 469
472721906, 15403, 860, -5452, -835, 1517, 617, -110, 36, -116, -113, 760, 512, 440, 489, 677, 539, 487, 406
472722711, 15403, 860, -5452, -835, 1517, 617, -110, 36, -116, -113, 760, 512, 440, 489, 677, 539, 487, 406
472728864, 15354, 875, -5578, -895, 1686, 626, 151, -226, -119, -235, 760, 512, 440, 489, 677, 539, 487, 406
472744407, 15354, 875, -5578, -895, 1686, 626, 151, -226, -119, -235, 637, 338, 368, 470, 649, 499, 309, 296
472745214, 15354, 875, -5578, -895, 1686, 626, 151, -226, -119, -235, 637, 338, 368, 470, 649, 499, 309, 296
472751393, 15326, 831, -5655, -938, 1593, 184, 214, -342, 96, -182, 637, 338, 368, 470, 649, 499, 309, 296
472758760, 15326, 831, -5655, -938, 1593, 184, 214, -342, 96, -182, 564, 339, 346, 383, 407, 299, 213, 285
472766249, 15326, 831, -5655, -938, 1593, 184, 214, -342, 96, -182, 564, 339, 346, 383, 407, 299, 213, 285
472773866, 15297, 839, -5730, -943, 1439, 112, 162, 31, 84, -93, 564, 339, 346, 383, 407, 299, 213, 285
472781925, 15297, 839, -5730, -943, 1439, 112, 162, 31, 84, -93, 446, 314, 305, 277, 277, 190, 143, 217
472782739, 15297, 839, -5730, -943, 1439, 112, 162, 31, 84, -93, 446, 314, 305, 277, 277, 190, 143, 217
472788912, 15257, 921, -5824, -935, 1385, 222, 130, 405, -28, -137, 446, 314, 305, 277, 277, 190, 143, 217
472804408, 15257, 921, -5824, -935, 1385, 222, 130, 405, -28, -137, 316, 252, 254, 267, 208, 163, 121, 191
472805217, 15257, 921, -5824, -935, 1385, 222, 130, 405, -28, -137, 316, 252, 254, 267, 208, 163, 121, 191
472811370, 15213, 1015, -5927, -911, 1475, 353, 140, 454, -54, -34, 316, 252, 254, 267, 208, 163, 121, 191
472826919, 15213, 1015, -5927, -911, 1475, 353, 140, 454, -54, -34, 239, 216, 229, 258, 187, 166, 106, 189
472827736, 15213, 1015, -5927, -911, 1475, 353, 140, 454, -54, -34, 239, 216, 229, 258, 187, 166, 106, 189
472833893, 15166, 1085, -6038, -886, 1480, 480, 127, 288, -106, 57, 239, 216, 229, 258, 187, 166, 106, 189
472841916, 15166, 1085, -6038, -886, 1480, 480, 127, 288, -106, 57, 178, 181, 219, 229, 129, 134, 86, 169
472842704, 15166, 1085, -6038, -886, 1480, 480, 127, 288, -106, 57, 178, 181, 219, 229, 129, 134, 86, 169
472848875, 15122, 1119, -6143, -868, 1502, 394, 159, 122, -96, 60, 178, 181, 219, 229, 129, 134, 86, 169
472864392, 15122, 1119, -6143, -868, 1502, 394, 159, 122, -96, 60, 136, 133, 246, 197, 106, 143, 92, 144
472865260, 15122, 1119, -6143, -868, 1502, 394, 159, 122, -96, 60, 136, 133, 246, 197, 106, 143, 92, 144
472871368, 15083, 1138, -6236, -863, 1527, 375, 171, 21, -35, 13, 136, 133, 246, 197, 106, 143, 92, 144
472886929, 15083, 1138, -6236, -863, 1527, 375, 171, 21, -35, 13, 145, 190, 321, 219, 148, 205, 133, 180
472887712, 15083, 1138, -6236, -863, 1527, 375, 171, 21, -35, 13, 145, 190, 321, 219, 148, 205, 133, 180
472893866, 15055, 1150, -6303, -854, 1563, 404, 240, -17, 103, 49, 145, 190, 321, 219, 148, 205, 133, 180
472901912, 15055, 1150, -6303, -854, 1563, 404, 240, -17, 103, 49, 178, 255, 371, 282, 330, 397, 204, 208
472902737, 15055, 1150, -6303, -854, 1563, 404, 240, -17, 103, 49, 178, 255, 371, 282, 330, 397, 204, 208
472908892, 15021, 1179, -6388, -785, 1432, 126, -177, 273, 124, 232, 178, 255, 371, 282, 330, 397, 204, 208
472924388, 15021, 1179, -6388, -785, 1432, 126, -177, 273, 124, 232, 195, 347, 519, 368, 380, 442, 226, 207
472925200, 15021, 1179, -6388, -785, 1432, 126, -177, 273, 124, 232, 195, 347, 519, 368, 380, 442, 226, 207
472931654, 14974, 1201, -6496, -757, 1388, 1027, 24, -162, -139, 396, 195, 347, 519, 368, 380, 442, 226, 207
472946952, 14974, 1201, -6496, -757, 1388, 1027, 24, -162, -139, 396, 252, 370, 557, 387, 386, 466, 242, 357
472947770, 14974, 1201, -6496, -757, 1388, 1027, 24, -162, -139, 396, 252, 370, 557, 387, 386, 466, 242, 357
472953893, 14921, 1166, -6630, -694, 1874, -67, 21, 46, -116, 250, 252, 370, 557, 387, 386, 466, 242, 357
472961888, 14921, 1166, -6630, -694, 1874, -67, 21, 46, -116, 250, 442, 412, 587, 423, 409, 489, 337, 396
472962711, 14921, 1166, -6630, -694, 1874, -67, 21, 46, -116, 250, 442, 412, 587, 423, 409, 489, 337, 396
472968841, 14891, 1171, -6695, -699, 2080, 381, 163, -83, 278, -52, 442, 412, 587, 423, 409, 489, 337, 396
472984372, 14891, 1171, -6695, -699, 2080, 381, 163, -83, 278, -52, 725, 647, 584, 451, 494, 512, 476, 475
472985210, 14891, 1171, -6695, -699, 2080, 381, 163, -83, 278, -52, 725, 647, 584, 451, 494, 512, 476, 475
472991391, 14890, 1166, -6697, -705, 1542, 225, 99, -110, 499, -70, 725, 647, 584, 451, 494, 512, 476, 475
473006949, 14890, 1166, -6697, -705, 1542, 225, 99, -110, 499, -70, 825, 714, 570, 477, 592, 496, 505, 525
473007774, 14890, 1166, -6697, -705, 1542, 225, 99, -110, 499, -70, 825, 714, 570, 477, 592, 496, 505, 525
473013892, 14880, 1207, -6711, -713, 1398, 474, 94, 36, 370, -70, 825, 714, 570, 477, 592, 496, 505, 525
473021867, 14880, 1207, -6711, -713, 1398, 474, 94, 36, 370, -70, 932, 754, 485, 429, 701, 532, 521, 648
473022690, 14880, 1207, -6711, -713, 1398, 474, 94, 36, 370, -70, 932, 754, 485, 429, 701, 532, 521, 648
473028892, 14847, 1275, -6772, -705, 1325, 230, -165, 298, 167, -131, 932, 754, 485, 429, 701, 532, 521, 648
473044444, 14847, 1275, -6772, -705, 1325, 230, -165, 298, 167, -131, 977, 779, 493, 425, 709, 522, 520, 610
473045239, 14847, 1275, -6772, -705, 1325, 230, -165, 298, 167, -131, 977, 779, 493, 425, 709, 522, 520, 610
473051417, 14803, 1345, -6854, -721, 1504, 629, -43, 134, 28, -110, 977, 779, 493, 425, 709, 522, 520, 610
473066913, 14803, 1345, -6854, -721, 1504, 629, -43, 134, 28, -110, 931, 780, 501, 410, 709, 507, 464, 589
473067768, 14803, 1345, -6854, -721, 1504, 629, -43, 134, 28, -110, 931, 780, 501, 410, 709, 507, 464, 589
473073892, 14744, 1379, -6966, -788, 1708, 841, -68, -223, -115, -217, 931, 780, 501, 410, 709, 507, 464, 589
473081954, 14744, 1379, -6966, -788, 1708, 841, -68, -223, -115, -217, 766, 630, 485, 384, 666, 479, 314, 525
473082739, 14744, 1379, -6966, -788, 1708, 841, -68, -223, -115, -217, 766, 630, 485, 384, 666, 479, 314, 525
473088899, 14717, 1338, -7023, -840, 1533, 247, 172, -367, 60, -202, 766, 630, 485, 384, 666, 479, 314, 525
473104437, 14717, 1338, -7023, -840, 1533, 247, 172, -367, 60, -202, 657, 533, 457, 287, 503, 365, 214, 472
473105239, 14717, 1338, -7023, -840, 1533, 247, 172, -367, 60, -202, 657, 533, 457, 287, 503, 365, 214, 472
473111418, 14700, 1295, -7068, -846, 1443, 122, 187, -235, 123, -8, 657, 533, 457, 287, 503, 365, 214, 472
473126927, 14700, 1295, -7068, -846, 1443, 122, 187, -235, 123, -8, 490, 414, 493, 290, 291, 227, 137, 276
473127733, 14700, 1295, -7068, -846, 1443, 122, 187, -235, 123, -8, 490, 414, 493, 290, 291, 227, 137, 276
473133867, 14659, 1320, -7150, -822, 1390, 142, 43, 185, -53, -1, 490, 414, 493, 290, 291, 227, 137, 276
473141936, 14659, 1320, -7150, -822, 1390, 142, 43, 185, -53, -1, 354, 338, 471, 289, 285, 225, 127, 196
473142737, 14659, 1320, -7150, -822, 1390, 142, 43, 185, -53, -1, 354, 338, 471, 289, 285, 225, 127, 196
473148896, 14608, 1384, -7245, -788, 1456, 277, 114, 372, -142, 7, 354, 338, 471, 289, 285, 225, 127, 196
473164435, 14608, 1384, -7245, -788, 1456, 277, 114, 372, -142, 7, 283, 281, 403, 278, 256, 218, 158, 180
473165196, 14608, 1384, -7245, -788, 1456, 277, 114, 372, -142, 7, 283, 281, 403, 278, 256, 218, 158, 180
473171347, 14561, 1436, -7332, -767, 1502, 536, 103, 195, -94, 73, 283, 281, 403, 278, 256, 218, 158, 180
473187150, 14561, 1436, -7332, -767, 1502, 536, 103, 195, -94, 73, 175, 149, 374, 254, 196, 180, 142, 164
473187717, 14561, 1436, -7332, -767, 1502, 536, 103, 195, -94, 73, 175, 149, 374, 254, 196, 180, 142, 164
473193917, 14509, 1466, -7427, -776, 1554, 660, 37, -27, -126, 29, 175, 149, 374, 254, 196, 180, 142, 164
473201985, 14509, 1466, -7427, -776, 1554, 660, 37, -27, -126, 29, 133, 123, 408, 262, 186, 168, 140, 134
473202704, 14509, 1466, -7427, -776, 1554, 660, 37, -27, -126, 29, 133, 123, 408, 262, 186, 168, 140, 134
473208939, 14461, 1458, -7519, -799, 1592, 418, 52, -168, -124, -55, 133, 123, 408, 262, 186, 168, 140, 134
473224415, 14461, 1458, -7519, -799, 1592, 418, 52, -168, -124, -55, 121, 172, 357, 250, 183, 201, 142, 122
473225211, 14461, 1458, -7519, -799, 1592, 418, 52, -168, -124, -55, 121, 172, 357, 250, 183, 201, 142, 122
473238869, 14432, 1443, -7578, -802, 1527, 286, 236, -116, -16, 3, 121, 172, 357, 250, 183, 201, 142, 122
473246937, 14432, 1443, -7578, -802, 1527, 286, 236, -116, -16, 3, 159, 323, 446, 271, 247, 376, 201, 283
473247718, 14432, 1443, -7578, -802, 1527, 286, 236, -116, -16, 3, 159, 323, 446, 271, 247, 376, 201, 283
473253862, 14407, 1442, -7631, -732, 1458, 86, 174, 195, 71, 246, 159, 323, 446, 271, 247, 376, 201, 283
473261914, 14407, 1442, -7631, -732, 1458, 86, 174, 195, 71, 246, 185, 510, 590, 282, 344, 541, 238, 520
473262747, 14407, 1442, -7631, -732, 1458, 86, 174, 195, 71, 246, 185, 510, 590, 282, 344, 541, 238, 520
473268881, 14416, 1373, -7635, -654, 1041, 26, 4, -150, 336, 478, 185, 510, 590, 282, 344, 541, 238, 520
473284429, 14416, 1373, -7635, -654, 1041, 26, 4, -150, 336, 478, 261, 631, 752, 379, 432, 610, 297, 663
473285254, 14416, 1373, -7635, -654, 1041, 26, 4, -150, 336, 478, 261, 631, 752, 379, 432, 610, 297, 663
473291395, 14340, 1369, -7785, -568, 1894, 327, -227, 152, -246, 451, 261, 631, 752, 379, 432, 610, 297, 663
473306909, 14340, 1369, -7785, -568, 1894, 327, -227, 152, -246, 451, 361, 805, 927, 665, 519, 712, 373, 733
473307694, 14340, 1369, -7785, -568, 1894, 327, -227, 152, -246, 451, 361, 805, 927, 665, 519, 712, 373, 733
473313875, 14310, 1325, -7844, -609, 2301, 328, 18, -392, 265, -142, 361, 805, 927, 665, 519, 712, 373, 733
473321933, 14310, 1325, -7844, -609, 2301, 328, 18, -392, 265, -142, 516, 891, 1011, 710, 545, 737, 399, 833
473322735, 14310, 1325, -7844, -609, 2301, 328, 18, -392, 265, -142, 516, 891, 1011, 710, 545, 737, 399, 833
473328910, 14337, 1300, -7800, -598, 1314, 159, 157, -143, 599, 54, 516, 891, 1011, 710, 545, 737, 399, 833
473344466, 14337, 1300, -7800, -598, 1314, 159, 157, -143, 599, 54, 520, 866, 991, 712, 563, 720, 425, 863
473345271, 14337, 1300, -7800, -598, 1314, 159, 157, -143, 599, 54, 520, 866, 991, 712, 563, 720, 425, 863
473351394, 14346, 1293, -7786, -570, 1543, 209, 184, -14, 472, 99, 520, 866, 991, 712, 563, 720, 425, 863
473366913, 14346, 1293, -7786, -570, 1543, 209, 184, -14, 472, 99, 559, 781, 918, 709, 594, 736, 535, 790
473367700, 14346, 1293, -7786, -570, 1543, 209, 184, -14, 472, 99, 559, 781, 918, 709, 594, 736, 535, 790
473373898, 14357, 1318, -7762, -550, 1169, 336, 127, 76, 445, 68, 559, 781, 918, 709, 594, 736, 535, 790
473381910, 14357, 1318, -7762, -550, 1169, 336, 127, 76, 445, 68, 553, 715, 810, 672, 560, 712, 558, 693
473382714, 14357, 1318, -7762, -550, 1169, 336, 127, 76, 445, 68, 553, 715, 810, 672, 560, 712, 558, 693
473399023, 14348, 1349, -7775, -539, 1425, 515, 117, 51, 289, 69, 553, 715, 810, 672, 560, 712, 558, 693
473399840, 14348, 1349, -7775, -539, 1425, 515, 117, 51, 289, 69, 553, 715, 810, 672, 560, 712, 558, 693
473400664, 14348, 1349, -7775, -539, 1425, 515, 117, 51, 289, 69, 490, 414, 493, 290, 291, 227, 137, 276
473401482, 14348, 1349, -7775, -539, 1425, 515, 117, 51, 289, 69, 490, 414, 493, 290, 291, 227, 137, 276
473406539, 14659, 1320, -7150, -822, 1390, 142, 43, 185, -53, -1, 490, 414, 493, 290, 291, 227, 137, 276
473407345, 14659, 1320, -7150, -822, 1390, 142, 43, 185, -53, -1, 354, 338, 471, 289, 285, 225, 127, 196
473408188, 14659, 1320, -7150, -822, 1390, 142, 43, 185, -53, -1, 354, 338, 471, 289, 285, 225, 127, 196
473408988, 14659, 1320, -7150, -822, 1390, 142, 43, 185, -53, -1, 354, 338, 471, 289, 285, 225, 127, 196
473413904, 14659, 1320, -7150, -822, 1390, 142, 43, 185, -53, -1, 354, 338, 471, 289, 285, 225, 127, 196
473414744, 14659, 1320, -7150, -822, 1390, 142, 43, 185, -53, -1, 354, 338, 471, 289, 285, 225, 127, 196
473415542, 14659, 1320, -7150, -822, 1390, 142, 43, 185, -53, -1, 354, 338, 471, 289, 285, 225, 127, 196
473416371, 14659, 1320, -7150, -822, 1390, 142, 43, 185, -53, -1, 354, 338, 471, 289, 285, 225, 127, 196
473421455, 14659, 1320, -7150, -822, 1390, 142, 43, 185, -53, -1, 354, 338, 471, 289, 285, 225, 127, 196
473422339, 14608, 1384, -7245, -788, 1456, 277, 114, 372, -142, 7, 354, 338, 471, 289, 285, 225, 127, 196
473423180, 14608, 1384, -7245, -788, 1456, 277, 114, 372, -142, 7, 283, 281, 403, 278, 256, 218, 158, 180
473424005, 14608, 1384, -7245, -788, 1456, 277, 114, 372, -142, 7, 354, 338, 471, 289, 285, 225, 127, 196
473429040, 14608, 1384, -7245, -788, 1456, 277, 114, 372, -142, 7, 283, 281, 403, 278, 256, 218, 158, 180
473429819, 14608, 1384, -7245, -788, 1456, 277, 114, 372, -142, 7, 283, 281, 403, 278, 256, 218, 158, 180
473430672, 14608, 1384, -7245, -788, 1456, 277, 114, 372, -142, 7, 283, 281, 403, 278, 256, 218, 158, 180
473431419, 14608, 1384, -7245, -788, 1456, 277, 114, 372, -142, 7, 283, 281, 403, 278, 256, 218, 158, 180
473436396, 14608, 1384, -7245, -788, 1456, 277, 114, 372, -142, 7, 283, 281, 403, 278, 256, 218, 158, 180
473437188, 14608, 1384, -7245, -788, 1456, 277, 114, 372, -142, 7, 283, 281, 403, 278, 256, 218, 158, 180
473438090, 14608, 1384, -7245, -788, 1456, 277, 114, 372, -142, 7, 283, 281, 403, 278, 256, 218, 158, 180
473438823, 14608, 1384, -7245, -788, 1456, 277, 114, 372, -142, 7, 283, 281, 403, 278, 256, 218, 158, 180
473443921, 14608, 1384, -7245, -788, 1456, 277, 114, 372, -142, 7, 283, 281, 403, 278, 256, 218, 158, 180
473444868, 14561, 1436, -7332, -767, 1502, 536, 103, 195, -94, 73, 283, 281, 403, 278, 256, 218, 158, 180
473445694, 14561, 1436, -7332, -767, 1502, 536, 103, 195, -94, 73, 175, 149, 374, 254, 196, 180, 142, 164
473446467, 14561, 1436, -7332, -767, 1502, 536, 103, 195, -94, 73, 175, 149, 374, 254, 196, 180, 142, 164
473451481, 14561, 1436, -7332, -767, 1502, 536, 103, 195, -94, 73, 175, 149, 374, 254, 196, 180, 142, 164
473452266, 14561, 1436, -7332, -767, 1502, 536, 103, 195, -94, 73, 175, 149, 374, 254, 196, 180, 142, 164
473453061, 14561, 1436, -7332, -767, 1502, 536, 103, 195, -94, 73, 175, 149, 374, 254, 196, 180, 142, 164
473453895, 14561, 1436, -7332, -767, 1502, 536, 103, 195, -94, 73, 175, 149, 374, 254, 196, 180, 142, 164
473458888, 14561, 1436, -7332, -767, 1502, 536, 103, 195, -94, 73, 175, 149, 374, 254, 196, 180, 142, 164
473459650, 14561, 1436, -7332, -767, 1502, 536, 103, 195, -94, 73, 175, 149, 374, 254, 196, 180, 142, 164
473460482, 14561, 1436, -7332, -767, 1502, 536, 103, 195, -94, 73, 175, 149, 374, 254, 196, 180, 142, 164
473461306, 14561, 1436, -7332, -767, 1502, 536, 103, 195, -94, 73, 175, 149, 374, 254, 196, 180, 142, 164
473466414, 14561, 1436, -7332, -767, 1502, 536, 103, 195, -94, 73, 175, 149, 374, 254, 196, 180, 142, 164
473467407, 14509, 1466, -7427, -776, 1554, 660, 37, -27, -126, 29, 175, 149, 374, 254, 196, 180, 142, 164
473468186, 14509, 1466, -7427, -776, 1554, 660, 37, -27, -126, 29, 133, 123, 408, 262, 186, 168, 140, 134
473469001, 14509, 1466, -7427, -776, 1554, 660, 37, -27, -126, 29, 133, 123, 408, 262, 186, 168, 140, 134
473474012, 14509, 1466, -7427, -776, 1554, 660, 37, -27, -126, 29, 133, 123, 408, 262, 186, 168, 140, 134
473474800, 14509, 1466, -7427, -776, 1554, 660, 37, -27, -126, 29, 133, 123, 408, 262, 186, 168, 140, 134
473475640, 14509, 1466, -7427, -776, 1554, 660, 37, -27, -126, 29, 133, 123, 408, 262, 186, 168, 140, 134
473476418, 14509, 1466, -7427, -776, 1554, 660, 37, -27, -126, 29, 133, 123, 408, 262, 186, 168, 140, 134
473481460, 14509, 1466, -7427, -776, 1554, 660, 37, -27, -126, 29, 133, 123, 408, 262, 186, 168, 140, 134
473482212, 14509, 1466, -7427, -776, 1554, 660, 37, -27, -126, 29, 133, 123, 408, 262, 186, 168, 140, 134
473482996, 14509, 1466, -7427, -776, 1554, 660, 37, -27, -126, 29, 133, 123, 408, 262, 186, 168, 140, 134
473483832, 14509, 1466, -7427, -776, 1554, 660, 37, -27, -126, 29, 133, 123, 408, 262, 186, 168, 140, 134
473488967, 14509, 1466, -7427, -776, 1554, 660, 37, -27, -126, 29, 133, 123, 408, 262, 186, 168, 140, 134
473489895, 14461, 1458, -7519, -799, 1592, 418, 52, -168, -124, -55, 133, 123, 408, 262, 186, 168, 140, 134
473490670, 14461, 1458, -7519, -799, 1592, 418, 52, -168, -124, -55, 121, 172, 357, 250, 183, 201, 142, 122
473491451, 14461, 1458, -7519, -799, 1592, 418, 52, -168, -124, -55, 121, 172, 357, 250, 183, 201, 142, 122
473496510, 14461, 1458, -7519, -799, 1592, 418, 52, -168, -124, -55, 121, 172, 357, 250, 183, 201, 142, 122
473497321, 14461, 1458, -7519, -799, 1592, 418, 52, -168, -124, -55, 121, 172, 357, 250, 183, 201, 142, 122
473498120, 14461, 1458, -7519, -799, 1592, 418, 52, -168, -124, -55, 121, 172, 357, 250, 183, 201, 142, 122
473498944, 14461, 1458, -7519, -799, 1592, 418, 52, -168, -124, -55, 121, 172, 357, 250, 183, 201, 142, 122
473503891, 14461, 1458, -7519, -799, 1592, 418, 52, -168, -124, -55, 121, 172, 357, 250, 183, 201, 142, 122
473504766, 14461, 1458, -7519, -799, 1592, 418, 52, -168, -124, -55, 121, 172, 357, 250, 183, 201, 142, 122
473505505, 14461, 1458, -7519, -799, 1592, 418, 52, -168, -124, -55, 121, 172, 357, 250, 183, 201, 142, 122
473506332, 14461, 1458, -7519, -799, 1592, 418, 52, -168, -124, -55, 121, 172, 357, 250, 183, 201, 142, 122
473511409, 14461, 1458, -7519, -799, 1592, 418, 52, -168, -124, -55, 121, 172, 357, 250, 183, 201, 142, 122
473512333, 14432, 1443, -7578, -802, 1527, 286, 236, -116, -16, 3, 121, 172, 357, 250, 183, 201, 142, 122
473513135, 14432, 1443, -7578, -802, 1527, 286, 236, -116, -16, 3, 159, 323, 446, 271, 247, 376, 201, 283
473513930, 14432, 1443, -7578, -802, 1527, 286, 236, -116, -16, 3, 159, 323, 446, 271, 247, 376, 201, 283
473518954, 14432, 1443, -7578, -802, 1527, 286, 236, -116, -16, 3, 159, 323, 446, 271, 247, 376, 201, 283
473519758, 14432, 1443, -7578, -802, 1527, 286, 236, -116, -16, 3, 159, 323, 446, 271, 247, 376, 201, 283
473520665, 14432, 1443, -7578, -802, 1527, 286, 236, -116, -16, 3, 159, 323, 446, 271, 247, 376, 201, 283
473521385, 14432, 1443, -7578, -802, 1527, 286, 236, -116, -16, 3, 159, 323, 446, 271, 247, 376, 201, 283
473526381, 14432, 1443, -7578, -802, 1527, 286, 236, -116, -16, 3, 159, 323, 446, 271, 247, 376, 201, 283
473527148, 14432, 1443, -7578, -802, 1527, 286, 236, -116, -16, 3, 159, 323, 446, 271, 247, 376, 201, 283
473527967, 14432, 1443, -7578, -802, 1527, 286, 236, -116, -16, 3, 159, 323, 446, 271, 247, 376, 201, 283
473528797, 14432, 1443, -7578, -802, 1527, 286, 236, -116, -16, 3, 159, 323, 446, 271, 247, 376, 201, 283
473533954, 14432, 1443, -7578, -802, 1527, 286, 236, -116, -16, 3, 159, 323, 446, 271, 247, 376, 201, 283
473534866, 14407, 1442, -7631, -732, 1458, 86, 174, 195, 71, 246, 159, 323, 446, 271, 247, 376, 201, 283
473535700, 14407, 1442, -7631, -732, 1458, 86, 174, 195, 71, 246, 185, 510, 590, 282, 344, 541, 238, 520
473536494, 14407, 1442, -7631, -732, 1458, 86, 174, 195, 71, 246, 185, 510, 590, 282, 344, 541, 238, 520
473541507, 14407, 1442, -7631, -732, 1458, 86, 174, 195, 71, 246, 185, 510, 590, 282, 344, 541, 238, 520
473542317, 14407, 1442, -7631, -732, 1458, 86, 174, 195, 71, 246, 185, 510, 590, 282, 344, 541, 238, 520
473543157, 14407, 1442, -7631, -732, 1458, 86, 174, 195, 71, 246, 185, 510, 590, 282, 344, 541, 238, 520
473543956, 14407, 1442, -7631, -732, 1458, 86, 174, 195, 71, 246, 185, 510, 590, 282, 344, 541, 238, 520
473547360, 14407, 1442, -7631, -732, 1458, 86, 174, 195, 71, 246, 185, 510, 590, 282, 344, 541, 238, 520
473548141, 14407, 1442, -7631, -732, 1458, 86, 174, 195, 71, 246, 185, 510, 590, 282, 344, 541, 238, 520
473556462, 14407, 1442, -7631, -732, 1458, 86, 174, 195, 71, 246, 185, 510, 590, 282, 344, 541, 238, 520
473557235, 14407, 1442, -7631, -732, 1458, 86, 174, 195, 71, 246, 185, 510, 590, 282, 344, 541, 238, 520
473558007, 14407, 1442, -7631, -732, 1458, 86, 174, 195, 71, 246, 185, 510, 590, 282, 344, 541, 238, 520
473558971, 14416, 1373, -7635, -654, 1041, 26, 4, -150, 336, 478, 185, 510, 590, 282, 344, 541, 238, 520
473563993, 14416, 1373, -7635, -654, 1041, 26, 4, -150, 336, 478, 261, 631, 752, 379, 432, 610, 297, 663
473564757, 14416, 1373, -7635, -654, 1041, 26, 4, -150, 336, 478, 261, 631, 752, 379, 432, 610, 297, 663
473565663, 14416, 1373, -7635, -654, 1041, 26, 4, -150, 336, 478, 261, 631, 752, 379, 432, 610, 297, 663
473566342, 14416, 1373, -7635, -654, 1041, 26, 4, -150, 336, 478, 261, 631, 752, 379, 432, 610, 297, 663
473571459, 14416, 1373, -7635, -654, 1041, 26, 4, -150, 336, 478, 261, 631, 752, 379, 432, 610, 297, 663
473572174, 14416, 1373, -7635, -654, 1041, 26, 4, -150, 336, 478, 261, 631, 752, 379, 432, 610, 297, 663
473573020, 14416, 1373, -7635, -654, 1041, 26, 4, -150, 336, 478, 261, 631, 752, 379, 432, 610, 297, 663
473573798, 14416, 1373, -7635, -654, 1041, 26, 4, -150, 336, 478, 261, 631, 752, 379, 432, 610, 297, 663
473578938, 14416, 1373, -7635, -654, 1041, 26, 4, -150, 336, 478, 261, 631, 752, 379, 432, 610, 297, 663
473579866, 14340, 1369, -7785, -568, 1894, 327, -227, 152, -246, 451, 261, 631, 752, 379, 432, 610, 297, 663
473580705, 14340, 1369, -7785, -568, 1894, 327, -227, 152, -246, 451, 361, 805, 927, 665, 519, 712, 373, 733
473581492, 14340, 1369, -7785, -568, 1894, 327, -227, 152, -246, 451, 361, 805, 927, 665, 519, 712, 373, 733
473585606, 14340, 1369, -7785, -568, 1894, 327, -227, 152, -246, 451, 361, 805, 927, 665, 519, 712, 373, 733
473586400, 14340, 1369, -7785, -568, 1894, 327, -227, 152, -246, 451, 361, 805, 927, 665, 519, 712, 373, 733
473587229, 14340, 1369, -7785, -568, 1894, 327, -227, 152, -246, 451, 361, 805, 927, 665, 519, 712, 373, 733
473593911, 14340, 1369, -7785, -568, 1894, 327, -227, 152, -246, 451, 361, 805, 927, 665, 519, 712, 373, 733
473594714, 14340, 1369, -7785, -568, 1894, 327, -227, 152, -246, 451, 361, 805, 927, 665, 519, 712, 373, 733
473595539, 14340, 1369, -7785, -568, 1894, 327, -227, 152, -246, 451, 361, 805, 927, 665, 519, 712, 373, 733
473596332, 14340, 1369, -7785, -568, 1894, 327, -227, 152, -246, 451, 361, 805, 927, 665, 519, 712, 373, 733
473601404, 14340, 1369, -7785, -568, 1894, 327, -227, 152, -246, 451, 361, 805, 927, 665, 519, 712, 373, 733
473602236, 14340, 1369, -7785, -568, 1894, 327, -227, 152, -246, 451, 361, 805, 927, 665, 519, 712, 373, 733
473603130, 14310, 1325, -7844, -609, 2301, 328, 18, -392, 265, -142, 361, 805, 927, 665, 519, 712, 373, 733
473603959, 14310, 1325, -7844, -609, 2301, 328, 18, -392, 265, -142, 516, 891, 1011, 710, 545, 737, 399, 833
473609006, 14310, 1325, -7844, -609, 2301, 328, 18, -392, 265, -142, 516, 891, 1011, 710, 545, 737, 399, 833
473609802, 14310, 1325, -7844, -609, 2301, 328, 18, -392, 265, -142, 516, 891, 1011, 710, 545, 737, 399, 833
473610686, 14310, 1325, -7844, -609, 2301, 328, 18, -392, 265, -142, 516, 891, 1011, 710, 545, 737, 399, 833
473611368, 14310, 1325, -7844, -609, 2301, 328, 18, -392, 265, -142, 516, 891, 1011, 710, 545, 737, 399, 833
473616392, 14310, 1325, -7844, -609, 2301, 328, 18, -392, 265, -142, 516, 891, 1011, 710, 545, 737, 399, 833
473617189, 14310, 1325, -7844, -609, 2301, 328, 18, -392, 265, -142, 516, 891, 1011, 710, 545, 737, 399, 833
473618030, 14310, 1325, -7844, -609, 2301, 328, 18, -392, 265, -142, 516, 891, 1011, 710, 545, 737, 399, 833
473618814, 14310, 1325, -7844, -609, 2301, 328, 18, -392, 265, -142, 516, 891, 1011, 710, 545, 737, 399, 833
473623887, 14310, 1325, -7844, -609, 2301, 328, 18, -392, 265, -142, 516, 891, 1011, 710, 545, 737, 399, 833
473624833, 14337, 1300, -7800, -598, 1314, 159, 157, -143, 599, 54, 516, 891, 1011, 710, 545, 737, 399, 833
473625679, 14337, 1300, -7800, -598, 1314, 159, 157, -143, 599, 54, 520, 866, 991, 712, 563, 720, 425, 863
473626482, 14337, 1300, -7800, -598, 1314, 159, 157, -143, 599, 54, 520, 866, 991, 712, 563, 720, 425, 863
473631439, 14337, 1300, -7800, -598, 1314, 159, 157, -143, 599, 54, 520, 866, 991, 712, 563, 720, 425, 863
473632305, 14337, 1300, -7800, -598, 1314, 159, 157, -143, 599, 54, 520, 866, 991, 712, 563, 720, 425, 863
473633088, 14337, 1300, -7800, -598, 1314, 159, 157, -143, 599, 54, 520, 866, 991, 712, 563, 720, 425, 863
473633917, 14337, 1300, -7800, -598, 1314, 159, 157, -143, 599, 54, 520, 866, 991, 712, 563, 720, 425, 863
473638871, 14337, 1300, -7800, -598, 1314, 159, 157, -143, 599, 54, 520, 866, 991, 712, 563, 720, 425, 863
473639707, 14337, 1300, -7800, -598, 1314, 159, 157, -143, 599, 54, 520, 866, 991, 712, 563, 720, 425, 863
473640487, 14337, 1300, -7800, -598, 1314, 159, 157, -143, 599, 54, 520, 866, 991, 712, 563, 720, 425, 863
473641358, 14337, 1300, -7800, -598, 1314, 159, 157, -143, 599, 54, 520, 866, 991, 712, 563, 720, 425, 863
473646460, 14337, 1300, -7800, -598, 1314, 159, 157, -143, 599, 54, 520, 866, 991, 712, 563, 720, 425, 863
473647385, 14346, 1293, -7786, -570, 1543, 209, 184, -14, 472, 99, 520, 866, 991, 712, 563, 720, 425, 863
473648188, 14346, 1293, -7786, -570, 1543, 209, 184, -14, 472, 99, 559, 781, 918, 709, 594, 736, 535, 790
473649002, 14346, 1293, -7786, -570, 1543, 209, 184, -14, 472, 99, 559, 781, 918, 709, 594, 736, 535, 790
473653343, 14346, 1293, -7786, -570, 1543, 209, 184, -14, 472, 99, 559, 781, 918, 709, 594, 736, 535, 790
473654174, 14346, 1293, -7786, -570, 1543, 209, 184, -14, 472, 99, 559, 781, 918, 709, 594, 736, 535, 790
473654978, 14346, 1293, -7786, -570, 1543, 209, 184, -14, 472, 99, 559, 781, 918, 709, 594, 736, 535, 790
473655806, 14346, 1293, -7786, -570, 1543, 209, 184, -14, 472, 99, 559, 781, 918, 709, 594, 736, 535, 790
473666929, 14346, 1293, -7786, -570, 1543, 209, 184, -14, 472, 99, 179, 143, 455, 364, 164, 196, 243, 121
473667712, 14346, 1293, -7786, -570, 1543, 209, 184, -14, 472, 99, 179, 143, 455, 364, 164, 196, 243, 121
473673879, 13316, 3520, -8856, 549, 1631, 902, -226, 1572, -410, 281, 179, 143, 455, 364, 164, 196, 243, 121
