Timestamp, Orientation x, Orientation y, Orientation z, Orientation w, Acceleration x, Acceleration y, Acceleration z, Rotation x, Rotation y, Rotation z, EMG 0, EMG 1, EMG 2, EMG 3, EMG 4, EMG 5, EMG 6, EMG 7
487053994, 4432, 2403, -15350, -2720, 4033, 726, -1859, 38, 14, -18, 0, 0, 0, 0, 0, 0, 0, 0
487054803, 4437, 2407, -15349, -2713, 4042, 712, -1866, 36, 34, -11, 0, 0, 0, 0, 0, 0, 0, 0
487068338, 4443, 2413, -15349, -2699, 4043, 785, -1804, 79, 49, -6, 0, 0, 0, 0, 0, 0, 0, 0
487090821, 4443, 2424, -15355, -2657, 4116, 729, -1679, 241, 37, 10, 0, 0, 0, 0, 0, 0, 0, 0
487105816, 4450, 2440, -15357, -2618, 4077, 882, -1669, 225, 77, -16, 0, 0, 0, 0, 0, 0, 0, 0
487121466, 4450, 2440, -15357, -2618, 4077, 882, -1669, 225, 77, -16, 101, 76, 172, 126, 86, 77, 53, 96
487122264, 4450, 2440, -15357, -2618, 4077, 882, -1669, 225, 77, -16, 101, 76, 172, 126, 86, 77, 53, 96
487128452, 4475, 2460, -15352, -2587, 4138, 1224, -1495, 167, 182, -39, 101, 76, 172, 126, 86, 77, 53, 96
487143959, 4475, 2460, -15352, -2587, 4138, 1224, -1495, 167, 182, -39, 132, 136, 385, 232, 113, 80, 57, 136
487144731, 4475, 2460, -15352, -2587, 4138, 1224, -1495, 167, 182, -39, 132, 136, 385, 232, 113, 80, 57, 136
487150892, 4494, 2515, -15350, -2511, 4378, 1126, -999, 465, 215, -160, 132, 136, 385, 232, 113, 80, 57, 136
487167151, 4494, 2515, -15350, -2511, 4378, 1126, -999, 465, 215, -160, 147, 211, 544, 370, 134, 85, 56, 146
487167964, 4494, 2515, -15350, -2511, 4378, 1126, -999, 465, 215, -160, 147, 211, 544, 370, 134, 85, 56, 146
487168898, 4534, 2615, -15334, -2433, 4364, 1001, -979, 510, 389, -385, 147, 211, 544, 370, 134, 85, 56, 146
487181413, 4534, 2615, -15334, -2433, 4364, 1001, -979, 510, 389, -385, 155, 318, 746, 601, 175, 110, 71, 152
487182259, 4534, 2615, -15334, -2433, 4364, 1001, -979, 510, 389, -385, 155, 318, 746, 601, 175, 110, 71, 152
487188390, 4671, 2736, -15275, -2409, 4331, 1398, -1280, 145, 930, -535, 155, 318, 746, 601, 175, 110, 71, 152
487203964, 4671, 2736, -15275, -2409, 4331, 1398, -1280, 145, 930, -535, 179, 353, 798, 647, 200, 130, 80, 162
487204787, 4671, 2736, -15275, -2409, 4331, 1398, -1280, 145, 930, -535, 179, 353, 798, 647, 200, 130, 80, 162
487210916, 4900, 2907, -15168, -2429, 4424, 1407, -918, -134, 1487, -836, 179, 353, 798, 647, 200, 130, 80, 162
487227156, 4900, 2907, -15168, -2429, 4424, 1407, -918, -134, 1487, -836, 191, 349, 801, 660, 207, 130, 108, 172
487227914, 4900, 2907, -15168, -2429, 4424, 1407, -918, -134, 1487, -836, 191, 349, 801, 660, 207, 130, 108, 172
487228895, 5232, 3130, -15006, -2471, 4502, 1264, -725, -309, 2134, -1111, 191, 349, 801, 660, 207, 130, 108, 172
487241461, 5232, 3130, -15006, -2471, 4502, 1264, -725, -309, 2134, -1111, 173, 332, 745, 679, 208, 148, 116, 145
487242270, 5232, 3130, -15006, -2471, 4502, 1264, -725, -309, 2134, -1111, 173, 332, 745, 679, 208, 148, 116, 145
487248412, 5668, 3391, -14784, -2502, 4401, 1239, -610, -350, 2816, -1265, 173, 332, 745, 679, 208, 148, 116, 145
487263970, 5668, 3391, -14784, -2502, 4401, 1239, -610, -350, 2816, -1265, 165, 302, 694, 668, 208, 165, 121, 140
487264739, 5668, 3391, -14784, -2502, 4401, 1239, -610, -350, 2816, -1265, 165, 302, 694, 668, 208, 165, 121, 140
487270933, 6175, 3709, -14505, -2482, 4446, 1241, -355, -109, 3398, -1457, 165, 302, 694, 668, 208, 165, 121, 140
487287140, 6175, 3709, -14505, -2482, 4446, 1241, -355, -109, 3398, -1457, 158, 202, 536, 506, 189, 155, 116, 138
487288005, 6175, 3709, -14505, -2482, 4446, 1241, -355, -109, 3398, -1457, 158, 202, 536, 506, 189, 155, 116, 138
487288914, 6727, 4076, -14171, -2398, 4502, 1287, -175, 211, 3860, -1598, 158, 202, 536, 506, 189, 155, 116, 138
487301417, 6727, 4076, -14171, -2398, 4502, 1287, -175, 211, 3860, -1598, 130, 155, 486, 451, 167, 143, 112, 124
487302221, 6727, 4076, -14171, -2398, 4502, 1287, -175, 211, 3860, -1598, 130, 155, 486, 451, 167, 143, 112, 124
487308382, 7302, 4475, -13785, -2251, 4378, 1317, -221, 509, 4204, -1662, 130, 155, 486, 451, 167, 143, 112, 124
487323889, 7302, 4475, -13785, -2251, 4378, 1317, -221, 509, 4204, -1662, 86, 160, 472, 424, 163, 226, 200, 92
487324726, 7302, 4475, -13785, -2251, 4378, 1317, -221, 509, 4204, -1662, 86, 160, 472, 424, 163, 226, 200, 92
487330916, 7936, 4880, -13320, -2057, 4218, 1461, -245, 671, 4497, -1798, 86, 160, 472, 424, 163, 226, 200, 92
487347119, 7936, 4880, -13320, -2057, 4218, 1461, -245, 671, 4497, -1798, 87, 158, 445, 351, 148, 225, 202, 93
487347957, 7936, 4880, -13320, -2057, 4218, 1461, -245, 671, 4497, -1798, 87, 158, 445, 351, 148, 225, 202, 93
487348889, 8557, 5303, -12793, -1851, 4182, 1535, -116, 745, 4664, -1955, 87, 158, 445, 351, 148, 225, 202, 93
487361439, 8557, 5303, -12793, -1851, 4182, 1535, -116, 745, 4664, -1955, 79, 135, 356, 243, 119, 214, 201, 89
487362275, 8557, 5303, -12793, -1851, 4182, 1535, -116, 745, 4664, -1955, 79, 135, 356, 243, 119, 214, 201, 89
487368423, 9146, 5722, -12221, -1641, 4055, 1512, -168, 765, 4723, -2031, 79, 135, 356, 243, 119, 214, 201, 89
487383956, 9146, 5722, -12221, -1641, 4055, 1512, -168, 765, 4723, -2031, 75, 114, 249, 161, 98, 223, 204, 171
487384746, 9146, 5722, -12221, -1641, 4055, 1512, -168, 765, 4723, -2031, 75, 114, 249, 161, 98, 223, 204, 171
487390943, 9692, 6124, -11617, -1431, 3832, 1529, -240, 760, 4683, -2035, 75, 114, 249, 161, 98, 223, 204, 171
487407163, 9692, 6124, -11617, -1431, 3832, 1529, -240, 760, 4683, -2035, 81, 81, 185, 147, 103, 248, 234, 286
487407951, 9692, 6124, -11617, -1431, 3832, 1529, -240, 760, 4683, -2035, 81, 81, 185, 147, 103, 248, 234, 286
487408868, 10179, 6504, -11002, -1214, 3651, 1500, -290, 811, 4542, -1975, 81, 81, 185, 147, 103, 248, 234, 286
487421430, 10179, 6504, -11002, -1214, 3651, 1500, -290, 811, 4542, -1975, 73, 58, 118, 119, 82, 179, 162, 294
487422214, 10179, 6504, -11002, -1214, 3651, 1500, -290, 811, 4542, -1975, 73, 58, 118, 119, 82, 179, 162, 294
487428358, 10600, 6862, -10392, -1002, 3426, 1548, -329, 853, 4289, -1919, 73, 58, 118, 119, 82, 179, 162, 294
487443931, 10600, 6862, -10392, -1002, 3426, 1548, -329, 853, 4289, -1919, 70, 46, 91, 82, 77, 167, 159, 302
487444714, 10600, 6862, -10392, -1002, 3426, 1548, -329, 853, 4289, -1919, 70, 46, 91, 82, 77, 167, 159, 302
487450906, 10954, 7187, -9804, -809, 3227, 1497, -324, 819, 3941, -1844, 70, 46, 91, 82, 77, 167, 159, 302
487467589, 10954, 7187, -9804, -809, 3227, 1497, -324, 819, 3941, -1844, 81, 46, 70, 61, 77, 179, 168, 311
487468381, 10954, 7187, -9804, -809, 3227, 1497, -324, 819, 3941, -1844, 81, 46, 70, 61, 77, 179, 168, 311
487469317, 11249, 7472, -9253, -647, 3133, 1472, -510, 691, 3558, -1758, 81, 46, 70, 61, 77, 179, 168, 311
487481432, 11249, 7472, -9253, -647, 3133, 1472, -510, 691, 3558, -1758, 83, 42, 65, 53, 68, 164, 185, 301
487482229, 11249, 7472, -9253, -647, 3133, 1472, -510, 691, 3558, -1758, 83, 42, 65, 53, 68, 164, 185, 301
487488408, 11499, 7709, -8748, -500, 2955, 1430, -697, 559, 3227, -1556, 83, 42, 65, 53, 68, 164, 185, 301
487503924, 11499, 7709, -8748, -500, 2955, 1430, -697, 559, 3227, -1556, 83, 40, 59, 48, 57, 150, 179, 340
487504739, 11499, 7709, -8748, -500, 2955, 1430, -697, 559, 3227, -1556, 83, 40, 59, 48, 57, 150, 179, 340
487510889, 11701, 7915, -8291, -358, 2687, 1316, -739, 548, 2885, -1360, 83, 40, 59, 48, 57, 150, 179, 340
487527167, 11701, 7915, -8291, -358, 2687, 1316, -739, 548, 2885, -1360, 90, 48, 45, 35, 53, 132, 170, 390
487527965, 11701, 7915, -8291, -358, 2687, 1316, -739, 548, 2885, -1360, 90, 48, 45, 35, 53, 132, 170, 390
487528918, 11843, 8108, -7899, -223, 2505, 1248, -748, 633, 2445, -1179, 90, 48, 45, 35, 53, 132, 170, 390
487541415, 11843, 8108, -7899, -223, 2505, 1248, -748, 633, 2445, -1179, 94, 51, 40, 38, 52, 131, 165, 486
487542237, 11843, 8108, -7899, -223, 2505, 1248, -748, 633, 2445, -1179, 94, 51, 40, 38, 52, 131, 165, 486
487548363, 11927, 8286, -7582, -96, 2413, 1188, -916, 706, 1978, -968, 94, 51, 40, 38, 52, 131, 165, 486
487563905, 11927, 8286, -7582, -96, 2413, 1188, -916, 706, 1978, -968, 91, 49, 39, 38, 57, 119, 160, 488
487564714, 11927, 8286, -7582, -96, 2413, 1188, -916, 706, 1978, -968, 91, 49, 39, 38, 57, 119, 160, 488
487570856, 11907, 8459, -7423, 73, 2286, 1161, -1063, 715, 1549, -718, 91, 49, 39, 38, 57, 119, 160, 488
487587155, 11907, 8459, -7423, 73, 2286, 1161, -1063, 715, 1549, -718, 87, 49, 38, 39, 58, 118, 136, 474
487587937, 11907, 8459, -7423, 73, 2286, 1161, -1063, 715, 1549, -718, 87, 49, 38, 39, 58, 118, 136, 474
487588889, 11838, 8626, -7336, 229, 2204, 1165, -1126, 777, 1098, -515, 87, 49, 38, 39, 58, 118, 136, 474
487601442, 11838, 8626, -7336, 229, 2204, 1165, -1126, 777, 1098, -515, 83, 42, 58, 65, 52, 75, 93, 391
487602291, 11838, 8626, -7336, 229, 2204, 1165, -1126, 777, 1098, -515, 83, 42, 58, 65, 52, 75, 93, 391
487608416, 11741, 8777, -7307, 377, 2276, 1150, -1207, 751, 779, -370, 83, 42, 58, 65, 52, 75, 93, 391
487623942, 11741, 8777, -7307, 377, 2276, 1150, -1207, 751, 779, -370, 79, 41, 105, 86, 58, 73, 82, 344
487624745, 11741, 8777, -7307, 377, 2276, 1150, -1207, 751, 779, -370, 79, 41, 105, 86, 58, 73, 82, 344
487630932, 11623, 8926, -7307, 516, 2315, 1219, -1372, 724, 626, -293, 79, 41, 105, 86, 58, 73, 82, 344
487647089, 11623, 8926, -7307, 516, 2315, 1219, -1372, 724, 626, -293, 81, 61, 195, 158, 68, 74, 90, 214
487647905, 11623, 8926, -7307, 516, 2315, 1219, -1372, 724, 626, -293, 81, 61, 195, 158, 68, 74, 90, 214
487648841, 11512, 9055, -7315, 628, 2191, 1445, -1336, 588, 495, -195, 81, 61, 195, 158, 68, 74, 90, 214
487661422, 11512, 9055, -7315, 628, 2191, 1445, -1336, 588, 495, -195, 79, 73, 227, 190, 68, 55, 83, 369
487662229, 11512, 9055, -7315, 628, 2191, 1445, -1336, 588, 495, -195, 79, 73, 227, 190, 68, 55, 83, 369
487668387, 11420, 9151, -7333, 707, 1988, 1572, -1185, 392, 339, -83, 79, 73, 227, 190, 68, 55, 83, 369
487683898, 11420, 9151, -7333, 707, 1988, 1572, -1185, 392, 339, -83, 77, 80, 270, 227, 67, 49, 80, 379
487684741, 11420, 9151, -7333, 707, 1988, 1572, -1185, 392, 339, -83, 77, 80, 270, 227, 67, 49, 80, 379
487690870, 11333, 9224, -7369, 769, 1867, 1502, -1250, 221, 246, 1, 77, 80, 270, 227, 67, 49, 80, 379
487707142, 11333, 9224, -7369, 769, 1867, 1502, -1250, 221, 246, 1, 86, 95, 286, 229, 68, 49, 92, 421
487707923, 11333, 9224, -7369, 769, 1867, 1502, -1250, 221, 246, 1, 86, 95, 286, 229, 68, 49, 92, 421
487708895, 11261, 9274, -7413, 814, 1831, 1533, -1296, 39, 207, 38, 86, 95, 286, 229, 68, 49, 92, 421
487720714, 11261, 9274, -7413, 814, 1831, 1533, -1296, 39, 207, 38, 85, 115, 284, 223, 74, 52, 97, 423
487728979, 11261, 9274, -7413, 814, 1831, 1533, -1296, 39, 207, 38, 85, 115, 284, 223, 74, 52, 97, 423
487729913, 11190, 9329, -7446, 855, 1807, 1585, -1113, 135, 165, 7, 85, 115, 284, 223, 74, 52, 97, 423
487743956, 11190, 9329, -7446, 855, 1807, 1585, -1113, 135, 165, 7, 89, 164, 279, 201, 69, 49, 96, 471
487744760, 11190, 9329, -7446, 855, 1807, 1585, -1113, 135, 165, 7, 89, 164, 279, 201, 69, 49, 96, 471
487750918, 11098, 9410, -7476, 908, 1738, 1561, -924, 425, 73, 10, 89, 164, 279, 201, 69, 49, 96, 471
487767088, 11098, 9410, -7476, 908, 1738, 1561, -924, 425, 73, 10, 109, 261, 358, 198, 128, 65, 100, 499
487767919, 11098, 9410, -7476, 908, 1738, 1561, -924, 425, 73, 10, 109, 261, 358, 198, 128, 65, 100, 499
487768841, 10988, 9499, -7518, 955, 1653, 1602, -925, 509, -52, 66, 109, 261, 358, 198, 128, 65, 100, 499
487780768, 10988, 9499, -7518, 955, 1653, 1602, -925, 509, -52, 66, 148, 346, 421, 185, 140, 79, 126, 590
487788917, 10988, 9499, -7518, 955, 1653, 1602, -925, 509, -52, 66, 148, 346, 421, 185, 140, 79, 126, 590
487789869, 10889, 9561, -7578, 999, 1583, 1756, -847, 414, -133, 269, 148, 346, 421, 185, 140, 79, 126, 590
487803888, 10889, 9561, -7578, 999, 1583, 1756, -847, 414, -133, 269, 166, 361, 428, 181, 187, 138, 147, 649
487804741, 10889, 9561, -7578, 999, 1583, 1756, -847, 414, -133, 269, 166, 361, 428, 181, 187, 138, 147, 649
487810877, 10769, 9629, -7658, 1049, 1524, 1760, -805, 553, -272, 383, 166, 361, 428, 181, 187, 138, 147, 649
487827141, 10769, 9629, -7658, 1049, 1524, 1760, -805, 553, -272, 383, 379, 402, 426, 186, 281, 159, 175, 712
487827939, 10769, 9629, -7658, 1049, 1524, 1760, -805, 553, -272, 383, 379, 402, 426, 186, 281, 159, 175, 712
487828892, 10578, 9739, -7770, 1149, 1477, 1756, -719, 1125, -477, 621, 379, 402, 426, 186, 281, 159, 175, 712
487849603, 10578, 9739, -7770, 1149, 1477, 1756, -719, 1125, -477, 621, 426, 408, 455, 245, 297, 210, 249, 715
487850411, 10578, 9739, -7770, 1149, 1477, 1756, -719, 1125, -477, 621, 426, 408, 455, 245, 297, 210, 249, 715
487851363, 10320, 9907, -7876, 1317, 1645, 1770, -829, 1841, -540, 629, 426, 408, 455, 245, 297, 210, 249, 715
487863937, 10320, 9907, -7876, 1317, 1645, 1770, -829, 1841, -540, 629, 509, 359, 394, 242, 298, 248, 286, 758
487864733, 10320, 9907, -7876, 1317, 1645, 1770, -829, 1841, -540, 629, 509, 359, 394, 242, 298, 248, 286, 758
487870866, 9974, 10146, -7980, 1521, 1819, 1762, -1025, 2480, -678, 590, 509, 359, 394, 242, 298, 248, 286, 758
487887114, 9974, 10146, -7980, 1521, 1819, 1762, -1025, 2480, -678, 590, 511, 287, 300, 237, 372, 300, 285, 848
487887966, 9974, 10146, -7980, 1521, 1819, 1762, -1025, 2480, -678, 590, 511, 287, 300, 237, 372, 300, 285, 848
487888865, 9606, 10404, -8054, 1743, 1957, 2224, -1095, 2712, -589, 546, 511, 287, 300, 237, 372, 300, 285, 848
487909617, 9606, 10404, -8054, 1743, 1957, 2224, -1095, 2712, -589, 546, 537, 271, 272, 250, 457, 320, 303, 858
487910414, 9606, 10404, -8054, 1743, 1957, 2224, -1095, 2712, -589, 546, 537, 271, 272, 250, 457, 320, 303, 858
487911382, 9201, 10688, -8097, 1993, 1718, 2174, -1146, 3036, -510, 503, 537, 271, 272, 250, 457, 320, 303, 858
487923915, 9201, 10688, -8097, 1993, 1718, 2174, -1146, 3036, -510, 503, 432, 222, 279, 251, 418, 324, 310, 997
487924779, 9201, 10688, -8097, 1993, 1718, 2174, -1146, 3036, -510, 503, 432, 222, 279, 251, 418, 324, 310, 997
487930974, 8738, 11006, -8110, 2272, 1973, 1841, -1224, 3459, -507, 382, 432, 222, 279, 251, 418, 324, 310, 997
487947064, 8738, 11006, -8110, 2272, 1973, 1841, -1224, 3459, -507, 382, 416, 226, 221, 229, 411, 306, 274, 1012
487947899, 8738, 11006, -8110, 2272, 1973, 1841, -1224, 3459, -507, 382, 416, 226, 221, 229, 411, 306, 274, 1012
487948816, 8316, 11276, -8113, 2509, 2031, 2302, -1471, 3072, -478, 368, 416, 226, 221, 229, 411, 306, 274, 1012
487969616, 8316, 11276, -8113, 2509, 2031, 2302, -1471, 3072, -478, 368, 314, 258, 255, 241, 525, 297, 246, 944
487970415, 8316, 11276, -8113, 2509, 2031, 2302, -1471, 3072, -478, 368, 314, 258, 255, 241, 525, 297, 246, 944
487971378, 8036, 11440, -8123, 2641, 1788, 3165, -1678, 1980, -392, 379, 314, 258, 255, 241, 525, 297, 246, 944
487983938, 8036, 11440, -8123, 2641, 1788, 3165, -1678, 1980, -392, 379, 313, 258, 261, 264, 558, 314, 270, 837
487984780, 8036, 11440, -8123, 2641, 1788, 3165, -1678, 1980, -392, 379, 313, 258, 261, 264, 558, 314, 270, 837
487990891, 7787, 11594, -8119, 2728, 1852, 2736, -1704, 1707, -441, 155, 313, 258, 261, 264, 558, 314, 270, 837
488007122, 7787, 11594, -8119, 2728, 1852, 2736, -1704, 1707, -441, 155, 277, 256, 265, 261, 539, 277, 244, 848
488007937, 7787, 11594, -8119, 2728, 1852, 2736, -1704, 1707, -441, 155, 277, 256, 265, 261, 539, 277, 244, 848
488008868, 7492, 11781, -8083, 2856, 2159, 2246, -1585, 2110, -391, 27, 277, 256, 265, 261, 539, 277, 244, 848
488029682, 7492, 11781, -8083, 2856, 2159, 2246, -1585, 2110, -391, 27, 262, 241, 256, 278, 555, 280, 224, 721
488030430, 7492, 11781, -8083, 2856, 2159, 2246, -1585, 2110, -391, 27, 262, 241, 256, 278, 555, 280, 224, 721
488031366, 7167, 11978, -8022, 3036, 2058, 2215, -1642, 2430, -210, 69, 262, 241, 256, 278, 555, 280, 224, 721
488052100, 7167, 11978, -8022, 3036, 2058, 2215, -1642, 2430, -210, 69, 211, 194, 216, 257, 649, 286, 212, 703
488052905, 7167, 11978, -8022, 3036, 2058, 2215, -1642, 2430, -210, 69, 211, 194, 216, 257, 649, 286, 212, 703
488053841, 6854, 12165, -7945, 3212, 1934, 2662, -1848, 2399, -122, 69, 211, 194, 216, 257, 649, 286, 212, 703
488066421, 6854, 12165, -7945, 3212, 1934, 2662, -1848, 2399, -122, 69, 210, 140, 138, 323, 612, 352, 252, 709
488067232, 6854, 12165, -7945, 3212, 1934, 2662, -1848, 2399, -122, 69, 210, 140, 138, 323, 612, 352, 252, 709
488073367, 6592, 12333, -7844, 3366, 1930, 2808, -1890, 2130, -4, -69, 210, 140, 138, 323, 612, 352, 252, 709
488089704, 6592, 12333, -7844, 3366, 1930, 2808, -1890, 2130, -4, -69, 207, 132, 136, 345, 706, 353, 261, 781
488090444, 6592, 12333, -7844, 3366, 1930, 2808, -1890, 2130, -4, -69, 207, 132, 136, 345, 706, 353, 261, 781
488091405, 6315, 12513, -7702, 3556, 1980, 2448, -1866, 2353, 179, -206, 207, 132, 136, 345, 706, 353, 261, 781
488112121, 6315, 12513, -7702, 3556, 1980, 2448, -1866, 2353, 179, -206, 210, 148, 142, 385, 766, 399, 309, 776
488112961, 6315, 12513, -7702, 3556, 1980, 2448, -1866, 2353, 179, -206, 210, 148, 142, 385, 766, 399, 309, 776
488113865, 5961, 12712, -7532, 3818, 1963, 2159, -1886, 2932, 320, -149, 210, 148, 142, 385, 766, 399, 309, 776
488126442, 5961, 12712, -7532, 3818, 1963, 2159, -1886, 2932, 320, -149, 218, 158, 146, 562, 914, 561, 325, 706
488127253, 5961, 12712, -7532, 3818, 1963, 2159, -1886, 2932, 320, -149, 218, 158, 146, 562, 914, 561, 325, 706
488133403, 5463, 12932, -7335, 4187, 1877, 1931, -1927, 3911, 453, 88, 218, 158, 146, 562, 914, 561, 325, 706
488149592, 5463, 12932, -7335, 4187, 1877, 1931, -1927, 3911, 453, 88, 223, 177, 152, 667, 934, 604, 349, 718
488150411, 5463, 12932, -7335, 4187, 1877, 1931, -1927, 3911, 453, 88, 223, 177, 152, 667, 934, 604, 349, 718
488151344, 4796, 13188, -7069, 4639, 2042, 1778, -2300, 5034, 484, 88, 223, 177, 152, 667, 934, 604, 349, 718
488172110, 4796, 13188, -7069, 4639, 2042, 1778, -2300, 5034, 484, 88, 211, 177, 177, 676, 1037, 640, 346, 779
488172937, 4796, 13188, -7069, 4639, 2042, 1778, -2300, 5034, 484, 88, 211, 177, 177, 676, 1037, 640, 346, 779
488173867, 4116, 13417, -6733, 5113, 2022, 2204, -2773, 5270, 754, -36, 211, 177, 177, 676, 1037, 640, 346, 779
488186396, 4116, 13417, -6733, 5113, 2022, 2204, -2773, 5270, 754, -36, 194, 191, 177, 775, 1121, 656, 345, 785
488187197, 4116, 13417, -6733, 5113, 2022, 2204, -2773, 5270, 754, -36, 194, 191, 177, 775, 1121, 656, 345, 785
488193417, 3564, 13569, -6394, 5544, 1850, 2490, -3000, 4522, 1037, -106, 194, 191, 177, 775, 1121, 656, 345, 785
488209578, 3564, 13569, -6394, 5544, 1850, 2490, -3000, 4522, 1037, -106, 176, 184, 183, 871, 1217, 666, 352, 775
488210393, 3564, 13569, -6394, 5544, 1850, 2490, -3000, 4522, 1037, -106, 176, 184, 183, 871, 1217, 666, 352, 775
488211325, 3192, 13640, -6119, 5892, 1792, 2199, -2935, 3269, 1127, -90, 176, 184, 183, 871, 1217, 666, 352, 775
488232133, 3192, 13640, -6119, 5892, 1792, 2199, -2935, 3269, 1127, -90, 162, 165, 184, 835, 1225, 636, 439, 857
488232961, 3192, 13640, -6119, 5892, 1792, 2199, -2935, 3269, 1127, -90, 162, 165, 184, 835, 1225, 636, 439, 857
488234021, 2981, 13653, -5929, 6163, 1820, 1992, -2742, 2114, 1119, 6, 162, 165, 184, 835, 1225, 636, 439, 857
488245752, 2981, 13653, -5929, 6163, 1820, 1992, -2742, 2114, 1119, 6, 178, 160, 191, 812, 1223, 699, 462, 871
488253953, 2981, 13653, -5929, 6163, 1820, 1992, -2742, 2114, 1119, 6, 178, 160, 191, 812, 1223, 699, 462, 871
488254903, 3014, 13695, -5728, 6243, 2066, 2398, -3143, 1277, 1150, -33, 178, 160, 191, 812, 1223, 699, 462, 871
488269589, 3014, 13695, -5728, 6243, 2066, 2398, -3143, 1277, 1150, -33, 208, 178, 202, 826, 1231, 639, 478, 906
488270454, 3014, 13695, -5728, 6243, 2066, 2398, -3143, 1277, 1150, -33, 208, 178, 202, 826, 1231, 639, 478, 906
488271341, 3035, 13760, -5529, 6269, 1891, 1931, -3289, 1048, 956, -298, 208, 178, 202, 826, 1231, 639, 478, 906
488291826, 3035, 13760, -5529, 6269, 1891, 1931, -3289, 1048, 956, -298, 256, 243, 223, 744, 1117, 617, 505, 884
488292687, 3035, 13760, -5529, 6269, 1891, 1931, -3289, 1048, 956, -298, 256, 243, 223, 744, 1117, 617, 505, 884
488298865, 3064, 13826, -5364, 6252, 1963, 1821, -3292, 792, 706, -267, 256, 243, 223, 744, 1117, 617, 505, 884
488314664, 3064, 13826, -5364, 6252, 1963, 1821, -3292, 792, 706, -267, 282, 255, 230, 653, 1025, 609, 503, 896
488315436, 3064, 13826, -5364, 6252, 1963, 1821, -3292, 792, 706, -267, 282, 255, 230, 653, 1025, 609, 503, 896
488316366, 3098, 13877, -5267, 6205, 1958, 1586, -3342, 444, 556, -75, 282, 255, 230, 653, 1025, 609, 503, 896
488328887, 3098, 13877, -5267, 6205, 1958, 1586, -3342, 444, 556, -75, 290, 257, 226, 602, 1025, 548, 416, 899
488329712, 3098, 13877, -5267, 6205, 1958, 1586, -3342, 444, 556, -75, 290, 257, 226, 602, 1025, 548, 416, 899
488335848, 3219, 13919, -5204, 6103, 2024, 1811, -3352, -103, 406, -83, 290, 257, 226, 602, 1025, 548, 416, 899
488352090, 3219, 13919, -5204, 6103, 2024, 1811, -3352, -103, 406, -83, 284, 245, 220, 567, 1070, 441, 391, 944
488352955, 3219, 13919, -5204, 6103, 2024, 1811, -3352, -103, 406, -83, 284, 245, 220, 567, 1070, 441, 391, 944
488353843, 3389, 13964, -5135, 5965, 2076, 1921, -3453, -391, 330, -249, 284, 245, 220, 567, 1070, 441, 391, 944
488374596, 3389, 13964, -5135, 5965, 2076, 1921, -3453, -391, 330, -249, 280, 232, 191, 503, 1012, 455, 355, 897
488375416, 3389, 13964, -5135, 5965, 2076, 1921, -3453, -391, 330, -249, 280, 232, 191, 503, 1012, 455, 355, 897
488376316, 3562, 14002, -5076, 5823, 2084, 1800, -3407, -536, 276, -298, 280, 232, 191, 503, 1012, 455, 355, 897
488388919, 3562, 14002, -5076, 5823, 2084, 1800, -3407, -536, 276, -298, 254, 161, 161, 462, 1007, 466, 346, 889
488389737, 3562, 14002, -5076, 5823, 2084, 1800, -3407, -536, 276, -298, 254, 161, 161, 462, 1007, 466, 346, 889
488395890, 3726, 14034, -5046, 5666, 1997, 1757, -3447, -644, 195, -194, 254, 161, 161, 462, 1007, 466, 346, 889
488412146, 3726, 14034, -5046, 5666, 1997, 1757, -3447, -644, 195, -194, 250, 130, 133, 419, 1032, 493, 354, 893
488412958, 3726, 14034, -5046, 5666, 1997, 1757, -3447, -644, 195, -194, 250, 130, 133, 419, 1032, 493, 354, 893
488413893, 3868, 14057, -5039, 5520, 2010, 1677, -3365, -643, 133, -82, 250, 130, 133, 419, 1032, 493, 354, 893
488434565, 3868, 14057, -5039, 5520, 2010, 1677, -3365, -643, 133, -82, 246, 131, 124, 397, 1003, 499, 397, 826
488435419, 3868, 14057, -5039, 5520, 2010, 1677, -3365, -643, 133, -82, 246, 131, 124, 397, 1003, 499, 397, 826
488436338, 3970, 14080, -5024, 5401, 2097, 1665, -3315, -407, 129, -45, 246, 131, 124, 397, 1003, 499, 397, 826
488448941, 3970, 14080, -5024, 5401, 2097, 1665, -3315, -407, 129, -45, 251, 149, 124, 338, 912, 468, 401, 806
488449721, 3970, 14080, -5024, 5401, 2097, 1665, -3315, -407, 129, -45, 251, 149, 124, 338, 912, 468, 401, 806
488455858, 4011, 14117, -4996, 5301, 2064, 1729, -3309, -35, 99, 17, 251, 149, 124, 338, 912, 468, 401, 806
488472062, 4011, 14117, -4996, 5301, 2064, 1729, -3309, -35, 99, 17, 255, 157, 119, 320, 867, 447, 404, 817
488472904, 4011, 14117, -4996, 5301, 2064, 1729, -3309, -35, 99, 17, 255, 157, 119, 320, 867, 447, 404, 817
488473816, 4019, 14160, -4958, 5213, 2067, 1804, -3273, 199, 65, 55, 255, 157, 119, 320, 867, 447, 404, 817
488494626, 4019, 14160, -4958, 5213, 2067, 1804, -3273, 199, 65, 55, 235, 133, 101, 317, 857, 412, 362, 808
488495412, 4019, 14160, -4958, 5213, 2067, 1804, -3273, 199, 65, 55, 235, 133, 101, 317, 857, 412, 362, 808
488496342, 4040, 14196, -4939, 5117, 2057, 1895, -3312, 101, 27, 133, 235, 133, 101, 317, 857, 412, 362, 808
488508938, 4040, 14196, -4939, 5117, 2057, 1895, -3312, 101, 27, 133, 198, 127, 100, 310, 824, 338, 312, 793
488509767, 4040, 14196, -4939, 5117, 2057, 1895, -3312, 101, 27, 133, 198, 127, 100, 310, 824, 338, 312, 793
488515892, 4115, 14217, -4943, 4994, 2086, 2046, -3333, -225, -39, 175, 198, 127, 100, 310, 824, 338, 312, 793
488532071, 4115, 14217, -4943, 4994, 2086, 2046, -3333, -225, -39, 175, 186, 122, 91, 257, 678, 262, 285, 790
488532931, 4115, 14217, -4943, 4994, 2086, 2046, -3333, -225, -39, 175, 186, 122, 91, 257, 678, 262, 285, 790
488533838, 4233, 14222, -4965, 4856, 2121, 2060, -3242, -530, -106, 156, 186, 122, 91, 257, 678, 262, 285, 790
488554615, 4233, 14222, -4965, 4856, 2121, 2060, -3242, -530, -106, 156, 206, 105, 76, 220, 632, 255, 266, 736
488555414, 4233, 14222, -4965, 4856, 2121, 2060, -3242, -530, -106, 156, 206, 105, 76, 220, 632, 255, 266, 736
488556368, 4379, 14213, -4986, 4729, 2227, 1962, -3107, -713, -88, 65, 206, 105, 76, 220, 632, 255, 266, 736
488568864, 4379, 14213, -4986, 4729, 2227, 1962, -3107, -713, -88, 65, 201, 108, 76, 216, 558, 233, 255, 675
488569715, 4379, 14213, -4986, 4729, 2227, 1962, -3107, -713, -88, 65, 201, 108, 76, 216, 558, 233, 255, 675
488575855, 4594, 14176, -5006, 4615, 2297, 1990, -2955, -1077, 56, -26, 201, 108, 76, 216, 558, 233, 255, 675
488592077, 4594, 14176, -5006, 4615, 2297, 1990, -2955, -1077, 56, -26, 305, 164, 97, 230, 465, 209, 256, 663
488592889, 4594, 14176, -5006, 4615, 2297, 1990, -2955, -1077, 56, -26, 305, 164, 97, 230, 465, 209, 256, 663
488593823, 4931, 14075, -5065, 4510, 2172, 2235, -2925, -1998, 201, -141, 305, 164, 97, 230, 465, 209, 256, 663
488614567, 4931, 14075, -5065, 4510, 2172, 2235, -2925, -1998, 201, -141, 335, 177, 99, 188, 214, 188, 263, 602
488615370, 4931, 14075, -5065, 4510, 2172, 2235, -2925, -1998, 201, -141, 335, 177, 99, 188, 214, 188, 263, 602
488616332, 5433, 13918, -5152, 4317, 1875, 2421, -2840, -3089, 131, -300, 335, 177, 99, 188, 214, 188, 263, 602
488628886, 5433, 13918, -5152, 4317, 1875, 2421, -2840, -3089, 131, -300, 394, 186, 108, 220, 174, 146, 232, 592
488629700, 5433, 13918, -5152, 4317, 1875, 2421, -2840, -3089, 131, -300, 394, 186, 108, 220, 174, 146, 232, 592
488635844, 6066, 13704, -5267, 4012, 1757, 2476, -2766, -4090, -134, -475, 394, 186, 108, 220, 174, 146, 232, 592
488652122, 6066, 13704, -5267, 4012, 1757, 2476, -2766, -4090, -134, -475, 427, 202, 114, 234, 148, 141, 203, 552
488652926, 6066, 13704, -5267, 4012, 1757, 2476, -2766, -4090, -134, -475, 427, 202, 114, 234, 148, 141, 203, 552
488653847, 6765, 13442, -5379, 3610, 1808, 2439, -2728, -4710, -395, -719, 427, 202, 114, 234, 148, 141, 203, 552
