Timestamp, Orientation x, Orientation y, Orientation z, Orientation w, Acceleration x, Acceleration y, Acceleration z, Rotation x, Rotation y, Rotation z, EMG 0, EMG 1, EMG 2, EMG 3, EMG 4, EMG 5, EMG 6, EMG 7
371276726, 246, 16112, 250, 2948, 3854, 1140, -2433, 19, -1, 11, 0, 0, 0, 0, 0, 0, 0, 0
371277532, 243, 16112, 247, 2947, 3869, 1110, -2419, 15, -8, 20, 0, 0, 0, 0, 0, 0, 0, 0
371298569, 242, 16113, 242, 2942, 3869, 1118, -2442, 3, -28, 27, 0, 0, 0, 0, 0, 0, 0, 0
371313514, 243, 16114, 236, 2938, 3862, 1123, -2444, -13, -26, 34, 0, 0, 0, 0, 0, 0, 0, 0
371336040, 242, 16115, 231, 2936, 3860, 1139, -2451, 2, -9, 28, 0, 0, 0, 0, 0, 0, 0, 0
371344237, 242, 16115, 231, 2936, 3860, 1139, -2451, 2, -9, 28, 57, 42, 54, 72, 80, 62, 46, 81
371344985, 242, 16115, 231, 2936, 3860, 1139, -2451, 2, -9, 28, 57, 42, 54, 72, 80, 62, 46, 81
371358575, 237, 16116, 229, 2931, 3857, 1141, -2467, 22, -30, 13, 57, 42, 54, 72, 80, 62, 46, 81
371366644, 237, 16116, 229, 2931, 3857, 1141, -2467, 22, -30, 13, 60, 37, 53, 71, 82, 63, 48, 84
371367509, 237, 16116, 229, 2931, 3857, 1141, -2467, 22, -30, 13, 60, 37, 53, 71, 82, 63, 48, 84
371373621, 237, 16117, 227, 2924, 3858, 1117, -2451, 0, -39, 10, 60, 37, 53, 71, 82, 63, 48, 84
371389155, 237, 16117, 227, 2924, 3858, 1117, -2451, 0, -39, 10, 52, 37, 48, 58, 80, 69, 52, 81
371389968, 237, 16117, 227, 2924, 3858, 1117, -2451, 0, -39, 10, 52, 37, 48, 58, 80, 69, 52, 81
371396162, 240, 16118, 227, 2919, 3874, 1105, -2421, -19, -31, -3, 52, 37, 48, 58, 80, 69, 52, 81
371404568, 240, 16118, 227, 2919, 3874, 1105, -2421, -19, -31, -3, 57, 39, 47, 51, 78, 66, 54, 90
371411021, 240, 16118, 227, 2919, 3874, 1105, -2421, -19, -31, -3, 57, 39, 47, 51, 78, 66, 54, 90
371418620, 244, 16119, 225, 2914, 3857, 1108, -2425, -23, -31, 9, 57, 39, 47, 51, 78, 66, 54, 90
371434854, 244, 16119, 225, 2914, 3857, 1108, -2425, -23, -31, 9, 55, 36, 41, 40, 45, 62, 54, 84
371435669, 244, 16119, 225, 2914, 3857, 1108, -2425, -23, -31, 9, 55, 36, 41, 40, 45, 62, 54, 84
371436641, 242, 16121, 217, 2905, 3840, 1104, -2423, 0, -52, 44, 55, 36, 41, 40, 45, 62, 54, 84
371451253, 242, 16121, 217, 2905, 3840, 1104, -2423, 0, -52, 44, 55, 36, 34, 34, 43, 59, 51, 89
371452053, 242, 16121, 217, 2905, 3840, 1104, -2423, 0, -52, 44, 55, 36, 34, 34, 43, 59, 51, 89
371452980, 246, 16112, 250, 2948, 3854, 1140, -2433, 19, -1, 11, 55, 36, 34, 34, 43, 59, 51, 89
371453798, 243, 16112, 247, 2947, 3869, 1110, -2419, 15, -8, 20, 55, 36, 34, 34, 43, 59, 51, 89
371458836, 242, 16113, 242, 2942, 3869, 1118, -2442, 3, -28, 27, 55, 36, 34, 34, 43, 59, 51, 89
371459645, 243, 16114, 236, 2938, 3862, 1123, -2444, -13, -26, 34, 55, 36, 34, 34, 43, 59, 51, 89
371460462, 242, 16115, 231, 2936, 3860, 1139, -2451, 2, -9, 28, 55, 36, 34, 34, 43, 59, 51, 89
371461294, 242, 16115, 231, 2936, 3860, 1139, -2451, 2, -9, 28, 57, 42, 54, 72, 80, 62, 46, 81
371466131, 242, 16115, 231, 2936, 3860, 1139, -2451, 2, -9, 28, 57, 42, 54, 72, 80, 62, 46, 81
371466954, 242, 16115, 231, 2936, 3860, 1139, -2451, 2, -9, 28, 57, 42, 54, 72, 80, 62, 46, 81
371467755, 242, 16115, 231, 2936, 3860, 1139, -2451, 2, -9, 28, 57, 42, 54, 72, 80, 62, 46, 81
371468571, 242, 16115, 231, 2936, 3860, 1139, -2451, 2, -9, 28, 57, 42, 54, 72, 80, 62, 46, 81
371473670, 242, 16115, 231, 2936, 3860, 1139, -2451, 2, -9, 28, 57, 42, 54, 72, 80, 62, 46, 81
371474591, 237, 16116, 229, 2931, 3857, 1141, -2467, 22, -30, 13, 57, 42, 54, 72, 80, 62, 46, 81
371475415, 237, 16116, 229, 2931, 3857, 1141, -2467, 22, -30, 13, 60, 37, 53, 71, 82, 63, 48, 84
371476242, 237, 16116, 229, 2931, 3857, 1141, -2467, 22, -30, 13, 60, 37, 53, 71, 82, 63, 48, 84
371481245, 237, 16116, 229, 2931, 3857, 1141, -2467, 22, -30, 13, 60, 37, 53, 71, 82, 63, 48, 84
371482021, 237, 16116, 229, 2931, 3857, 1141, -2467, 22, -30, 13, 60, 37, 53, 71, 82, 63, 48, 84
371482854, 237, 16116, 229, 2931, 3857, 1141, -2467, 22, -30, 13, 60, 37, 53, 71, 82, 63, 48, 84
371483668, 237, 16116, 229, 2931, 3857, 1141, -2467, 22, -30, 13, 60, 37, 53, 71, 82, 63, 48, 84
371488687, 237, 16116, 229, 2931, 3857, 1141, -2467, 22, -30, 13, 60, 37, 53, 71, 82, 63, 48, 84
371489512, 237, 16116, 229, 2931, 3857, 1141, -2467, 22, -30, 13, 60, 37, 53, 71, 82, 63, 48, 84
371490294, 237, 16116, 229, 2931, 3857, 1141, -2467, 22, -30, 13, 60, 37, 53, 71, 82, 63, 48, 84
371491122, 237, 16116, 229, 2931, 3857, 1141, -2467, 22, -30, 13, 60, 37, 53, 71, 82, 63, 48, 84
371496220, 237, 16116, 229, 2931, 3857, 1141, -2467, 22, -30, 13, 60, 37, 53, 71, 82, 63, 48, 84
371497126, 237, 16117, 227, 2924, 3858, 1117, -2451, 0, -39, 10, 60, 37, 53, 71, 82, 63, 48, 84
371497920, 237, 16117, 227, 2924, 3858, 1117, -2451, 0, -39, 10, 52, 37, 48, 58, 80, 69, 52, 81
371498733, 237, 16117, 227, 2924, 3858, 1117, -2451, 0, -39, 10, 52, 37, 48, 58, 80, 69, 52, 81
371503742, 237, 16117, 227, 2924, 3858, 1117, -2451, 0, -39, 10, 52, 37, 48, 58, 80, 69, 52, 81
371504610, 237, 16117, 227, 2924, 3858, 1117, -2451, 0, -39, 10, 52, 37, 48, 58, 80, 69, 52, 81
371505368, 237, 16117, 227, 2924, 3858, 1117, -2451, 0, -39, 10, 52, 37, 48, 58, 80, 69, 52, 81
371506248, 237, 16117, 227, 2924, 3858, 1117, -2451, 0, -39, 10, 52, 37, 48, 58, 80, 69, 52, 81
371511143, 237, 16117, 227, 2924, 3858, 1117, -2451, 0, -39, 10, 52, 37, 48, 58, 80, 69, 52, 81
371511997, 237, 16117, 227, 2924, 3858, 1117, -2451, 0, -39, 10, 52, 37, 48, 58, 80, 69, 52, 81
371512768, 237, 16117, 227, 2924, 3858, 1117, -2451, 0, -39, 10, 52, 37, 48, 58, 80, 69, 52, 81
371513607, 237, 16117, 227, 2924, 3858, 1117, -2451, 0, -39, 10, 52, 37, 48, 58, 80, 69, 52, 81
371518629, 237, 16117, 227, 2924, 3858, 1117, -2451, 0, -39, 10, 52, 37, 48, 58, 80, 69, 52, 81
371519572, 240, 16118, 227, 2919, 3874, 1105, -2421, -19, -31, -3, 52, 37, 48, 58, 80, 69, 52, 81
371520368, 240, 16118, 227, 2919, 3874, 1105, -2421, -19, -31, -3, 57, 39, 47, 51, 78, 66, 54, 90
371521192, 240, 16118, 227, 2919, 3874, 1105, -2421, -19, -31, -3, 57, 39, 47, 51, 78, 66, 54, 90
371526220, 240, 16118, 227, 2919, 3874, 1105, -2421, -19, -31, -3, 57, 39, 47, 51, 78, 66, 54, 90
371527086, 240, 16118, 227, 2919, 3874, 1105, -2421, -19, -31, -3, 57, 39, 47, 51, 78, 66, 54, 90
371527890, 240, 16118, 227, 2919, 3874, 1105, -2421, -19, -31, -3, 57, 39, 47, 51, 78, 66, 54, 90
371528709, 240, 16118, 227, 2919, 3874, 1105, -2421, -19, -31, -3, 57, 39, 47, 51, 78, 66, 54, 90
371533628, 240, 16118, 227, 2919, 3874, 1105, -2421, -19, -31, -3, 57, 39, 47, 51, 78, 66, 54, 90
371534443, 240, 16118, 227, 2919, 3874, 1105, -2421, -19, -31, -3, 57, 39, 47, 51, 78, 66, 54, 90
371535282, 240, 16118, 227, 2919, 3874, 1105, -2421, -19, -31, -3, 57, 39, 47, 51, 78, 66, 54, 90
371536093, 240, 16118, 227, 2919, 3874, 1105, -2421, -19, -31, -3, 57, 39, 47, 51, 78, 66, 54, 90
371541229, 240, 16118, 227, 2919, 3874, 1105, -2421, -19, -31, -3, 57, 39, 47, 51, 78, 66, 54, 90
371542123, 244, 16119, 225, 2914, 3857, 1108, -2425, -23, -31, 9, 57, 39, 47, 51, 78, 66, 54, 90
371542969, 244, 16119, 225, 2914, 3857, 1108, -2425, -23, -31, 9, 55, 36, 41, 40, 45, 62, 54, 84
371543791, 244, 16119, 225, 2914, 3857, 1108, -2425, -23, -31, 9, 55, 36, 41, 40, 45, 62, 54, 84
371548781, 244, 16119, 225, 2914, 3857, 1108, -2425, -23, -31, 9, 55, 36, 41, 40, 45, 62, 54, 84
371549605, 244, 16119, 225, 2914, 3857, 1108, -2425, -23, -31, 9, 55, 36, 41, 40, 45, 62, 54, 84
371550395, 244, 16119, 225, 2914, 3857, 1108, -2425, -23, -31, 9, 55, 36, 41, 40, 45, 62, 54, 84
371551260, 244, 16119, 225, 2914, 3857, 1108, -2425, -23, -31, 9, 55, 36, 41, 40, 45, 62, 54, 84
371556218, 244, 16119, 225, 2914, 3857, 1108, -2425, -23, -31, 9, 55, 36, 41, 40, 45, 62, 54, 84
371556963, 244, 16119, 225, 2914, 3857, 1108, -2425, -23, -31, 9, 55, 36, 41, 40, 45, 62, 54, 84
371557816, 244, 16119, 225, 2914, 3857, 1108, -2425, -23, -31, 9, 55, 36, 41, 40, 45, 62, 54, 84
371558622, 244, 16119, 225, 2914, 3857, 1108, -2425, -23, -31, 9, 55, 36, 41, 40, 45, 62, 54, 84
371563667, 244, 16119, 225, 2914, 3857, 1108, -2425, -23, -31, 9, 55, 36, 41, 40, 45, 62, 54, 84
371564637, 242, 16121, 217, 2905, 3840, 1104, -2423, 0, -52, 44, 55, 36, 41, 40, 45, 62, 54, 84
371565419, 242, 16121, 217, 2905, 3840, 1104, -2423, 0, -52, 44, 55, 36, 34, 34, 43, 59, 51, 89
371566283, 242, 16121, 217, 2905, 3840, 1104, -2423, 0, -52, 44, 55, 36, 34, 34, 43, 59, 51, 89
371571246, 242, 16121, 217, 2905, 3840, 1104, -2423, 0, -52, 44, 55, 36, 34, 34, 43, 59, 51, 89
371572037, 242, 16121, 217, 2905, 3840, 1104, -2423, 0, -52, 44, 55, 36, 34, 34, 43, 59, 51, 89
371572848, 242, 16121, 217, 2905, 3840, 1104, -2423, 0, -52, 44, 55, 36, 34, 34, 43, 59, 51, 89
371573668, 242, 16121, 217, 2905, 3840, 1104, -2423, 0, -52, 44, 55, 36, 34, 34, 43, 59, 51, 89
371578650, 242, 16121, 217, 2905, 3840, 1104, -2423, 0, -52, 44, 55, 36, 34, 34, 43, 59, 51, 89
371579429, 242, 16121, 217, 2905, 3840, 1104, -2423, 0, -52, 44, 55, 36, 34, 34, 43, 59, 51, 89
371580281, 242, 16121, 217, 2905, 3840, 1104, -2423, 0, -52, 44, 55, 36, 34, 34, 43, 59, 51, 89
371581096, 242, 16121, 217, 2905, 3840, 1104, -2423, 0, -52, 44, 55, 36, 34, 34, 43, 59, 51, 89
371586165, 242, 16121, 217, 2905, 3840, 1104, -2423, 0, -52, 44, 55, 36, 34, 34, 43, 59, 51, 89
371587136, 247, 16122, 210, 2895, 3857, 1130, -2439, -30, -59, 33, 55, 36, 34, 34, 43, 59, 51, 89
371587899, 247, 16122, 210, 2895, 3857, 1130, -2439, -30, -59, 33, 52, 38, 35, 34, 35, 57, 50, 88
371588744, 247, 16122, 210, 2895, 3857, 1130, -2439, -30, -59, 33, 52, 38, 35, 34, 35, 57, 50, 88
371593760, 247, 16122, 210, 2895, 3857, 1130, -2439, -30, -59, 33, 52, 38, 35, 34, 35, 57, 50, 88
371594543, 247, 16122, 210, 2895, 3857, 1130, -2439, -30, -59, 33, 52, 38, 35, 34, 35, 57, 50, 88
371595355, 247, 16122, 210, 2895, 3857, 1130, -2439, -30, -59, 33, 52, 38, 35, 34, 35, 57, 50, 88
371596230, 247, 16122, 210, 2895, 3857, 1130, -2439, -30, -59, 33, 52, 38, 35, 34, 35, 57, 50, 88
371601125, 247, 16122, 210, 2895, 3857, 1130, -2439, -30, -59, 33, 52, 38, 35, 34, 35, 57, 50, 88
371601907, 247, 16122, 210, 2895, 3857, 1130, -2439, -30, -59, 33, 52, 38, 35, 34, 35, 57, 50, 88
371602719, 247, 16122, 210, 2895, 3857, 1130, -2439, -30, -59, 33, 52, 38, 35, 34, 35, 57, 50, 88
371603543, 247, 16122, 210, 2895, 3857, 1130, -2439, -30, -59, 33, 52, 38, 35, 34, 35, 57, 50, 88
371608693, 247, 16122, 210, 2895, 3857, 1130, -2439, -30, -59, 33, 52, 38, 35, 34, 35, 57, 50, 88
371609660, 259, 16124, 203, 2885, 3869, 1125, -2447, -71, -58, 26, 52, 38, 35, 34, 35, 57, 50, 88
371610443, 259, 16124, 203, 2885, 3869, 1125, -2447, -71, -58, 26, 53, 37, 38, 33, 34, 46, 58, 83
371611283, 259, 16124, 203, 2885, 3869, 1125, -2447, -71, -58, 26, 53, 37, 38, 33, 34, 46, 58, 83
371616244, 259, 16124, 203, 2885, 3869, 1125, -2447, -71, -58, 26, 53, 37, 38, 33, 34, 46, 58, 83
371617096, 259, 16124, 203, 2885, 3869, 1125, -2447, -71, -58, 26, 53, 37, 38, 33, 34, 46, 58, 83
371617873, 259, 16124, 203, 2885, 3869, 1125, -2447, -71, -58, 26, 53, 37, 38, 33, 34, 46, 58, 83
371618735, 259, 16124, 203, 2885, 3869, 1125, -2447, -71, -58, 26, 53, 37, 38, 33, 34, 46, 58, 83
371623646, 259, 16124, 203, 2885, 3869, 1125, -2447, -71, -58, 26, 53, 37, 38, 33, 34, 46, 58, 83
371624470, 259, 16124, 203, 2885, 3869, 1125, -2447, -71, -58, 26, 53, 37, 38, 33, 34, 46, 58, 83
371625270, 259, 16124, 203, 2885, 3869, 1125, -2447, -71, -58, 26, 53, 37, 38, 33, 34, 46, 58, 83
371626095, 259, 16124, 203, 2885, 3869, 1125, -2447, -71, -58, 26, 53, 37, 38, 33, 34, 46, 58, 83
371631217, 259, 16124, 203, 2885, 3869, 1125, -2447, -71, -58, 26, 53, 37, 38, 33, 34, 46, 58, 83
371632122, 275, 16125, 194, 2877, 3861, 1116, -2442, -102, -44, 32, 53, 37, 38, 33, 34, 46, 58, 83
371632920, 275, 16125, 194, 2877, 3861, 1116, -2442, -102, -44, 32, 50, 37, 38, 29, 34, 44, 59, 72
371633718, 275, 16125, 194, 2877, 3861, 1116, -2442, -102, -44, 32, 50, 37, 38, 29, 34, 44, 59, 72
371638770, 275, 16125, 194, 2877, 3861, 1116, -2442, -102, -44, 32, 50, 37, 38, 29, 34, 44, 59, 72
371639585, 275, 16125, 194, 2877, 3861, 1116, -2442, -102, -44, 32, 50, 37, 38, 29, 34, 44, 59, 72
371640395, 275, 16125, 194, 2877, 3861, 1116, -2442, -102, -44, 32, 50, 37, 38, 29, 34, 44, 59, 72
371641218, 275, 16125, 194, 2877, 3861, 1116, -2442, -102, -44, 32, 50, 37, 38, 29, 34, 44, 59, 72
371646145, 275, 16125, 194, 2877, 3861, 1116, -2442, -102, -44, 32, 50, 37, 38, 29, 34, 44, 59, 72
371646942, 275, 16125, 194, 2877, 3861, 1116, -2442, -102, -44, 32, 50, 37, 38, 29, 34, 44, 59, 72
371647783, 275, 16125, 194, 2877, 3861, 1116, -2442, -102, -44, 32, 50, 37, 38, 29, 34, 44, 59, 72
371648590, 275, 16125, 194, 2877, 3861, 1116, -2442, -102, -44, 32, 50, 37, 38, 29, 34, 44, 59, 72
371653662, 275, 16125, 194, 2877, 3861, 1116, -2442, -102, -44, 32, 50, 37, 38, 29, 34, 44, 59, 72
371654599, 291, 16126, 185, 2871, 3855, 1132, -2429, -96, -38, 34, 50, 37, 38, 29, 34, 44, 59, 72
371655394, 291, 16126, 185, 2871, 3855, 1132, -2429, -96, -38, 34, 62, 38, 39, 34, 36, 43, 60, 77
371656252, 291, 16126, 185, 2871, 3855, 1132, -2429, -96, -38, 34, 62, 38, 39, 34, 36, 43, 60, 77
371661218, 291, 16126, 185, 2871, 3855, 1132, -2429, -96, -38, 34, 62, 38, 39, 34, 36, 43, 60, 77
371662032, 291, 16126, 185, 2871, 3855, 1132, -2429, -96, -38, 34, 62, 38, 39, 34, 36, 43, 60, 77
371662842, 291, 16126, 185, 2871, 3855, 1132, -2429, -96, -38, 34, 62, 38, 39, 34, 36, 43, 60, 77
371663672, 291, 16126, 185, 2871, 3855, 1132, -2429, -96, -38, 34, 62, 38, 39, 34, 36, 43, 60, 77
371668671, 291, 16126, 185, 2871, 3855, 1132, -2429, -96, -38, 34, 62, 38, 39, 34, 36, 43, 60, 77
371669466, 291, 16126, 185, 2871, 3855, 1132, -2429, -96, -38, 34, 62, 38, 39, 34, 36, 43, 60, 77
371670293, 291, 16126, 185, 2871, 3855, 1132, -2429, -96, -38, 34, 62, 38, 39, 34, 36, 43, 60, 77
371671117, 291, 16126, 185, 2871, 3855, 1132, -2429, -96, -38, 34, 62, 38, 39, 34, 36, 43, 60, 77
371675267, 291, 16126, 185, 2871, 3855, 1132, -2429, -96, -38, 34, 62, 38, 39, 34, 36, 43, 60, 77
371676229, 303, 16127, 178, 2867, 3860, 1123, -2408, -71, -24, 24, 62, 38, 39, 34, 36, 43, 60, 77
371677020, 303, 16127, 178, 2867, 3860, 1123, -2408, -71, -24, 24, 72, 40, 45, 37, 39, 42, 69, 106
371691319, 303, 16127, 178, 2867, 3860, 1123, -2408, -71, -24, 24, 72, 40, 45, 37, 39, 42, 69, 106
371692061, 303, 16127, 178, 2867, 3860, 1123, -2408, -71, -24, 24, 72, 40, 45, 37, 39, 42, 69, 106
371692889, 303, 16127, 178, 2867, 3860, 1123, -2408, -71, -24, 24, 72, 40, 45, 37, 39, 42, 69, 106
371693734, 303, 16127, 178, 2867, 3860, 1123, -2408, -71, -24, 24, 72, 40, 45, 37, 39, 42, 69, 106
371698656, 303, 16127, 178, 2867, 3860, 1123, -2408, -71, -24, 24, 72, 40, 45, 37, 39, 42, 69, 106
371699455, 303, 16127, 178, 2867, 3860, 1123, -2408, -71, -24, 24, 72, 40, 45, 37, 39, 42, 69, 106
371700273, 303, 16127, 178, 2867, 3860, 1123, -2408, -71, -24, 24, 72, 40, 45, 37, 39, 42, 69, 106
371701088, 303, 16127, 178, 2867, 3860, 1123, -2408, -71, -24, 24, 72, 40, 45, 37, 39, 42, 69, 106
371713618, 303, 16127, 178, 2867, 3860, 1123, -2408, -71, -24, 24, 72, 40, 45, 37, 39, 42, 69, 106
371714600, 311, 16126, 175, 2869, 3859, 1126, -2418, -46, 7, 10, 72, 40, 45, 37, 39, 42, 69, 106
371715390, 311, 16126, 175, 2869, 3859, 1126, -2418, -46, 7, 10, 78, 41, 44, 36, 38, 47, 69, 115
371716258, 311, 16126, 175, 2869, 3859, 1126, -2418, -46, 7, 10, 78, 41, 44, 36, 38, 47, 69, 115
371721032, 311, 16126, 175, 2869, 3859, 1126, -2418, -46, 7, 10, 78, 41, 44, 36, 38, 47, 69, 115
371721841, 311, 16126, 175, 2869, 3859, 1126, -2418, -46, 7, 10, 78, 41, 44, 36, 38, 47, 69, 115
371722642, 311, 16126, 175, 2869, 3859, 1126, -2418, -46, 7, 10, 78, 41, 44, 36, 38, 47, 69, 115
371723480, 311, 16126, 175, 2869, 3859, 1126, -2418, -46, 7, 10, 78, 41, 44, 36, 38, 47, 69, 115
371728643, 311, 16126, 175, 2869, 3859, 1126, -2418, -46, 7, 10, 78, 41, 44, 36, 38, 47, 69, 115
371729509, 311, 16126, 175, 2869, 3859, 1126, -2418, -46, 7, 10, 78, 41, 44, 36, 38, 47, 69, 115
371730293, 311, 16126, 175, 2869, 3859, 1126, -2418, -46, 7, 10, 78, 41, 44, 36, 38, 47, 69, 115
371731122, 311, 16126, 175, 2869, 3859, 1126, -2418, -46, 7, 10, 78, 41, 44, 36, 38, 47, 69, 115
371736221, 311, 16126, 175, 2869, 3859, 1126, -2418, -46, 7, 10, 78, 41, 44, 36, 38, 47, 69, 115
371737125, 314, 16126, 173, 2872, 3845, 1131, -2419, -23, 19, 7, 78, 41, 44, 36, 38, 47, 69, 115
371737924, 314, 16126, 173, 2872, 3845, 1131, -2419, -23, 19, 7, 77, 42, 41, 35, 42, 49, 60, 115
371738733, 314, 16126, 173, 2872, 3845, 1131, -2419, -23, 19, 7, 77, 42, 41, 35, 42, 49, 60, 115
371743772, 314, 16126, 173, 2872, 3845, 1131, -2419, -23, 19, 7, 77, 42, 41, 35, 42, 49, 60, 115
371744544, 314, 16126, 173, 2872, 3845, 1131, -2419, -23, 19, 7, 77, 42, 41, 35, 42, 49, 60, 115
371745401, 314, 16126, 173, 2872, 3845, 1131, -2419, -23, 19, 7, 77, 42, 41, 35, 42, 49, 60, 115
371746219, 314, 16126, 173, 2872, 3845, 1131, -2419, -23, 19, 7, 77, 42, 41, 35, 42, 49, 60, 115
371751132, 314, 16126, 173, 2872, 3845, 1131, -2419, -23, 19, 7, 77, 42, 41, 35, 42, 49, 60, 115
371751943, 314, 16126, 173, 2872, 3845, 1131, -2419, -23, 19, 7, 77, 42, 41, 35, 42, 49, 60, 115
371752809, 314, 16126, 173, 2872, 3845, 1131, -2419, -23, 19, 7, 77, 42, 41, 35, 42, 49, 60, 115
371753581, 314, 16126, 173, 2872, 3845, 1131, -2419, -23, 19, 7, 77, 42, 41, 35, 42, 49, 60, 115
371758666, 314, 16126, 173, 2872, 3845, 1131, -2419, -23, 19, 7, 77, 42, 41, 35, 42, 49, 60, 115
371759570, 313, 16125, 170, 2874, 3853, 1121, -2468, 2, 12, 18, 77, 42, 41, 35, 42, 49, 60, 115
371760433, 313, 16125, 170, 2874, 3853, 1121, -2468, 2, 12, 18, 75, 43, 41, 41, 41, 51, 60, 115
371761218, 313, 16125, 170, 2874, 3853, 1121, -2468, 2, 12, 18, 75, 43, 41, 41, 41, 51, 60, 115
371766246, 313, 16125, 170, 2874, 3853, 1121, -2468, 2, 12, 18, 75, 43, 41, 41, 41, 51, 60, 115
371767022, 313, 16125, 170, 2874, 3853, 1121, -2468, 2, 12, 18, 75, 43, 41, 41, 41, 51, 60, 115
371767872, 313, 16125, 170, 2874, 3853, 1121, -2468, 2, 12, 18, 75, 43, 41, 41, 41, 51, 60, 115
371768668, 313, 16125, 170, 2874, 3853, 1121, -2468, 2, 12, 18, 75, 43, 41, 41, 41, 51, 60, 115
371773659, 313, 16125, 170, 2874, 3853, 1121, -2468, 2, 12, 18, 75, 43, 41, 41, 41, 51, 60, 115
371774462, 313, 16125, 170, 2874, 3853, 1121, -2468, 2, 12, 18, 75, 43, 41, 41, 41, 51, 60, 115
371775283, 313, 16125, 170, 2874, 3853, 1121, -2468, 2, 12, 18, 75, 43, 41, 41, 41, 51, 60, 115
371776048, 313, 16125, 170, 2874, 3853, 1121, -2468, 2, 12, 18, 75, 43, 41, 41, 41, 51, 60, 115
371781245, 313, 16125, 170, 2874, 3853, 1121, -2468, 2, 12, 18, 75, 43, 41, 41, 41, 51, 60, 115
371782136, 313, 16125, 164, 2876, 3869, 1127, -2459, -7, 10, 31, 75, 43, 41, 41, 41, 51, 60, 115
371782972, 313, 16125, 164, 2876, 3869, 1127, -2459, -7, 10, 31, 71, 41, 41, 35, 42, 53, 61, 118
371783743, 313, 16125, 164, 2876, 3869, 1127, -2459, -7, 10, 31, 71, 41, 41, 35, 42, 53, 61, 118
371788783, 313, 16125, 164, 2876, 3869, 1127, -2459, -7, 10, 31, 71, 41, 41, 35, 42, 53, 61, 118
371789568, 313, 16125, 164, 2876, 3869, 1127, -2459, -7, 10, 31, 71, 41, 41, 35, 42, 53, 61, 118
371790434, 313, 16125, 164, 2876, 3869, 1127, -2459, -7, 10, 31, 71, 41, 41, 35, 42, 53, 61, 118
371791240, 313, 16125, 164, 2876, 3869, 1127, -2459, -7, 10, 31, 71, 41, 41, 35, 42, 53, 61, 118
371796155, 313, 16125, 164, 2876, 3869, 1127, -2459, -7, 10, 31, 71, 41, 41, 35, 42, 53, 61, 118
371796968, 313, 16125, 164, 2876, 3869, 1127, -2459, -7, 10, 31, 71, 41, 41, 35, 42, 53, 61, 118
371797808, 313, 16125, 164, 2876, 3869, 1127, -2459, -7, 10, 31, 71, 41, 41, 35, 42, 53, 61, 118
371798593, 313, 16125, 164, 2876, 3869, 1127, -2459, -7, 10, 31, 71, 41, 41, 35, 42, 53, 61, 118
371803690, 313, 16125, 164, 2876, 3869, 1127, -2459, -7, 10, 31, 71, 41, 41, 35, 42, 53, 61, 118
371804595, 315, 16125, 158, 2878, 3869, 1117, -2419, -15, 7, 32, 71, 41, 41, 35, 42, 53, 61, 118
371805440, 315, 16125, 158, 2878, 3869, 1117, -2419, -15, 7, 32, 56, 38, 35, 33, 42, 52, 51, 83
371806242, 315, 16125, 158, 2878, 3869, 1117, -2419, -15, 7, 32, 56, 38, 35, 33, 42, 52, 51, 83
371811271, 315, 16125, 158, 2878, 3869, 1117, -2419, -15, 7, 32, 56, 38, 35, 33, 42, 52, 51, 83
371812047, 315, 16125, 158, 2878, 3869, 1117, -2419, -15, 7, 32, 56, 38, 35, 33, 42, 52, 51, 83
371812898, 315, 16125, 158, 2878, 3869, 1117, -2419, -15, 7, 32, 56, 38, 35, 33, 42, 52, 51, 83
371813691, 315, 16125, 158, 2878, 3869, 1117, -2419, -15, 7, 32, 56, 38, 35, 33, 42, 52, 51, 83
371818659, 315, 16125, 158, 2878, 3869, 1117, -2419, -15, 7, 32, 56, 38, 35, 33, 42, 52, 51, 83
371819464, 315, 16125, 158, 2878, 3869, 1117, -2419, -15, 7, 32, 56, 38, 35, 33, 42, 52, 51, 83
371820283, 315, 16125, 158, 2878, 3869, 1117, -2419, -15, 7, 32, 56, 38, 35, 33, 42, 52, 51, 83
371821093, 315, 16125, 158, 2878, 3869, 1117, -2419, -15, 7, 32, 56, 38, 35, 33, 42, 52, 51, 83
371826150, 315, 16125, 158, 2878, 3869, 1117, -2419, -15, 7, 32, 56, 38, 35, 33, 42, 52, 51, 83
371827071, 313, 16124, 156, 2881, 3877, 1122, -2417, 10, 18, 14, 56, 38, 35, 33, 42, 52, 51, 83
371827900, 313, 16124, 156, 2881, 3877, 1122, -2417, 10, 18, 14, 56, 41, 40, 37, 44, 54, 58, 71
371828698, 313, 16124, 156, 2881, 3877, 1122, -2417, 10, 18, 14, 56, 41, 40, 37, 44, 54, 58, 71
371833716, 313, 16124, 156, 2881, 3877, 1122, -2417, 10, 18, 14, 56, 41, 40, 37, 44, 54, 58, 71
371834529, 313, 16124, 156, 2881, 3877, 1122, -2417, 10, 18, 14, 56, 41, 40, 37, 44, 54, 58, 71
371835374, 313, 16124, 156, 2881, 3877, 1122, -2417, 10, 18, 14, 56, 41, 40, 37, 44, 54, 58, 71
371836217, 313, 16124, 156, 2881, 3877, 1122, -2417, 10, 18, 14, 56, 41, 40, 37, 44, 54, 58, 71
371841132, 313, 16124, 156, 2881, 3877, 1122, -2417, 10, 18, 14, 56, 41, 40, 37, 44, 54, 58, 71
371841947, 313, 16124, 156, 2881, 3877, 1122, -2417, 10, 18, 14, 56, 41, 40, 37, 44, 54, 58, 71
371842756, 313, 16124, 156, 2881, 3877, 1122, -2417, 10, 18, 14, 56, 41, 40, 37, 44, 54, 58, 71
371843572, 313, 16124, 156, 2881, 3877, 1122, -2417, 10, 18, 14, 56, 41, 40, 37, 44, 54, 58, 71
371848683, 313, 16124, 156, 2881, 3877, 1122, -2417, 10, 18, 14, 56, 41, 40, 37, 44, 54, 58, 71
371849653, 311, 16124, 154, 2884, 3850, 1128, -2455, 8, 17, 8, 56, 41, 40, 37, 44, 54, 58, 71
371850418, 311, 16124, 154, 2884, 3850, 1128, -2455, 8, 17, 8, 57, 41, 41, 47, 43, 82, 75, 75
371851284, 311, 16124, 154, 2884, 3850, 1128, -2455, 8, 17, 8, 57, 41, 41, 47, 43, 82, 75, 75
371856242, 311, 16124, 154, 2884, 3850, 1128, -2455, 8, 17, 8, 57, 41, 41, 47, 43, 82, 75, 75
371857097, 311, 16124, 154, 2884, 3850, 1128, -2455, 8, 17, 8, 57, 41, 41, 47, 43, 82, 75, 75
371857875, 311, 16124, 154, 2884, 3850, 1128, -2455, 8, 17, 8, 57, 41, 41, 47, 43, 82, 75, 75
371858698, 311, 16124, 154, 2884, 3850, 1128, -2455, 8, 17, 8, 57, 41, 41, 47, 43, 82, 75, 75
371863630, 311, 16124, 154, 2884, 3850, 1128, -2455, 8, 17, 8, 57, 41, 41, 47, 43, 82, 75, 75
371864458, 311, 16124, 154, 2884, 3850, 1128, -2455, 8, 17, 8, 57, 41, 41, 47, 43, 82, 75, 75
371865268, 311, 16124, 154, 2884, 3850, 1128, -2455, 8, 17, 8, 57, 41, 41, 47, 43, 82, 75, 75
371866093, 311, 16124, 154, 2884, 3850, 1128, -2455, 8, 17, 8, 57, 41, 41, 47, 43, 82, 75, 75
371871143, 311, 16124, 154, 2884, 3850, 1128, -2455, 8, 17, 8, 57, 41, 41, 47, 43, 82, 75, 75
371872122, 298, 16127, 159, 2867, 3827, 1138, -2381, 76, -95, -16, 57, 41, 41, 47, 43, 82, 75, 75
371872920, 298, 16127, 159, 2867, 3827, 1138, -2381, 76, -95, -16, 69, 44, 44, 46, 53, 149, 170, 88
371873718, 298, 16127, 159, 2867, 3827, 1138, -2381, 76, -95, -16, 69, 44, 44, 46, 53, 149, 170, 88
371878750, 298, 16127, 159, 2867, 3827, 1138, -2381, 76, -95, -16, 69, 44, 44, 46, 53, 149, 170, 88
371879544, 298, 16127, 159, 2867, 3827, 1138, -2381, 76, -95, -16, 69, 44, 44, 46, 53, 149, 170, 88
371880370, 298, 16127, 159, 2867, 3827, 1138, -2381, 76, -95, -16, 69, 44, 44, 46, 53, 149, 170, 88
371881218, 298, 16127, 159, 2867, 3827, 1138, -2381, 76, -95, -16, 69, 44, 44, 46, 53, 149, 170, 88
371886109, 298, 16127, 159, 2867, 3827, 1138, -2381, 76, -95, -16, 69, 44, 44, 46, 53, 149, 170, 88
371886918, 298, 16127, 159, 2867, 3827, 1138, -2381, 76, -95, -16, 69, 44, 44, 46, 53, 149, 170, 88
371887718, 298, 16127, 159, 2867, 3827, 1138, -2381, 76, -95, -16, 69, 44, 44, 46, 53, 149, 170, 88
371888543, 298, 16127, 159, 2867, 3827, 1138, -2381, 76, -95, -16, 69, 44, 44, 46, 53, 149, 170, 88
371893621, 298, 16127, 159, 2867, 3827, 1138, -2381, 76, -95, -16, 69, 44, 44, 46, 53, 149, 170, 88
371894610, 291, 16132, 164, 2839, 3893, 1102, -2348, 44, -159, -23, 69, 44, 44, 46, 53, 149, 170, 88
371895368, 291, 16132, 164, 2839, 3893, 1102, -2348, 44, -159, -23, 105, 105, 81, 55, 99, 191, 297, 125
371896247, 291, 16132, 164, 2839, 3893, 1102, -2348, 44, -159, -23, 105, 105, 81, 55, 99, 191, 297, 125
371901219, 291, 16132, 164, 2839, 3893, 1102, -2348, 44, -159, -23, 105, 105, 81, 55, 99, 191, 297, 125
371902062, 291, 16132, 164, 2839, 3893, 1102, -2348, 44, -159, -23, 105, 105, 81, 55, 99, 191, 297, 125
371902818, 291, 16132, 164, 2839, 3893, 1102, -2348, 44, -159, -23, 105, 105, 81, 55, 99, 191, 297, 125
371903672, 291, 16132, 164, 2839, 3893, 1102, -2348, 44, -159, -23, 105, 105, 81, 55, 99, 191, 297, 125
371908643, 291, 16132, 164, 2839, 3893, 1102, -2348, 44, -159, -23, 105, 105, 81, 55, 99, 191, 297, 125
371909459, 291, 16132, 164, 2839, 3893, 1102, -2348, 44, -159, -23, 105, 105, 81, 55, 99, 191, 297, 125
371910269, 291, 16132, 164, 2839, 3893, 1102, -2348, 44, -159, -23, 105, 105, 81, 55, 99, 191, 297, 125
371911071, 291, 16132, 164, 2839, 3893, 1102, -2348, 44, -159, -23, 105, 105, 81, 55, 99, 191, 297, 125
371916215, 291, 16132, 164, 2839, 3893, 1102, -2348, 44, -159, -23, 105, 105, 81, 55, 99, 191, 297, 125
371917086, 241, 16136, 184, 2818, 3855, 993, -2367, 297, -113, -64, 105, 105, 81, 55, 99, 191, 297, 125
371917920, 241, 16136, 184, 2818, 3855, 993, -2367, 297, -113, -64, 119, 124, 113, 91, 217, 339, 546, 146
371918710, 241, 16136, 184, 2818, 3855, 993, -2367, 297, -113, -64, 119, 124, 113, 91, 217, 339, 546, 146
371923742, 241, 16136, 184, 2818, 3855, 993, -2367, 297, -113, -64, 119, 124, 113, 91, 217, 339, 546, 146
371924583, 241, 16136, 184, 2818, 3855, 993, -2367, 297, -113, -64, 119, 124, 113, 91, 217, 339, 546, 146
371925390, 241, 16136, 184, 2818, 3855, 993, -2367, 297, -113, -64, 119, 124, 113, 91, 217, 339, 546, 146
371926259, 241, 16136, 184, 2818, 3855, 993, -2367, 297, -113, -64, 119, 124, 113, 91, 217, 339, 546, 146
371931121, 241, 16136, 184, 2818, 3855, 993, -2367, 297, -113, -64, 119, 124, 113, 91, 217, 339, 546, 146
371931951, 241, 16136, 184, 2818, 3855, 993, -2367, 297, -113, -64, 119, 124, 113, 91, 217, 339, 546, 146
371932794, 241, 16136, 184, 2818, 3855, 993, -2367, 297, -113, -64, 119, 124, 113, 91, 217, 339, 546, 146
371933568, 241, 16136, 184, 2818, 3855, 993, -2367, 297, -113, -64, 119, 124, 113, 91, 217, 339, 546, 146
371938661, 241, 16136, 184, 2818, 3855, 993, -2367, 297, -113, -64, 119, 124, 113, 91, 217, 339, 546, 146
371939609, 156, 16139, 203, 2806, 3816, 1024, -2431, 487, -66, -24, 119, 124, 113, 91, 217, 339, 546, 146
371940415, 156, 16139, 203, 2806, 3816, 1024, -2431, 487, -66, -24, 227, 211, 216, 134, 277, 458, 646, 180
371941244, 156, 16139, 203, 2806, 3816, 1024, -2431, 487, -66, -24, 227, 211, 216, 134, 277, 458, 646, 180
371946243, 156, 16139, 203, 2806, 3816, 1024, -2431, 487, -66, -24, 227, 211, 216, 134, 277, 458, 646, 180
371947049, 156, 16139, 203, 2806, 3816, 1024, -2431, 487, -66, -24, 227, 211, 216, 134, 277, 458, 646, 180
371947843, 156, 16139, 203, 2806, 3816, 1024, -2431, 487, -66, -24, 227, 211, 216, 134, 277, 458, 646, 180
371948710, 156, 16139, 203, 2806, 3816, 1024, -2431, 487, -66, -24, 227, 211, 216, 134, 277, 458, 646, 180
371953618, 156, 16139, 203, 2806, 3816, 1024, -2431, 487, -66, -24, 227, 211, 216, 134, 277, 458, 646, 180
371954460, 156, 16139, 203, 2806, 3816, 1024, -2431, 487, -66, -24, 227, 211, 216, 134, 277, 458, 646, 180
371955244, 156, 16139, 203, 2806, 3816, 1024, -2431, 487, -66, -24, 227, 211, 216, 134, 277, 458, 646, 180
371956086, 156, 16139, 203, 2806, 3816, 1024, -2431, 487, -66, -24, 227, 211, 216, 134, 277, 458, 646, 180
371961119, 156, 16139, 203, 2806, 3816, 1024, -2431, 487, -66, -24, 227, 211, 216, 134, 277, 458, 646, 180
371962067, 62, 16144, 213, 2780, 3817, 1077, -2514, 527, -141, 30, 227, 211, 216, 134, 277, 458, 646, 180
371962867, 62, 16144, 213, 2780, 3817, 1077, -2514, 527, -141, 30, 269, 236, 251, 254, 428, 499, 762, 302
371963704, 62, 16144, 213, 2780, 3817, 1077, -2514, 527, -141, 30, 269, 236, 251, 254, 428, 499, 762, 302
371968744, 62, 16144, 213, 2780, 3817, 1077, -2514, 527, -141, 30, 269, 236, 251, 254, 428, 499, 762, 302
371969595, 62, 16144, 213, 2780, 3817, 1077, -2514, 527, -141, 30, 269, 236, 251, 254, 428, 499, 762, 302
371970414, 62, 16144, 213, 2780, 3817, 1077, -2514, 527, -141, 30, 269, 236, 251, 254, 428, 499, 762, 302
371971245, 62, 16144, 213, 2780, 3817, 1077, -2514, 527, -141, 30, 269, 236, 251, 254, 428, 499, 762, 302
371976143, 62, 16144, 213, 2780, 3817, 1077, -2514, 527, -141, 30, 269, 236, 251, 254, 428, 499, 762, 302
371976998, 62, 16144, 213, 2780, 3817, 1077, -2514, 527, -141, 30, 269, 236, 251, 254, 428, 499, 762, 302
371977768, 62, 16144, 213, 2780, 3817, 1077, -2514, 527, -141, 30, 269, 236, 251, 254, 428, 499, 762, 302
371978622, 62, 16144, 213, 2780, 3817, 1077, -2514, 527, -141, 30, 269, 236, 251, 254, 428, 499, 762, 302
371983658, 62, 16144, 213, 2780, 3817, 1077, -2514, 527, -141, 30, 269, 236, 251, 254, 428, 499, 762, 302
371984594, 22, 16153, 201, 2732, 3769, 1050, -2736, 213, -271, 108, 269, 236, 251, 254, 428, 499, 762, 302
371985459, 22, 16153, 201, 2732, 3769, 1050, -2736, 213, -271, 108, 347, 304, 311, 327, 631, 508, 874, 335
371986219, 22, 16153, 201, 2732, 3769, 1050, -2736, 213, -271, 108, 347, 304, 311, 327, 631, 508, 874, 335
371991258, 22, 16153, 201, 2732, 3769, 1050, -2736, 213, -271, 108, 347, 304, 311, 327, 631, 508, 874, 335
371992046, 22, 16153, 201, 2732, 3769, 1050, -2736, 213, -271, 108, 347, 304, 311, 327, 631, 508, 874, 335
371992894, 22, 16153, 201, 2732, 3769, 1050, -2736, 213, -271, 108, 347, 304, 311, 327, 631, 508, 874, 335
371993668, 22, 16153, 201, 2732, 3769, 1050, -2736, 213, -271, 108, 347, 304, 311, 327, 631, 508, 874, 335
371998619, 22, 16153, 201, 2732, 3769, 1050, -2736, 213, -271, 108, 347, 304, 311, 327, 631, 508, 874, 335
371999470, 22, 16153, 201, 2732, 3769, 1050, -2736, 213, -271, 108, 347, 304, 311, 327, 631, 508, 874, 335
372000243, 22, 16153, 201, 2732, 3769, 1050, -2736, 213, -271, 108, 347, 304, 311, 327, 631, 508, 874, 335
372001069, 22, 16153, 201, 2732, 3769, 1050, -2736, 213, -271, 108, 347, 304, 311, 327, 631, 508, 874, 335
372006142, 22, 16153, 201, 2732, 3769, 1050, -2736, 213, -271, 108, 347, 304, 311, 327, 631, 508, 874, 335
372007081, -24, 16160, 185, 2691, 4006, 879, -2362, 244, -230, 131, 347, 304, 311, 327, 631, 508, 874, 335
372007874, -24, 16160, 185, 2691, 4006, 879, -2362, 244, -230, 131, 466, 401, 418, 390, 766, 549, 908, 383
372008722, -24, 16160, 185, 2691, 4006, 879, -2362, 244, -230, 131, 466, 401, 418, 390, 766, 549, 908, 383
372013693, -24, 16160, 185, 2691, 4006, 879, -2362, 244, -230, 131, 466, 401, 418, 390, 766, 549, 908, 383
372014530, -24, 16160, 185, 2691, 4006, 879, -2362, 244, -230, 131, 466, 401, 418, 390, 766, 549, 908, 383
372015348, -24, 16160, 185, 2691, 4006, 879, -2362, 244, -230, 131, 466, 401, 418, 390, 766, 549, 908, 383
372016226, -24, 16160, 185, 2691, 4006, 879, -2362, 244, -230, 131, 466, 401, 418, 390, 766, 549, 908, 383
372021084, -24, 16160, 185, 2691, 4006, 879, -2362, 244, -230, 131, 466, 401, 418, 390, 766, 549, 908, 383
372021902, -24, 16160, 185, 2691, 4006, 879, -2362, 244, -230, 131, 466, 401, 418, 390, 766, 549, 908, 383
372022693, -24, 16160, 185, 2691, 4006, 879, -2362, 244, -230, 131, 466, 401, 418, 390, 766, 549, 908, 383
372023518, -24, 16160, 185, 2691, 4006, 879, -2362, 244, -230, 131, 466, 401, 418, 390, 766, 549, 908, 383
372028670, -24, 16160, 185, 2691, 4006, 879, -2362, 244, -230, 131, 466, 401, 418, 390, 766, 549, 908, 383
372029637, -54, 16159, 251, 2689, 4109, 987, -2889, 224, -9, -339, 466, 401, 418, 390, 766, 549, 908, 383
372030419, -54, 16159, 251, 2689, 4109, 987, -2889, 224, -9, -339, 561, 508, 466, 437, 797, 528, 882, 405
372031273, -54, 16159, 251, 2689, 4109, 987, -2889, 224, -9, -339, 561, 508, 466, 437, 797, 528, 882, 405
372036248, -54, 16159, 251, 2689, 4109, 987, -2889, 224, -9, -339, 561, 508, 466, 437, 797, 528, 882, 405
372037073, -54, 16159, 251, 2689, 4109, 987, -2889, 224, -9, -339, 561, 508, 466, 437, 797, 528, 882, 405
372037868, -54, 16159, 251, 2689, 4109, 987, -2889, 224, -9, -339, 561, 508, 466, 437, 797, 528, 882, 405
372038684, -54, 16159, 251, 2689, 4109, 987, -2889, 224, -9, -339, 561, 508, 466, 437, 797, 528, 882, 405
372043659, -54, 16159, 251, 2689, 4109, 987, -2889, 224, -9, -339, 561, 508, 466, 437, 797, 528, 882, 405
372044443, -54, 16159, 251, 2689, 4109, 987, -2889, 224, -9, -339, 561, 508, 466, 437, 797, 528, 882, 405
372045280, -54, 16159, 251, 2689, 4109, 987, -2889, 224, -9, -339, 561, 508, 466, 437, 797, 528, 882, 405
372046073, -54, 16159, 251, 2689, 4109, 987, -2889, 224, -9, -339, 561, 508, 466, 437, 797, 528, 882, 405
372051151, -54, 16159, 251, 2689, 4109, 987, -2889, 224, -9, -339, 561, 508, 466, 437, 797, 528, 882, 405
372052095, -212, 16163, 378, 2644, 3392, 2145, -3286, 991, -240, -553, 561, 508, 466, 437, 797, 528, 882, 405
372052941, -212, 16163, 378, 2644, 3392, 2145, -3286, 991, -240, -553, 632, 571, 477, 449, 867, 459, 851, 402
372053718, -212, 16163, 378, 2644, 3392, 2145, -3286, 991, -240, -553, 632, 571, 477, 449, 867, 459, 851, 402
372058744, -212, 16163, 378, 2644, 3392, 2145, -3286, 991, -240, -553, 632, 571, 477, 449, 867, 459, 851, 402
372059542, -212, 16163, 378, 2644, 3392, 2145, -3286, 991, -240, -553, 632, 571, 477, 449, 867, 459, 851, 402
372060346, -212, 16163, 378, 2644, 3392, 2145, -3286, 991, -240, -553, 632, 571, 477, 449, 867, 459, 851, 402
372061216, -212, 16163, 378, 2644, 3392, 2145, -3286, 991, -240, -553, 632, 571, 477, 449, 867, 459, 851, 402
372066132, -212, 16163, 378, 2644, 3392, 2145, -3286, 991, -240, -553, 632, 571, 477, 449, 867, 459, 851, 402
372066919, -212, 16163, 378, 2644, 3392, 2145, -3286, 991, -240, -553, 632, 571, 477, 449, 867, 459, 851, 402
372067745, -212, 16163, 378, 2644, 3392, 2145, -3286, 991, -240, -553, 632, 571, 477, 449, 867, 459, 851, 402
372068570, -212, 16163, 378, 2644, 3392, 2145, -3286, 991, -240, -553, 632, 571, 477, 449, 867, 459, 851, 402
372073616, -212, 16163, 378, 2644, 3392, 2145, -3286, 991, -240, -553, 632, 571, 477, 449, 867, 459, 851, 402
372074591, -278, 16167, 476, 2599, 3720, 923, -2169, 458, -251, -479, 632, 571, 477, 449, 867, 459, 851, 402
372075368, -278, 16167, 476, 2599, 3720, 923, -2169, 458, -251, -479, 656, 589, 487, 408, 831, 468, 830, 326
372076244, -278, 16167, 476, 2599, 3720, 923, -2169, 458, -251, -479, 656, 589, 487, 408, 831, 468, 830, 326
372081237, -278, 16167, 476, 2599, 3720, 923, -2169, 458, -251, -479, 656, 589, 487, 408, 831, 468, 830, 326
372082036, -278, 16167, 476, 2599, 3720, 923, -2169, 458, -251, -479, 656, 589, 487, 408, 831, 468, 830, 326
372082820, -278, 16167, 476, 2599, 3720, 923, -2169, 458, -251, -479, 656, 589, 487, 408, 831, 468, 830, 326
372083638, -278, 16167, 476, 2599, 3720, 923, -2169, 458, -251, -479, 656, 589, 487, 408, 831, 468, 830, 326
372088629, -278, 16167, 476, 2599, 3720, 923, -2169, 458, -251, -479, 656, 589, 487, 408, 831, 468, 830, 326
372089444, -278, 16167, 476, 2599, 3720, 923, -2169, 458, -251, -479, 656, 589, 487, 408, 831, 468, 830, 326
372090248, -278, 16167, 476, 2599, 3720, 923, -2169, 458, -251, -479, 656, 589, 487, 408, 831, 468, 830, 326
372091058, -278, 16167, 476, 2599, 3720, 923, -2169, 458, -251, -479, 656, 589, 487, 408, 831, 468, 830, 326
372096232, -278, 16167, 476, 2599, 3720, 923, -2169, 458, -251, -479, 656, 589, 487, 408, 831, 468, 830, 326
372097104, -311, 16164, 505, 2606, 4128, 969, -2431, 207, 40, -131, 656, 589, 487, 408, 831, 468, 830, 326
372097910, -311, 16164, 505, 2606, 4128, 969, -2431, 207, 40, -131, 629, 571, 477, 364, 722, 458, 701, 294
372098745, -311, 16164, 505, 2606, 4128, 969, -2431, 207, 40, -131, 629, 571, 477, 364, 722, 458, 701, 294
372103774, -311, 16164, 505, 2606, 4128, 969, -2431, 207, 40, -131, 629, 571, 477, 364, 722, 458, 701, 294
372104542, -311, 16164, 505, 2606, 4128, 969, -2431, 207, 40, -131, 629, 571, 477, 364, 722, 458, 701, 294
372105382, -311, 16164, 505, 2606, 4128, 969, -2431, 207, 40, -131, 629, 571, 477, 364, 722, 458, 701, 294
372106231, -311, 16164, 505, 2606, 4128, 969, -2431, 207, 40, -131, 629, 571, 477, 364, 722, 458, 701, 294
372111130, -311, 16164, 505, 2606, 4128, 969, -2431, 207, 40, -131, 629, 571, 477, 364, 722, 458, 701, 294
372111965, -311, 16164, 505, 2606, 4128, 969, -2431, 207, 40, -131, 629, 571, 477, 364, 722, 458, 701, 294
372112796, -311, 16164, 505, 2606, 4128, 969, -2431, 207, 40, -131, 629, 571, 477, 364, 722, 458, 701, 294
372113589, -311, 16164, 505, 2606, 4128, 969, -2431, 207, 40, -131, 629, 571, 477, 364, 722, 458, 701, 294
372118646, -311, 16164, 505, 2606, 4128, 969, -2431, 207, 40, -131, 629, 571, 477, 364, 722, 458, 701, 294
372119577, -425, 16162, 532, 2596, 3782, 1049, -2458, 657, -33, -50, 629, 571, 477, 364, 722, 458, 701, 294
372120408, -425, 16162, 532, 2596, 3782, 1049, -2458, 657, -33, -50, 542, 500, 387, 365, 580, 406, 616, 240
372121218, -425, 16162, 532, 2596, 3782, 1049, -2458, 657, -33, -50, 542, 500, 387, 365, 580, 406, 616, 240
372126230, -425, 16162, 532, 2596, 3782, 1049, -2458, 657, -33, -50, 542, 500, 387, 365, 580, 406, 616, 240
372127033, -425, 16162, 532, 2596, 3782, 1049, -2458, 657, -33, -50, 542, 500, 387, 365, 580, 406, 616, 240
372127884, -425, 16162, 532, 2596, 3782, 1049, -2458, 657, -33, -50, 542, 500, 387, 365, 580, 406, 616, 240
372128669, -425, 16162, 532, 2596, 3782, 1049, -2458, 657, -33, -50, 542, 500, 387, 365, 580, 406, 616, 240
372133636, -425, 16162, 532, 2596, 3782, 1049, -2458, 657, -33, -50, 542, 500, 387, 365, 580, 406, 616, 240
372134412, -425, 16162, 532, 2596, 3782, 1049, -2458, 657, -33, -50, 542, 500, 387, 365, 580, 406, 616, 240
372135242, -425, 16162, 532, 2596, 3782, 1049, -2458, 657, -33, -50, 542, 500, 387, 365, 580, 406, 616, 240
372136085, -425, 16162, 532, 2596, 3782, 1049, -2458, 657, -33, -50, 542, 500, 387, 365, 580, 406, 616, 240
372141124, -425, 16162, 532, 2596, 3782, 1049, -2458, 657, -33, -50, 542, 500, 387, 365, 580, 406, 616, 240
372142063, -487, 16161, 550, 2589, 3904, 1164, -2486, 356, -31, -41, 542, 500, 387, 365, 580, 406, 616, 240
372142843, -487, 16161, 550, 2589, 3904, 1164, -2486, 356, -31, -41, 449, 394, 376, 424, 541, 357, 474, 225
372143667, -487, 16161, 550, 2589, 3904, 1164, -2486, 356, -31, -41, 449, 394, 376, 424, 541, 357, 474, 225
372148692, -487, 16161, 550, 2589, 3904, 1164, -2486, 356, -31, -41, 449, 394, 376, 424, 541, 357, 474, 225
372149516, -487, 16161, 550, 2589, 3904, 1164, -2486, 356, -31, -41, 449, 394, 376, 424, 541, 357, 474, 225
372150319, -487, 16161, 550, 2589, 3904, 1164, -2486, 356, -31, -41, 449, 394, 376, 424, 541, 357, 474, 225
372151259, -487, 16161, 550, 2589, 3904, 1164, -2486, 356, -31, -41, 449, 394, 376, 424, 541, 357, 474, 225
372156144, -487, 16161, 550, 2589, 3904, 1164, -2486, 356, -31, -41, 449, 394, 376, 424, 541, 357, 474, 225
372156997, -487, 16161, 550, 2589, 3904, 1164, -2486, 356, -31, -41, 449, 394, 376, 424, 541, 357, 474, 225
372157790, -487, 16161, 550, 2589, 3904, 1164, -2486, 356, -31, -41, 449, 394, 376, 424, 541, 357, 474, 225
372158615, -487, 16161, 550, 2589, 3904, 1164, -2486, 356, -31, -41, 449, 394, 376, 424, 541, 357, 474, 225
372163655, -487, 16161, 550, 2589, 3904, 1164, -2486, 356, -31, -41, 449, 394, 376, 424, 541, 357, 474, 225
372164621, -475, 16163, 518, 2584, 3812, 1106, -2582, -94, -24, 166, 449, 394, 376, 424, 541, 357, 474, 225
372165418, -475, 16163, 518, 2584, 3812, 1106, -2582, -94, -24, 166, 363, 266, 372, 583, 544, 365, 413, 372
372166257, -475, 16163, 518, 2584, 3812, 1106, -2582, -94, -24, 166, 363, 266, 372, 583, 544, 365, 413, 372
372171239, -475, 16163, 518, 2584, 3812, 1106, -2582, -94, -24, 166, 363, 266, 372, 583, 544, 365, 413, 372
372172073, -475, 16163, 518, 2584, 3812, 1106, -2582, -94, -24, 166, 363, 266, 372, 583, 544, 365, 413, 372
372172872, -475, 16163, 518, 2584, 3812, 1106, -2582, -94, -24, 166, 363, 266, 372, 583, 544, 365, 413, 372
372173659, -475, 16163, 518, 2584, 3812, 1106, -2582, -94, -24, 166, 363, 266, 372, 583, 544, 365, 413, 372
372178616, -475, 16163, 518, 2584, 3812, 1106, -2582, -94, -24, 166, 363, 266, 372, 583, 544, 365, 413, 372
372179482, -475, 16163, 518, 2584, 3812, 1106, -2582, -94, -24, 166, 363, 266, 372, 583, 544, 365, 413, 372
372180243, -475, 16163, 518, 2584, 3812, 1106, -2582, -94, -24, 166, 363, 266, 372, 583, 544, 365, 413, 372
372181112, -475, 16163, 518, 2584, 3812, 1106, -2582, -94, -24, 166, 363, 266, 372, 583, 544, 365, 413, 372
372186143, -475, 16163, 518, 2584, 3812, 1106, -2582, -94, -24, 166, 363, 266, 372, 583, 544, 365, 413, 372
372187103, -349, 16174, 451, 2547, 3783, 979, -2660, -749, -231, 262, 363, 266, 372, 583, 544, 365, 413, 372
372187886, -349, 16174, 451, 2547, 3783, 979, -2660, -749, -231, 262, 334, 219, 427, 760, 650, 365, 211, 437
372188723, -349, 16174, 451, 2547, 3783, 979, -2660, -749, -231, 262, 334, 219, 427, 760, 650, 365, 211, 437
372193694, -349, 16174, 451, 2547, 3783, 979, -2660, -749, -231, 262, 334, 219, 427, 760, 650, 365, 211, 437
372194558, -349, 16174, 451, 2547, 3783, 979, -2660, -749, -231, 262, 334, 219, 427, 760, 650, 365, 211, 437
372195344, -349, 16174, 451, 2547, 3783, 979, -2660, -749, -231, 262, 334, 219, 427, 760, 650, 365, 211, 437
372196232, -349, 16174, 451, 2547, 3783, 979, -2660, -749, -231, 262, 334, 219, 427, 760, 650, 365, 211, 437
372201093, -349, 16174, 451, 2547, 3783, 979, -2660, -749, -231, 262, 334, 219, 427, 760, 650, 365, 211, 437
372201953, -349, 16174, 451, 2547, 3783, 979, -2660, -749, -231, 262, 334, 219, 427, 760, 650, 365, 211, 437
372202741, -349, 16174, 451, 2547, 3783, 979, -2660, -749, -231, 262, 334, 219, 427, 760, 650, 365, 211, 437
372203566, -349, 16174, 451, 2547, 3783, 979, -2660, -749, -231, 262, 334, 219, 427, 760, 650, 365, 211, 437
372207767, -349, 16174, 451, 2547, 3783, 979, -2660, -749, -231, 262, 334, 219, 427, 760, 650, 365, 211, 437
372208743, -298, 16178, 429, 2533, 3880, 1359, -2590, -298, -85, 80, 334, 219, 427, 760, 650, 365, 211, 437
372209518, -298, 16178, 429, 2533, 3880, 1359, -2590, -298, -85, 80, 390, 193, 421, 809, 643, 407, 208, 533
372216266, -298, 16178, 429, 2533, 3880, 1359, -2590, -298, -85, 80, 390, 193, 421, 809, 643, 407, 208, 533
372217047, -298, 16178, 429, 2533, 3880, 1359, -2590, -298, -85, 80, 390, 193, 421, 809, 643, 407, 208, 533
372217895, -298, 16178, 429, 2533, 3880, 1359, -2590, -298, -85, 80, 390, 193, 421, 809, 643, 407, 208, 533
372218692, -298, 16178, 429, 2533, 3880, 1359, -2590, -298, -85, 80, 390, 193, 421, 809, 643, 407, 208, 533
372223653, -298, 16178, 429, 2533, 3880, 1359, -2590, -298, -85, 80, 390, 193, 421, 809, 643, 407, 208, 533
372224451, -298, 16178, 429, 2533, 3880, 1359, -2590, -298, -85, 80, 390, 193, 421, 809, 643, 407, 208, 533
372225306, -298, 16178, 429, 2533, 3880, 1359, -2590, -298, -85, 80, 390, 193, 421, 809, 643, 407, 208, 533
372226071, -298, 16178, 429, 2533, 3880, 1359, -2590, -298, -85, 80, 390, 193, 421, 809, 643, 407, 208, 533
372228897, -298, 16178, 429, 2533, 3880, 1359, -2590, -298, -85, 80, 390, 193, 421, 809, 643, 407, 208, 533
372237217, -411, 16172, 478, 2547, 3811, 918, -2601, 664, 96, -175, 390, 193, 421, 809, 643, 407, 208, 533
372246221, -411, 16172, 478, 2547, 3811, 918, -2601, 664, 96, -175, 507, 211, 449, 824, 666, 406, 228, 670
372247088, -411, 16172, 478, 2547, 3811, 918, -2601, 664, 96, -175, 507, 211, 449, 824, 666, 406, 228, 670
372247890, -411, 16172, 478, 2547, 3811, 918, -2601, 664, 96, -175, 507, 211, 449, 824, 666, 406, 228, 670
372248709, -411, 16172, 478, 2547, 3811, 918, -2601, 664, 96, -175, 507, 211, 449, 824, 666, 406, 228, 670
372253620, -411, 16172, 478, 2547, 3811, 918, -2601, 664, 96, -175, 507, 211, 449, 824, 666, 406, 228, 670
372254445, -411, 16172, 478, 2547, 3811, 918, -2601, 664, 96, -175, 507, 211, 449, 824, 666, 406, 228, 670
372255249, -411, 16172, 478, 2547, 3811, 918, -2601, 664, 96, -175, 507, 211, 449, 824, 666, 406, 228, 670
372256112, -411, 16172, 478, 2547, 3811, 918, -2601, 664, 96, -175, 507, 211, 449, 824, 666, 406, 228, 670
372261271, -618, 16157, 498, 2596, 3865, 991, -2778, 1152, 313, 61, 507, 211, 449, 824, 666, 406, 228, 670
372262113, -618, 16157, 498, 2596, 3865, 991, -2778, 1152, 313, 61, 554, 206, 412, 807, 671, 400, 219, 676
372262874, -618, 16157, 498, 2596, 3865, 991, -2778, 1152, 313, 61, 554, 206, 412, 807, 671, 400, 219, 676
372263706, -618, 16157, 498, 2596, 3865, 991, -2778, 1152, 313, 61, 554, 206, 412, 807, 671, 400, 219, 676
372268592, -618, 16157, 498, 2596, 3865, 991, -2778, 1152, 313, 61, 554, 206, 412, 807, 671, 400, 219, 676
372269392, -618, 16157, 498, 2596, 3865, 991, -2778, 1152, 313, 61, 554, 206, 412, 807, 671, 400, 219, 676
372270218, -618, 16157, 498, 2596, 3865, 991, -2778, 1152, 313, 61, 554, 206, 412, 807, 671, 400, 219, 676
372271072, -618, 16157, 498, 2596, 3865, 991, -2778, 1152, 313, 61, 554, 206, 412, 807, 671, 400, 219, 676
372276223, -618, 16157, 498, 2596, 3865, 991, -2778, 1152, 313, 61, 554, 206, 412, 807, 671, 400, 219, 676
372277143, -804, 16136, 512, 2671, 3795, 1522, -2957, 1030, 458, 66, 554, 206, 412, 807, 671, 400, 219, 676
372277922, -804, 16136, 512, 2671, 3795, 1522, -2957, 1030, 458, 66, 515, 179, 363, 702, 558, 367, 201, 624
372278746, -804, 16136, 512, 2671, 3795, 1522, -2957, 1030, 458, 66, 515, 179, 363, 702, 558, 367, 201, 624
372283743, -804, 16136, 512, 2671, 3795, 1522, -2957, 1030, 458, 66, 515, 179, 363, 702, 558, 367, 201, 624
372284583, -804, 16136, 512, 2671, 3795, 1522, -2957, 1030, 458, 66, 515, 179, 363, 702, 558, 367, 201, 624
372285368, -804, 16136, 512, 2671, 3795, 1522, -2957, 1030, 458, 66, 515, 179, 363, 702, 558, 367, 201, 624
372286240, -804, 16136, 512, 2671, 3795, 1522, -2957, 1030, 458, 66, 515, 179, 363, 702, 558, 367, 201, 624
372291117, -804, 16136, 512, 2671, 3795, 1522, -2957, 1030, 458, 66, 515, 179, 363, 702, 558, 367, 201, 624
372291941, -804, 16136, 512, 2671, 3795, 1522, -2957, 1030, 458, 66, 515, 179, 363, 702, 558, 367, 201, 624
372292742, -804, 16136, 512, 2671, 3795, 1522, -2957, 1030, 458, 66, 515, 179, 363, 702, 558, 367, 201, 624
372293607, -804, 16136, 512, 2671, 3795, 1522, -2957, 1030, 458, 66, 515, 179, 363, 702, 558, 367, 201, 624
372298643, -804, 16136, 512, 2671, 3795, 1522, -2957, 1030, 458, 66, 515, 179, 363, 702, 558, 367, 201, 624
372299576, -846, 16121, 541, 2741, 3638, 1742, -2611, 248, 400, -143, 515, 179, 363, 702, 558, 367, 201, 624
372300421, -846, 16121, 541, 2741, 3638, 1742, -2611, 248, 400, -143, 522, 164, 254, 505, 390, 293, 197, 646
372301238, -846, 16121, 541, 2741, 3638, 1742, -2611, 248, 400, -143, 522, 164, 254, 505, 390, 293, 197, 646
372306232, -846, 16121, 541, 2741, 3638, 1742, -2611, 248, 400, -143, 522, 164, 254, 505, 390, 293, 197, 646
372307065, -846, 16121, 541, 2741, 3638, 1742, -2611, 248, 400, -143, 522, 164, 254, 505, 390, 293, 197, 646
372307886, -846, 16121, 541, 2741, 3638, 1742, -2611, 248, 400, -143, 522, 164, 254, 505, 390, 293, 197, 646
372308666, -846, 16121, 541, 2741, 3638, 1742, -2611, 248, 400, -143, 522, 164, 254, 505, 390, 293, 197, 646
372313605, -846, 16121, 541, 2741, 3638, 1742, -2611, 248, 400, -143, 522, 164, 254, 505, 390, 293, 197, 646
372314419, -846, 16121, 541, 2741, 3638, 1742, -2611, 248, 400, -143, 522, 164, 254, 505, 390, 293, 197, 646
372315284, -846, 16121, 541, 2741, 3638, 1742, -2611, 248, 400, -143, 522, 164, 254, 505, 390, 293, 197, 646
372316049, -846, 16121, 541, 2741, 3638, 1742, -2611, 248, 400, -143, 522, 164, 254, 505, 390, 293, 197, 646
372321130, -846, 16121, 541, 2741, 3638, 1742, -2611, 248, 400, -143, 522, 164, 254, 505, 390, 293, 197, 646
372322045, -659, 16123, 528, 2786, 3764, 1283, -2134, -1048, 218, -118, 522, 164, 254, 505, 390, 293, 197, 646
372322895, -659, 16123, 528, 2786, 3764, 1283, -2134, -1048, 218, -118, 483, 157, 227, 430, 340, 204, 185, 584
372323706, -659, 16123, 528, 2786, 3764, 1283, -2134, -1048, 218, -118, 522, 164, 254, 505, 390, 293, 197, 646
372328717, -659, 16123, 528, 2786, 3764, 1283, -2134, -1048, 218, -118, 483, 157, 227, 430, 340, 204, 185, 584
372329495, -659, 16123, 528, 2786, 3764, 1283, -2134, -1048, 218, -118, 483, 157, 227, 430, 340, 204, 185, 584
372330346, -659, 16123, 528, 2786, 3764, 1283, -2134, -1048, 218, -118, 483, 157, 227, 430, 340, 204, 185, 584
372331217, -659, 16123, 528, 2786, 3764, 1283, -2134, -1048, 218, -118, 483, 157, 227, 430, 340, 204, 185, 584
372336163, -659, 16123, 528, 2786, 3764, 1283, -2134, -1048, 218, -118, 483, 157, 227, 430, 340, 204, 185, 584
372336958, -659, 16123, 528, 2786, 3764, 1283, -2134, -1048, 218, -118, 483, 157, 227, 430, 340, 204, 185, 584
372337745, -659, 16123, 528, 2786, 3764, 1283, -2134, -1048, 218, -118, 483, 157, 227, 430, 340, 204, 185, 584
372338569, -659, 16123, 528, 2786, 3764, 1283, -2134, -1048, 218, -118, 483, 157, 227, 430, 340, 204, 185, 584
372343645, -659, 16123, 528, 2786, 3764, 1283, -2134, -1048, 218, -118, 483, 157, 227, 430, 340, 204, 185, 584
372344615, -264, 16133, 428, 2807, 4148, 740, -2095, -2277, 54, 173, 483, 157, 227, 430, 340, 204, 185, 584
372345440, -264, 16133, 428, 2807, 4148, 740, -2095, -2277, 54, 173, 364, 147, 226, 389, 351, 247, 138, 417
372346230, -264, 16133, 428, 2807, 4148, 740, -2095, -2277, 54, 173, 364, 147, 226, 389, 351, 247, 138, 417
372351253, -264, 16133, 428, 2807, 4148, 740, -2095, -2277, 54, 173, 364, 147, 226, 389, 351, 247, 138, 417
372352049, -264, 16133, 428, 2807, 4148, 740, -2095, -2277, 54, 173, 364, 147, 226, 389, 351, 247, 138, 417
372352862, -264, 16133, 428, 2807, 4148, 740, -2095, -2277, 54, 173, 364, 147, 226, 389, 351, 247, 138, 417
372353683, -264, 16133, 428, 2807, 4148, 740, -2095, -2277, 54, 173, 364, 147, 226, 389, 351, 247, 138, 417
372358649, -264, 16133, 428, 2807, 4148, 740, -2095, -2277, 54, 173, 364, 147, 226, 389, 351, 247, 138, 417
372359468, -264, 16133, 428, 2807, 4148, 740, -2095, -2277, 54, 173, 364, 147, 226, 389, 351, 247, 138, 417
372360266, -264, 16133, 428, 2807, 4148, 740, -2095, -2277, 54, 173, 364, 147, 226, 389, 351, 247, 138, 417
372361104, -264, 16133, 428, 2807, 4148, 740, -2095, -2277, 54, 173, 364, 147, 226, 389, 351, 247, 138, 417
372366144, -264, 16133, 428, 2807, 4148, 740, -2095, -2277, 54, 173, 364, 147, 226, 389, 351, 247, 138, 417
372367079, 65, 16146, 312, 2763, 3895, 244, -2424, -1923, -292, 328, 364, 147, 226, 389, 351, 247, 138, 417
372367887, 65, 16146, 312, 2763, 3895, 244, -2424, -1923, -292, 328, 288, 181, 311, 405, 379, 330, 132, 398
372368692, 65, 16146, 312, 2763, 3895, 244, -2424, -1923, -292, 328, 288, 181, 311, 405, 379, 330, 132, 398
372373720, 65, 16146, 312, 2763, 3895, 244, -2424, -1923, -292, 328, 288, 181, 311, 405, 379, 330, 132, 398
372374519, 65, 16146, 312, 2763, 3895, 244, -2424, -1923, -292, 328, 288, 181, 311, 405, 379, 330, 132, 398
372375371, 65, 16146, 312, 2763, 3895, 244, -2424, -1923, -292, 328, 288, 181, 311, 405, 379, 330, 132, 398
372376222, 65, 16146, 312, 2763, 3895, 244, -2424, -1923, -292, 328, 288, 181, 311, 405, 379, 330, 132, 398
372381122, 65, 16146, 312, 2763, 3895, 244, -2424, -1923, -292, 328, 288, 181, 311, 405, 379, 330, 132, 398
372381924, 65, 16146, 312, 2763, 3895, 244, -2424, -1923, -292, 328, 288, 181, 311, 405, 379, 330, 132, 398
372382746, 65, 16146, 312, 2763, 3895, 244, -2424, -1923, -292, 328, 288, 181, 311, 405, 379, 330, 132, 398
372383565, 65, 16146, 312, 2763, 3895, 244, -2424, -1923, -292, 328, 288, 181, 311, 405, 379, 330, 132, 398
372388645, 65, 16146, 312, 2763, 3895, 244, -2424, -1923, -292, 328, 288, 181, 311, 405, 379, 330, 132, 398
372389545, 100, 16156, 238, 2706, 3857, 493, -2798, -258, -331, 377, 288, 181, 311, 405, 379, 330, 132, 398
372390352, 100, 16156, 238, 2706, 3857, 493, -2798, -258, -331, 377, 282, 189, 343, 389, 386, 353, 133, 375
372391193, 100, 16156, 238, 2706, 3857, 493, -2798, -258, -331, 377, 282, 189, 343, 389, 386, 353, 133, 375
372396193, 100, 16156, 238, 2706, 3857, 493, -2798, -258, -331, 377, 282, 189, 343, 389, 386, 353, 133, 375
372396970, 100, 16156, 238, 2706, 3857, 493, -2798, -258, -331, 377, 282, 189, 343, 389, 386, 353, 133, 375
372397793, 100, 16156, 238, 2706, 3857, 493, -2798, -258, -331, 377, 282, 189, 343, 389, 386, 353, 133, 375
372398592, 100, 16156, 238, 2706, 3857, 493, -2798, -258, -331, 377, 282, 189, 343, 389, 386, 353, 133, 375
372403655, 100, 16156, 238, 2706, 3857, 493, -2798, -258, -331, 377, 282, 189, 343, 389, 386, 353, 133, 375
372404488, 100, 16156, 238, 2706, 3857, 493, -2798, -258, -331, 377, 282, 189, 343, 389, 386, 353, 133, 375
372405269, 100, 16156, 238, 2706, 3857, 493, -2798, -258, -331, 377, 282, 189, 343, 389, 386, 353, 133, 375
372406092, 100, 16156, 238, 2706, 3857, 493, -2798, -258, -331, 377, 282, 189, 343, 389, 386, 353, 133, 375
372411143, 100, 16156, 238, 2706, 3857, 493, -2798, -258, -331, 377, 282, 189, 343, 389, 386, 353, 133, 375
372412095, -84, 16157, 237, 2702, 3905, 901, -2624, 1017, -8, 175, 282, 189, 343, 389, 386, 353, 133, 375
372412899, -84, 16157, 237, 2702, 3905, 901, -2624, 1017, -8, 175, 233, 182, 341, 385, 375, 354, 153, 273
372413758, -84, 16157, 237, 2702, 3905, 901, -2624, 1017, -8, 175, 233, 182, 341, 385, 375, 354, 153, 273
372418718, -84, 16157, 237, 2702, 3905, 901, -2624, 1017, -8, 175, 233, 182, 341, 385, 375, 354, 153, 273
372419584, -84, 16157, 237, 2702, 3905, 901, -2624, 1017, -8, 175, 233, 182, 341, 385, 375, 354, 153, 273
372420343, -84, 16157, 237, 2702, 3905, 901, -2624, 1017, -8, 175, 233, 182, 341, 385, 375, 354, 153, 273
372421229, -84, 16157, 237, 2702, 3905, 901, -2624, 1017, -8, 175, 233, 182, 341, 385, 375, 354, 153, 273
372426119, -84, 16157, 237, 2702, 3905, 901, -2624, 1017, -8, 175, 233, 182, 341, 385, 375, 354, 153, 273
372426959, -84, 16157, 237, 2702, 3905, 901, -2624, 1017, -8, 175, 233, 182, 341, 385, 375, 354, 153, 273
372427765, -84, 16157, 237, 2702, 3905, 901, -2624, 1017, -8, 175, 233, 182, 341, 385, 375, 354, 153, 273
372428579, -84, 16157, 237, 2702, 3905, 901, -2624, 1017, -8, 175, 233, 182, 341, 385, 375, 354, 153, 273
372433628, -84, 16157, 237, 2702, 3905, 901, -2624, 1017, -8, 175, 233, 182, 341, 385, 375, 354, 153, 273
372434569, -271, 16151, 248, 2728, 3883, 1375, -2510, 1040, 163, 112, 233, 182, 341, 385, 375, 354, 153, 273
372435360, -271, 16151, 248, 2728, 3883, 1375, -2510, 1040, 163, 112, 202, 175, 335, 367, 374, 351, 144, 242
372436222, -271, 16151, 248, 2728, 3883, 1375, -2510, 1040, 163, 112, 202, 175, 335, 367, 374, 351, 144, 242
372441255, -271, 16151, 248, 2728, 3883, 1375, -2510, 1040, 163, 112, 202, 175, 335, 367, 374, 351, 144, 242
372442042, -271, 16151, 248, 2728, 3883, 1375, -2510, 1040, 163, 112, 202, 175, 335, 367, 374, 351, 144, 242
372442816, -271, 16151, 248, 2728, 3883, 1375, -2510, 1040, 163, 112, 202, 175, 335, 367, 374, 351, 144, 242
372443631, -271, 16151, 248, 2728, 3883, 1375, -2510, 1040, 163, 112, 202, 175, 335, 367, 374, 351, 144, 242
372448592, -271, 16151, 248, 2728, 3883, 1375, -2510, 1040, 163, 112, 202, 175, 335, 367, 374, 351, 144, 242
372449434, -271, 16151, 248, 2728, 3883, 1375, -2510, 1040, 163, 112, 202, 175, 335, 367, 374, 351, 144, 242
372450241, -271, 16151, 248, 2728, 3883, 1375, -2510, 1040, 163, 112, 202, 175, 335, 367, 374, 351, 144, 242
372451044, -271, 16151, 248, 2728, 3883, 1375, -2510, 1040, 163, 112, 202, 175, 335, 367, 374, 351, 144, 242
372456251, -271, 16151, 248, 2728, 3883, 1375, -2510, 1040, 163, 112, 202, 175, 335, 367, 374, 351, 144, 242
372457129, -346, 16144, 244, 2758, 3843, 1522, -2467, 405, 181, 83, 202, 175, 335, 367, 374, 351, 144, 242
372457900, -346, 16144, 244, 2758, 3843, 1522, -2467, 405, 181, 83, 188, 156, 293, 315, 306, 309, 141, 221
372458730, -346, 16144, 244, 2758, 3843, 1522, -2467, 405, 181, 83, 188, 156, 293, 315, 306, 309, 141, 221
372463744, -346, 16144, 244, 2758, 3843, 1522, -2467, 405, 181, 83, 188, 156, 293, 315, 306, 309, 141, 221
372464584, -346, 16144, 244, 2758, 3843, 1522, -2467, 405, 181, 83, 188, 156, 293, 315, 306, 309, 141, 221
372465381, -346, 16144, 244, 2758, 3843, 1522, -2467, 405, 181, 83, 188, 156, 293, 315, 306, 309, 141, 221
372466260, -346, 16144, 244, 2758, 3843, 1522, -2467, 405, 181, 83, 188, 156, 293, 315, 306, 309, 141, 221
372471104, -346, 16144, 244, 2758, 3843, 1522, -2467, 405, 181, 83, 188, 156, 293, 315, 306, 309, 141, 221
372471920, -346, 16144, 244, 2758, 3843, 1522, -2467, 405, 181, 83, 188, 156, 293, 315, 306, 309, 141, 221
372472718, -346, 16144, 244, 2758, 3843, 1522, -2467, 405, 181, 83, 188, 156, 293, 315, 306, 309, 141, 221
372473569, -346, 16144, 244, 2758, 3843, 1522, -2467, 405, 181, 83, 188, 156, 293, 315, 306, 309, 141, 221
372478652, -346, 16144, 244, 2758, 3843, 1522, -2467, 405, 181, 83, 188, 156, 293, 315, 306, 309, 141, 221
372479607, -300, 16140, 225, 2786, 3797, 1355, -2453, -273, 155, 57, 188, 156, 293, 315, 306, 309, 141, 221
372480407, -300, 16140, 225, 2786, 3797, 1355, -2453, -273, 155, 57, 168, 101, 186, 163, 163, 193, 137, 207
372481245, -300, 16140, 225, 2786, 3797, 1355, -2453, -273, 155, 57, 168, 101, 186, 163, 163, 193, 137, 207
372486218, -300, 16140, 225, 2786, 3797, 1355, -2453, -273, 155, 57, 168, 101, 186, 163, 163, 193, 137, 207
372487157, -300, 16140, 225, 2786, 3797, 1355, -2453, -273, 155, 57, 168, 101, 186, 163, 163, 193, 137, 207
372487845, -300, 16140, 225, 2786, 3797, 1355, -2453, -273, 155, 57, 168, 101, 186, 163, 163, 193, 137, 207
372488644, -300, 16140, 225, 2786, 3797, 1355, -2453, -273, 155, 57, 168, 101, 186, 163, 163, 193, 137, 207
372493583, -300, 16140, 225, 2786, 3797, 1355, -2453, -273, 155, 57, 168, 101, 186, 163, 163, 193, 137, 207
372494394, -300, 16140, 225, 2786, 3797, 1355, -2453, -273, 155, 57, 168, 101, 186, 163, 163, 193, 137, 207
372495218, -300, 16140, 225, 2786, 3797, 1355, -2453, -273, 155, 57, 168, 101, 186, 163, 163, 193, 137, 207
372496020, -300, 16140, 225, 2786, 3797, 1355, -2453, -273, 155, 57, 168, 101, 186, 163, 163, 193, 137, 207
372501111, -300, 16140, 225, 2786, 3797, 1355, -2453, -273, 155, 57, 168, 101, 186, 163, 163, 193, 137, 207
372502042, -187, 16140, 191, 2802, 3815, 1097, -2524, -657, 82, 80, 168, 101, 186, 163, 163, 193, 137, 207
372502868, -187, 16140, 191, 2802, 3815, 1097, -2524, -657, 82, 80, 146, 78, 108, 134, 110, 128, 134, 180
372503706, -187, 16140, 191, 2802, 3815, 1097, -2524, -657, 82, 80, 146, 78, 108, 134, 110, 128, 134, 180
372508693, -187, 16140, 191, 2802, 3815, 1097, -2524, -657, 82, 80, 146, 78, 108, 134, 110, 128, 134, 180
372509514, -187, 16140, 191, 2802, 3815, 1097, -2524, -657, 82, 80, 146, 78, 108, 134, 110, 128, 134, 180
372510317, -187, 16140, 191, 2802, 3815, 1097, -2524, -657, 82, 80, 146, 78, 108, 134, 110, 128, 134, 180
372511145, -187, 16140, 191, 2802, 3815, 1097, -2524, -657, 82, 80, 146, 78, 108, 134, 110, 128, 134, 180
372516114, -187, 16140, 191, 2802, 3815, 1097, -2524, -657, 82, 80, 146, 78, 108, 134, 110, 128, 134, 180
372516915, -187, 16140, 191, 2802, 3815, 1097, -2524, -657, 82, 80, 146, 78, 108, 134, 110, 128, 134, 180
372517702, -187, 16140, 191, 2802, 3815, 1097, -2524, -657, 82, 80, 146, 78, 108, 134, 110, 128, 134, 180
372518494, -187, 16140, 191, 2802, 3815, 1097, -2524, -657, 82, 80, 146, 78, 108, 134, 110, 128, 134, 180
372523645, -187, 16140, 191, 2802, 3815, 1097, -2524, -657, 82, 80, 146, 78, 108, 134, 110, 128, 134, 180
372524624, -97, 16141, 161, 2799, 3877, 910, -2518, -523, -22, 79, 146, 78, 108, 134, 110, 128, 134, 180
372525413, -97, 16141, 161, 2799, 3877, 910, -2518, -523, -22, 79, 98, 72, 96, 99, 101, 128, 111, 124
372526229, -97, 16141, 161, 2799, 3877, 910, -2518, -523, -22, 79, 98, 72, 96, 99, 101, 128, 111, 124
372531218, -97, 16141, 161, 2799, 3877, 910, -2518, -523, -22, 79, 98, 72, 96, 99, 101, 128, 111, 124
372532074, -97, 16141, 161, 2799, 3877, 910, -2518, -523, -22, 79, 98, 72, 96, 99, 101, 128, 111, 124
372532846, -97, 16141, 161, 2799, 3877, 910, -2518, -523, -22, 79, 98, 72, 96, 99, 101, 128, 111, 124
372533691, -97, 16141, 161, 2799, 3877, 910, -2518, -523, -22, 79, 98, 72, 96, 99, 101, 128, 111, 124
372538618, -97, 16141, 161, 2799, 3877, 910, -2518, -523, -22, 79, 98, 72, 96, 99, 101, 128, 111, 124
372539457, -97, 16141, 161, 2799, 3877, 910, -2518, -523, -22, 79, 98, 72, 96, 99, 101, 128, 111, 124
372540267, -97, 16141, 161, 2799, 3877, 910, -2518, -523, -22, 79, 98, 72, 96, 99, 101, 128, 111, 124
372541073, -97, 16141, 161, 2799, 3877, 910, -2518, -523, -22, 79, 98, 72, 96, 99, 101, 128, 111, 124
372546129, -97, 16141, 161, 2799, 3877, 910, -2518, -523, -22, 79, 98, 72, 96, 99, 101, 128, 111, 124
372547104, -73, 16143, 144, 2792, 3935, 875, -2478, -150, -44, 72, 98, 72, 96, 99, 101, 128, 111, 124
372547869, -73, 16143, 144, 2792, 3935, 875, -2478, -150, -44, 72, 97, 90, 121, 94, 104, 164, 128, 141
372548735, -73, 16143, 144, 2792, 3935, 875, -2478, -150, -44, 72, 97, 90, 121, 94, 104, 164, 128, 141
372552792, -73, 16143, 144, 2792, 3935, 875, -2478, -150, -44, 72, 97, 90, 121, 94, 104, 164, 128, 141
372553657, -73, 16143, 144, 2792, 3935, 875, -2478, -150, -44, 72, 97, 90, 121, 94, 104, 164, 128, 141
372554443, -73, 16143, 144, 2792, 3935, 875, -2478, -150, -44, 72, 97, 90, 121, 94, 104, 164, 128, 141
372561117, -73, 16143, 144, 2792, 3935, 875, -2478, -150, -44, 72, 97, 90, 121, 94, 104, 164, 128, 141
372561898, -73, 16143, 144, 2792, 3935, 875, -2478, -150, -44, 72, 97, 90, 121, 94, 104, 164, 128, 141
372562745, -73, 16143, 144, 2792, 3935, 875, -2478, -150, -44, 72, 97, 90, 121, 94, 104, 164, 128, 141
372563544, -73, 16143, 144, 2792, 3935, 875, -2478, -150, -44, 72, 97, 90, 121, 94, 104, 164, 128, 141
372568619, -73, 16143, 144, 2792, 3935, 875, -2478, -150, -44, 72, 97, 90, 121, 94, 104, 164, 128, 141
372569419, -73, 16143, 144, 2792, 3935, 875, -2478, -150, -44, 72, 97, 90, 121, 94, 104, 164, 128, 141
372570368, -110, 16144, 145, 2785, 3931, 1017, -2355, 207, -37, 31, 97, 90, 121, 94, 104, 164, 128, 141
372571245, -110, 16144, 145, 2785, 3931, 1017, -2355, 207, -37, 31, 97, 92, 118, 88, 101, 190, 133, 146
372576240, -110, 16144, 145, 2785, 3931, 1017, -2355, 207, -37, 31, 97, 92, 118, 88, 101, 190, 133, 146
372576996, -110, 16144, 145, 2785, 3931, 1017, -2355, 207, -37, 31, 97, 92, 118, 88, 101, 190, 133, 146
372577831, -110, 16144, 145, 2785, 3931, 1017, -2355, 207, -37, 31, 97, 92, 118, 88, 101, 190, 133, 146
372578617, -110, 16144, 145, 2785, 3931, 1017, -2355, 207, -37, 31, 97, 92, 118, 88, 101, 190, 133, 146
372583610, -110, 16144, 145, 2785, 3931, 1017, -2355, 207, -37, 31, 97, 92, 118, 88, 101, 190, 133, 146
372584419, -110, 16144, 145, 2785, 3931, 1017, -2355, 207, -37, 31, 97, 92, 118, 88, 101, 190, 133, 146
372585243, -110, 16144, 145, 2785, 3931, 1017, -2355, 207, -37, 31, 97, 92, 118, 88, 101, 190, 133, 146
372586045, -110, 16144, 145, 2785, 3931, 1017, -2355, 207, -37, 31, 97, 92, 118, 88, 101, 190, 133, 146
372591135, -110, 16144, 145, 2785, 3931, 1017, -2355, 207, -37, 31, 97, 92, 118, 88, 101, 190, 133, 146
372592067, -177, 16141, 153, 2800, 3877, 1043, -2432, 374, 88, 14, 97, 92, 118, 88, 101, 190, 133, 146
372592884, -177, 16141, 153, 2800, 3877, 1043, -2432, 374, 88, 14, 92, 94, 116, 106, 95, 212, 182, 144
372593715, -177, 16141, 153, 2800, 3877, 1043, -2432, 374, 88, 14, 92, 94, 116, 106, 95, 212, 182, 144
372598719, -177, 16141, 153, 2800, 3877, 1043, -2432, 374, 88, 14, 92, 94, 116, 106, 95, 212, 182, 144
372599545, -177, 16141, 153, 2800, 3877, 1043, -2432, 374, 88, 14, 92, 94, 116, 106, 95, 212, 182, 144
372600342, -177, 16141, 153, 2800, 3877, 1043, -2432, 374, 88, 14, 92, 94, 116, 106, 95, 212, 182, 144
372601227, -177, 16141, 153, 2800, 3877, 1043, -2432, 374, 88, 14, 92, 94, 116, 106, 95, 212, 182, 144
372606129, -177, 16141, 153, 2800, 3877, 1043, -2432, 374, 88, 14, 92, 94, 116, 106, 95, 212, 182, 144
372606956, -177, 16141, 153, 2800, 3877, 1043, -2432, 374, 88, 14, 92, 94, 116, 106, 95, 212, 182, 144
372607766, -177, 16141, 153, 2800, 3877, 1043, -2432, 374, 88, 14, 92, 94, 116, 106, 95, 212, 182, 144
372608570, -177, 16141, 153, 2800, 3877, 1043, -2432, 374, 88, 14, 92, 94, 116, 106, 95, 212, 182, 144
372613621, -177, 16141, 153, 2800, 3877, 1043, -2432, 374, 88, 14, 92, 94, 116, 106, 95, 212, 182, 144
372614548, -224, 16138, 156, 2813, 3781, 1193, -2633, 263, 78, 30, 92, 94, 116, 106, 95, 212, 182, 144
372615370, -224, 16138, 156, 2813, 3781, 1193, -2633, 263, 78, 30, 114, 109, 136, 110, 140, 271, 364, 156
372616216, -224, 16138, 156, 2813, 3781, 1193, -2633, 263, 78, 30, 114, 109, 136, 110, 140, 271, 364, 156
372621217, -224, 16138, 156, 2813, 3781, 1193, -2633, 263, 78, 30, 114, 109, 136, 110, 140, 271, 364, 156
372622025, -224, 16138, 156, 2813, 3781, 1193, -2633, 263, 78, 30, 114, 109, 136, 110, 140, 271, 364, 156
372622818, -224, 16138, 156, 2813, 3781, 1193, -2633, 263, 78, 30, 114, 109, 136, 110, 140, 271, 364, 156
372623655, -224, 16138, 156, 2813, 3781, 1193, -2633, 263, 78, 30, 114, 109, 136, 110, 140, 271, 364, 156
372628593, -224, 16138, 156, 2813, 3781, 1193, -2633, 263, 78, 30, 114, 109, 136, 110, 140, 271, 364, 156
372629421, -224, 16138, 156, 2813, 3781, 1193, -2633, 263, 78, 30, 114, 109, 136, 110, 140, 271, 364, 156
372630217, -224, 16138, 156, 2813, 3781, 1193, -2633, 263, 78, 30, 114, 109, 136, 110, 140, 271, 364, 156
372631061, -224, 16138, 156, 2813, 3781, 1193, -2633, 263, 78, 30, 114, 109, 136, 110, 140, 271, 364, 156
372636226, -224, 16138, 156, 2813, 3781, 1193, -2633, 263, 78, 30, 114, 109, 136, 110, 140, 271, 364, 156
372637097, -239, 16139, 156, 2806, 3833, 1197, -2716, 82, -39, 12, 114, 109, 136, 110, 140, 271, 364, 156
372637897, -239, 16139, 156, 2806, 3833, 1197, -2716, 82, -39, 12, 115, 132, 159, 145, 192, 273, 426, 167
372638724, -239, 16139, 156, 2806, 3833, 1197, -2716, 82, -39, 12, 114, 109, 136, 110, 140, 271, 364, 156
372643726, -239, 16139, 156, 2806, 3833, 1197, -2716, 82, -39, 12, 115, 132, 159, 145, 192, 273, 426, 167
372644544, -239, 16139, 156, 2806, 3833, 1197, -2716, 82, -39, 12, 115, 132, 159, 145, 192, 273, 426, 167
372645370, -239, 16139, 156, 2806, 3833, 1197, -2716, 82, -39, 12, 115, 132, 159, 145, 192, 273, 426, 167
372646216, -239, 16139, 156, 2806, 3833, 1197, -2716, 82, -39, 12, 115, 132, 159, 145, 192, 273, 426, 167
372651115, -239, 16139, 156, 2806, 3833, 1197, -2716, 82, -39, 12, 115, 132, 159, 145, 192, 273, 426, 167
372651971, -239, 16139, 156, 2806, 3833, 1197, -2716, 82, -39, 12, 115, 132, 159, 145, 192, 273, 426, 167
372652744, -239, 16139, 156, 2806, 3833, 1197, -2716, 82, -39, 12, 115, 132, 159, 145, 192, 273, 426, 167
372653609, -239, 16139, 156, 2806, 3833, 1197, -2716, 82, -39, 12, 115, 132, 159, 145, 192, 273, 426, 167
372658665, -239, 16139, 156, 2806, 3833, 1197, -2716, 82, -39, 12, 115, 132, 159, 145, 192, 273, 426, 167
372659600, -247, 16140, 173, 2796, 3910, 982, -2540, 58, -57, -86, 115, 132, 159, 145, 192, 273, 426, 167
372660395, -247, 16140, 173, 2796, 3910, 982, -2540, 58, -57, -86, 310, 306, 226, 202, 384, 394, 713, 161
372661258, -247, 16140, 173, 2796, 3910, 982, -2540, 58, -57, -86, 310, 306, 226, 202, 384, 394, 713, 161
372666220, -247, 16140, 173, 2796, 3910, 982, -2540, 58, -57, -86, 310, 306, 226, 202, 384, 394, 713, 161
372667047, -247, 16140, 173, 2796, 3910, 982, -2540, 58, -57, -86, 310, 306, 226, 202, 384, 394, 713, 161
372667864, -247, 16140, 173, 2796, 3910, 982, -2540, 58, -57, -86, 310, 306, 226, 202, 384, 394, 713, 161
372668643, -247, 16140, 173, 2796, 3910, 982, -2540, 58, -57, -86, 310, 306, 226, 202, 384, 394, 713, 161
372673633, -247, 16140, 173, 2796, 3910, 982, -2540, 58, -57, -86, 310, 306, 226, 202, 384, 394, 713, 161
372674418, -247, 16140, 173, 2796, 3910, 982, -2540, 58, -57, -86, 310, 306, 226, 202, 384, 394, 713, 161
372675259, -247, 16140, 173, 2796, 3910, 982, -2540, 58, -57, -86, 310, 306, 226, 202, 384, 394, 713, 161
372676068, -247, 16140, 173, 2796, 3910, 982, -2540, 58, -57, -86, 310, 306, 226, 202, 384, 394, 713, 161
372681158, -247, 16140, 173, 2796, 3910, 982, -2540, 58, -57, -86, 310, 306, 226, 202, 384, 394, 713, 161
372682067, -270, 16140, 191, 2793, 3907, 1067, -2325, 147, -20, -74, 310, 306, 226, 202, 384, 394, 713, 161
372682895, -270, 16140, 191, 2793, 3907, 1067, -2325, 147, -20, -74, 410, 419, 273, 253, 540, 442, 803, 209
372683667, -270, 16140, 191, 2793, 3907, 1067, -2325, 147, -20, -74, 410, 419, 273, 253, 540, 442, 803, 209
372688696, -270, 16140, 191, 2793, 3907, 1067, -2325, 147, -20, -74, 410, 419, 273, 253, 540, 442, 803, 209
372689507, -270, 16140, 191, 2793, 3907, 1067, -2325, 147, -20, -74, 410, 419, 273, 253, 540, 442, 803, 209
372690319, -270, 16140, 191, 2793, 3907, 1067, -2325, 147, -20, -74, 410, 419, 273, 253, 540, 442, 803, 209
372691127, -270, 16140, 191, 2793, 3907, 1067, -2325, 147, -20, -74, 410, 419, 273, 253, 540, 442, 803, 209
372696110, -270, 16140, 191, 2793, 3907, 1067, -2325, 147, -20, -74, 410, 419, 273, 253, 540, 442, 803, 209
372696902, -270, 16140, 191, 2793, 3907, 1067, -2325, 147, -20, -74, 410, 419, 273, 253, 540, 442, 803, 209
372697728, -270, 16140, 191, 2793, 3907, 1067, -2325, 147, -20, -74, 410, 419, 273, 253, 540, 442, 803, 209
372698521, -270, 16140, 191, 2793, 3907, 1067, -2325, 147, -20, -74, 410, 419, 273, 253, 540, 442, 803, 209
372703645, -270, 16140, 191, 2793, 3907, 1067, -2325, 147, -20, -74, 410, 419, 273, 253, 540, 442, 803, 209
372704621, -317, 16137, 227, 2806, 3834, 929, -2273, 290, 72, -158, 410, 419, 273, 253, 540, 442, 803, 209
372705394, -317, 16137, 227, 2806, 3834, 929, -2273, 290, 72, -158, 559, 508, 348, 446, 722, 591, 872, 286
372706245, -317, 16137, 227, 2806, 3834, 929, -2273, 290, 72, -158, 559, 508, 348, 446, 722, 591, 872, 286
372711217, -317, 16137, 227, 2806, 3834, 929, -2273, 290, 72, -158, 559, 508, 348, 446, 722, 591, 872, 286
372712085, -317, 16137, 227, 2806, 3834, 929, -2273, 290, 72, -158, 559, 508, 348, 446, 722, 591, 872, 286
372712843, -317, 16137, 227, 2806, 3834, 929, -2273, 290, 72, -158, 559, 508, 348, 446, 722, 591, 872, 286
372713697, -317, 16137, 227, 2806, 3834, 929, -2273, 290, 72, -158, 559, 508, 348, 446, 722, 591, 872, 286
372718623, -317, 16137, 227, 2806, 3834, 929, -2273, 290, 72, -158, 559, 508, 348, 446, 722, 591, 872, 286
372719410, -317, 16137, 227, 2806, 3834, 929, -2273, 290, 72, -158, 559, 508, 348, 446, 722, 591, 872, 286
372720219, -317, 16137, 227, 2806, 3834, 929, -2273, 290, 72, -158, 559, 508, 348, 446, 722, 591, 872, 286
372721046, -317, 16137, 227, 2806, 3834, 929, -2273, 290, 72, -158, 559, 508, 348, 446, 722, 591, 872, 286
372726120, -317, 16137, 227, 2806, 3834, 929, -2273, 290, 72, -158, 559, 508, 348, 446, 722, 591, 872, 286
372727098, -436, 16132, 257, 2816, 3817, 694, -2550, 686, 69, -54, 559, 508, 348, 446, 722, 591, 872, 286
372727873, -436, 16132, 257, 2816, 3817, 694, -2550, 686, 69, -54, 664, 602, 443, 575, 834, 639, 881, 328
372728684, -436, 16132, 257, 2816, 3817, 694, -2550, 686, 69, -54, 664, 602, 443, 575, 834, 639, 881, 328
372733696, -436, 16132, 257, 2816, 3817, 694, -2550, 686, 69, -54, 664, 602, 443, 575, 834, 639, 881, 328
372734540, -436, 16132, 257, 2816, 3817, 694, -2550, 686, 69, -54, 664, 602, 443, 575, 834, 639, 881, 328
372735318, -436, 16132, 257, 2816, 3817, 694, -2550, 686, 69, -54, 664, 602, 443, 575, 834, 639, 881, 328
372736217, -436, 16132, 257, 2816, 3817, 694, -2550, 686, 69, -54, 664, 602, 443, 575, 834, 639, 881, 328
372741094, -436, 16132, 257, 2816, 3817, 694, -2550, 686, 69, -54, 664, 602, 443, 575, 834, 639, 881, 328
372741928, -436, 16132, 257, 2816, 3817, 694, -2550, 686, 69, -54, 664, 602, 443, 575, 834, 639, 881, 328
372742719, -436, 16132, 257, 2816, 3817, 694, -2550, 686, 69, -54, 664, 602, 443, 575, 834, 639, 881, 328
372743569, -436, 16132, 257, 2816, 3817, 694, -2550, 686, 69, -54, 664, 602, 443, 575, 834, 639, 881, 328
372748595, -436, 16132, 257, 2816, 3817, 694, -2550, 686, 69, -54, 664, 602, 443, 575, 834, 639, 881, 328
372749555, -597, 16132, 308, 2777, 3971, 941, -3030, 937, -210, -121, 664, 602, 443, 575, 834, 639, 881, 328
372750349, -597, 16132, 308, 2777, 3971, 941, -3030, 937, -210, -121, 734, 645, 479, 612, 861, 666, 896, 348
372751210, -597, 16132, 308, 2777, 3971, 941, -3030, 937, -210, -121, 734, 645, 479, 612, 861, 666, 896, 348
372756217, -597, 16132, 308, 2777, 3971, 941, -3030, 937, -210, -121, 734, 645, 479, 612, 861, 666, 896, 348
372756993, -597, 16132, 308, 2777, 3971, 941, -3030, 937, -210, -121, 734, 645, 479, 612, 861, 666, 896, 348
372757819, -597, 16132, 308, 2777, 3971, 941, -3030, 937, -210, -121, 734, 645, 479, 612, 861, 666, 896, 348
372758618, -597, 16132, 308, 2777, 3971, 941, -3030, 937, -210, -121, 734, 645, 479, 612, 861, 666, 896, 348
372763658, -597, 16132, 308, 2777, 3971, 941, -3030, 937, -210, -121, 734, 645, 479, 612, 861, 666, 896, 348
372764443, -597, 16132, 308, 2777, 3971, 941, -3030, 937, -210, -121, 734, 645, 479, 612, 861, 666, 896, 348
372765282, -597, 16132, 308, 2777, 3971, 941, -3030, 937, -210, -121, 734, 645, 479, 612, 861, 666, 896, 348
372766071, -597, 16132, 308, 2777, 3971, 941, -3030, 937, -210, -121, 734, 645, 479, 612, 861, 666, 896, 348
372778644, -597, 16132, 308, 2777, 3971, 941, -3030, 937, -210, -121, 734, 645, 479, 612, 861, 666, 896, 348
372779545, -781, 16129, 422, 2738, 3576, 2106, -3233, 1129, -218, -442, 734, 645, 479, 612, 861, 666, 896, 348
372780408, -781, 16129, 422, 2738, 3576, 2106, -3233, 1129, -218, -442, 708, 604, 466, 609, 825, 611, 703, 343
372781219, -781, 16129, 422, 2738, 3576, 2106, -3233, 1129, -218, -442, 708, 604, 466, 609, 825, 611, 703, 343
372793776, -781, 16129, 422, 2738, 3576, 2106, -3233, 1129, -218, -442, 708, 604, 466, 609, 825, 611, 703, 343
372794594, -781, 16129, 422, 2738, 3576, 2106, -3233, 1129, -218, -442, 708, 604, 466, 609, 825, 611, 703, 343
372795369, -781, 16129, 422, 2738, 3576, 2106, -3233, 1129, -218, -442, 708, 604, 466, 609, 825, 611, 703, 343
372796244, -781, 16129, 422, 2738, 3576, 2106, -3233, 1129, -218, -442, 708, 604, 466, 609, 825, 611, 703, 343
372801075, -781, 16129, 422, 2738, 3576, 2106, -3233, 1129, -218, -442, 708, 604, 466, 609, 825, 611, 703, 343
372801927, -781, 16129, 422, 2738, 3576, 2106, -3233, 1129, -218, -442, 708, 604, 466, 609, 825, 611, 703, 343
372802718, -781, 16129, 422, 2738, 3576, 2106, -3233, 1129, -218, -442, 708, 604, 466, 609, 825, 611, 703, 343
372803559, -781, 16129, 422, 2738, 3576, 2106, -3233, 1129, -218, -442, 708, 604, 466, 609, 825, 611, 703, 343
372808693, -781, 16129, 422, 2738, 3576, 2106, -3233, 1129, -218, -442, 726, 593, 473, 669, 786, 622, 613, 333
372809545, -781, 16129, 422, 2738, 3576, 2106, -3233, 1129, -218, -442, 726, 593, 473, 669, 786, 622, 613, 333
372810317, -781, 16129, 422, 2738, 3576, 2106, -3233, 1129, -218, -442, 726, 593, 473, 669, 786, 622, 613, 333
372811232, -781, 16129, 422, 2738, 3576, 2106, -3233, 1129, -218, -442, 726, 593, 473, 669, 786, 622, 613, 333
372816094, -781, 16129, 422, 2738, 3576, 2106, -3233, 1129, -218, -442, 726, 593, 473, 669, 786, 622, 613, 333
372816891, -781, 16129, 422, 2738, 3576, 2106, -3233, 1129, -218, -442, 726, 593, 473, 669, 786, 622, 613, 333
372817694, -781, 16129, 422, 2738, 3576, 2106, -3233, 1129, -218, -442, 726, 593, 473, 669, 786, 622, 613, 333
372818518, -781, 16129, 422, 2738, 3576, 2106, -3233, 1129, -218, -442, 726, 593, 473, 669, 786, 622, 613, 333
372823586, -781, 16129, 422, 2738, 3576, 2106, -3233, 1129, -218, -442, 726, 593, 473, 669, 786, 622, 613, 333
372824560, -679, 16127, 548, 2753, 4100, 614, -2138, -662, 119, -207, 726, 593, 473, 669, 786, 622, 613, 333
372825340, -679, 16127, 548, 2753, 4100, 614, -2138, -662, 119, -207, 633, 537, 452, 597, 715, 526, 551, 276
372826215, -679, 16127, 548, 2753, 4100, 614, -2138, -662, 119, -207, 633, 537, 452, 597, 715, 526, 551, 276
372831218, -679, 16127, 548, 2753, 4100, 614, -2138, -662, 119, -207, 633, 537, 452, 597, 715, 526, 551, 276
372832024, -679, 16127, 548, 2753, 4100, 614, -2138, -662, 119, -207, 633, 537, 452, 597, 715, 526, 551, 276
372832817, -679, 16127, 548, 2753, 4100, 614, -2138, -662, 119, -207, 633, 537, 452, 597, 715, 526, 551, 276
372833628, -679, 16127, 548, 2753, 4100, 614, -2138, -662, 119, -207, 633, 537, 452, 597, 715, 526, 551, 276
372836612, -679, 16127, 548, 2753, 4100, 614, -2138, -662, 119, -207, 633, 537, 452, 597, 715, 526, 551, 276
372837431, -679, 16127, 548, 2753, 4100, 614, -2138, -662, 119, -207, 633, 537, 452, 597, 715, 526, 551, 276
372851603, -679, 16127, 548, 2753, 4100, 614, -2138, -662, 119, -207, 345, 338, 651, 805, 555, 905, 161, 287
372852424, -679, 16127, 548, 2753, 4100, 614, -2138, -662, 119, -207, 345, 338, 651, 805, 555, 905, 161, 287
372858549, -126, 16159, 230, 2690, 3790, 595, -2814, 510, -253, 214, 345, 338, 651, 805, 555, 905, 161, 287
372874797, -126, 16159, 230, 2690, 3790, 595, -2814, 510, -253, 214, 261, 357, 718, 819, 605, 952, 164, 261
372875635, -126, 16159, 230, 2690, 3790, 595, -2814, 510, -253, 214, 261, 357, 718, 819, 605, 952, 164, 261
372876568, -388, 16154, 268, 2690, 3876, 989, -2662, 1483, 21, 30, 261, 357, 718, 819, 605, 952, 164, 261
372897329, -388, 16154, 268, 2690, 3876, 989, -2662, 1483, 21, 30, 247, 332, 686, 837, 579, 950, 150, 255
372898231, -388, 16154, 268, 2690, 3876, 989, -2662, 1483, 21, 30, 247, 332, 686, 837, 579, 950, 150, 255
372899101, -592, 16143, 291, 2715, 3851, 1487, -2561, 1145, 161, 56, 247, 332, 686, 837, 579, 950, 150, 255
372911594, -592, 16143, 291, 2715, 3851, 1487, -2561, 1145, 161, 56, 240, 317, 654, 785, 525, 887, 121, 236
372912459, -592, 16143, 291, 2715, 3851, 1487, -2561, 1145, 161, 56, 240, 317, 654, 785, 525, 887, 121, 236
372918572, -675, 16136, 292, 2741, 3833, 1500, -2559, 454, 156, 66, 240, 317, 654, 785, 525, 887, 121, 236
372934824, -675, 16136, 292, 2741, 3833, 1500, -2559, 454, 156, 66, 214, 214, 445, 617, 378, 593, 90, 176
372935626, -675, 16136, 292, 2741, 3833, 1500, -2559, 454, 156, 66, 214, 214, 445, 617, 378, 593, 90, 176
372936571, -608, 16136, 261, 2760, 3819, 1284, -2542, -398, 106, 101, 214, 214, 445, 617, 378, 593, 90, 176
372957298, -608, 16136, 261, 2760, 3819, 1284, -2542, -398, 106, 101, 205, 168, 350, 315, 303, 449, 92, 143
372958129, -608, 16136, 261, 2760, 3819, 1284, -2542, -398, 106, 101, 205, 168, 350, 315, 303, 449, 92, 143
372959039, -478, 16139, 216, 2769, 3863, 1025, -2575, -765, 43, 126, 205, 168, 350, 315, 303, 449, 92, 143
372971652, -478, 16139, 216, 2769, 3863, 1025, -2575, -765, 43, 126, 209, 99, 157, 262, 166, 285, 78, 137
372972418, -478, 16139, 216, 2769, 3863, 1025, -2575, -765, 43, 126, 209, 99, 157, 262, 166, 285, 78, 137
372978599, -390, 16142, 180, 2767, 3888, 844, -2588, -517, -12, 113, 209, 99, 157, 262, 166, 285, 78, 137
372994841, -390, 16142, 180, 2767, 3888, 844, -2588, -517, -12, 113, 146, 86, 127, 99, 147, 116, 96, 126
372995684, -390, 16142, 180, 2767, 3888, 844, -2588, -517, -12, 113, 146, 86, 127, 99, 147, 116, 96, 126
372996584, -367, 16143, 162, 2766, 3895, 882, -2550, -143, -10, 77, 146, 86, 127, 99, 147, 116, 96, 126
373017320, -367, 16143, 162, 2766, 3895, 882, -2550, -143, -10, 77, 122, 67, 80, 83, 115, 104, 89, 118
373018097, -367, 16143, 162, 2766, 3895, 882, -2550, -143, -10, 77, 122, 67, 80, 83, 115, 104, 89, 118
373019069, -375, 16143, 155, 2769, 3862, 1084, -2524, 36, 22, 50, 122, 67, 80, 83, 115, 104, 89, 118
373031636, -375, 16143, 155, 2769, 3862, 1084, -2524, 36, 22, 50, 112, 52, 69, 65, 109, 99, 92, 113
