Timestamp, Orientation x, Orientation y, Orientation z, Orientation w, Acceleration x, Acceleration y, Acceleration z, Rotation x, Rotation y, Rotation z, EMG 0, EMG 1, EMG 2, EMG 3, EMG 4, EMG 5, EMG 6, EMG 7
521792894, -5641, 13556, 3363, 6444, 3940, 966, -2276, -27, 22, -28, 0, 0, 0, 0, 0, 0, 0, 0
521800427, -5640, 13554, 3362, 6450, 3950, 972, -2271, -9, 36, -11, 0, 0, 0, 0, 0, 0, 0, 0
521815408, -5648, 13549, 3361, 6454, 3946, 945, -2286, 38, 41, 7, 0, 0, 0, 0, 0, 0, 0, 0
521837861, -5661, 13543, 3360, 6456, 3944, 947, -2272, 68, 35, 21, 0, 0, 0, 0, 0, 0, 0, 0
521861718, -5676, 13536, 3358, 6457, 3939, 958, -2263, 75, 41, 29, 0, 0, 0, 0, 0, 0, 0, 0
521862500, -5676, 13536, 3358, 6457, 3939, 958, -2263, 75, 41, 29, 38, 99, 61, 84, 204, 83, 130, 74
521863366, -5676, 13536, 3358, 6457, 3939, 958, -2263, 75, 41, 29, 38, 99, 61, 84, 204, 83, 130, 74
521875407, -5687, 13531, 3356, 6460, 3943, 949, -2281, 54, 45, 25, 38, 99, 61, 84, 204, 83, 130, 74
521883498, -5687, 13531, 3356, 6460, 3943, 949, -2281, 54, 45, 25, 39, 79, 51, 71, 205, 66, 120, 66
521884268, -5687, 13531, 3356, 6460, 3943, 949, -2281, 54, 45, 25, 39, 79, 51, 71, 205, 66, 120, 66
521897846, -5696, 13522, 3353, 6471, 4011, 955, -2325, 40, 82, 1, 39, 79, 51, 71, 205, 66, 120, 66
521905957, -5696, 13522, 3353, 6471, 4011, 955, -2325, 40, 82, 1, 35, 66, 42, 66, 208, 64, 121, 59
521906773, -5696, 13522, 3353, 6471, 4011, 955, -2325, 40, 82, 1, 35, 66, 42, 66, 208, 64, 121, 59
521923099, -5696, 13498, 3364, 6516, 4101, 1020, -2400, 17, 240, -164, 35, 66, 42, 66, 208, 64, 121, 59
521923894, -5696, 13498, 3364, 6516, 4101, 1020, -2400, 17, 240, -164, 35, 66, 42, 66, 208, 64, 121, 59
521924745, -5641, 13556, 3363, 6444, 3940, 966, -2276, -27, 22, -28, 35, 66, 42, 66, 208, 64, 121, 59
521925568, -5640, 13554, 3362, 6450, 3950, 972, -2271, -9, 36, -11, 35, 66, 42, 66, 208, 64, 121, 59
521930537, -5648, 13549, 3361, 6454, 3946, 945, -2286, 38, 41, 7, 35, 66, 42, 66, 208, 64, 121, 59
521931364, -5661, 13543, 3360, 6456, 3944, 947, -2272, 68, 35, 21, 35, 66, 42, 66, 208, 64, 121, 59
521932208, -5676, 13536, 3358, 6457, 3939, 958, -2263, 75, 41, 29, 35, 66, 42, 66, 208, 64, 121, 59
521933005, -5676, 13536, 3358, 6457, 3939, 958, -2263, 75, 41, 29, 38, 99, 61, 84, 204, 83, 130, 74
521938076, -5676, 13536, 3358, 6457, 3939, 958, -2263, 75, 41, 29, 39, 79, 51, 71, 205, 66, 120, 66
521938869, -5676, 13536, 3358, 6457, 3939, 958, -2263, 75, 41, 29, 39, 79, 51, 71, 205, 66, 120, 66
521939677, -5676, 13536, 3358, 6457, 3939, 958, -2263, 75, 41, 29, 39, 79, 51, 71, 205, 66, 120, 66
521940494, -5676, 13536, 3358, 6457, 3939, 958, -2263, 75, 41, 29, 39, 79, 51, 71, 205, 66, 120, 66
521945457, -5676, 13536, 3358, 6457, 3939, 958, -2263, 75, 41, 29, 39, 79, 51, 71, 205, 66, 120, 66
521946272, -5676, 13536, 3358, 6457, 3939, 958, -2263, 75, 41, 29, 39, 79, 51, 71, 205, 66, 120, 66
521947071, -5676, 13536, 3358, 6457, 3939, 958, -2263, 75, 41, 29, 39, 79, 51, 71, 205, 66, 120, 66
521947922, -5676, 13536, 3358, 6457, 3939, 958, -2263, 75, 41, 29, 39, 79, 51, 71, 205, 66, 120, 66
521952963, -5676, 13536, 3358, 6457, 3939, 958, -2263, 75, 41, 29, 39, 79, 51, 71, 205, 66, 120, 66
521953885, -5696, 13522, 3353, 6471, 4011, 955, -2325, 40, 82, 1, 39, 79, 51, 71, 205, 66, 120, 66
521954705, -5696, 13522, 3353, 6471, 4011, 955, -2325, 40, 82, 1, 35, 66, 42, 66, 208, 64, 121, 59
521955526, -5696, 13522, 3353, 6471, 4011, 955, -2325, 40, 82, 1, 35, 66, 42, 66, 208, 64, 121, 59
521960572, -5696, 13522, 3353, 6471, 4011, 955, -2325, 40, 82, 1, 35, 66, 42, 66, 208, 64, 121, 59
521961367, -5696, 13522, 3353, 6471, 4011, 955, -2325, 40, 82, 1, 35, 66, 42, 66, 208, 64, 121, 59
521962152, -5696, 13522, 3353, 6471, 4011, 955, -2325, 40, 82, 1, 35, 66, 42, 66, 208, 64, 121, 59
521963001, -5696, 13522, 3353, 6471, 4011, 955, -2325, 40, 82, 1, 35, 66, 42, 66, 208, 64, 121, 59
521967944, -5696, 13522, 3353, 6471, 4011, 955, -2325, 40, 82, 1, 35, 66, 42, 66, 208, 64, 121, 59
521968762, -5696, 13522, 3353, 6471, 4011, 955, -2325, 40, 82, 1, 35, 66, 42, 66, 208, 64, 121, 59
521969567, -5696, 13522, 3353, 6471, 4011, 955, -2325, 40, 82, 1, 35, 66, 42, 66, 208, 64, 121, 59
521970373, -5696, 13522, 3353, 6471, 4011, 955, -2325, 40, 82, 1, 35, 66, 42, 66, 208, 64, 121, 59
521975271, -5696, 13522, 3353, 6471, 4011, 955, -2325, 40, 82, 1, 35, 66, 42, 66, 208, 64, 121, 59
521976189, -5696, 13498, 3364, 6516, 4101, 1020, -2400, 17, 240, -164, 35, 66, 42, 66, 208, 64, 121, 59
521976994, -5696, 13498, 3364, 6516, 4101, 1020, -2400, 17, 240, -164, 36, 56, 40, 58, 210, 55, 83, 61
521977824, -5696, 13498, 3364, 6516, 4101, 1020, -2400, 17, 240, -164, 36, 56, 40, 58, 210, 55, 83, 61
521983010, -5696, 13498, 3364, 6516, 4101, 1020, -2400, 17, 240, -164, 36, 56, 40, 58, 210, 55, 83, 61
521983819, -5696, 13498, 3364, 6516, 4101, 1020, -2400, 17, 240, -164, 36, 56, 40, 58, 210, 55, 83, 61
521984627, -5696, 13498, 3364, 6516, 4101, 1020, -2400, 17, 240, -164, 36, 56, 40, 58, 210, 55, 83, 61
521985453, -5696, 13498, 3364, 6516, 4101, 1020, -2400, 17, 240, -164, 36, 56, 40, 58, 210, 55, 83, 61
521990472, -5696, 13498, 3364, 6516, 4101, 1020, -2400, 17, 240, -164, 36, 56, 40, 58, 210, 55, 83, 61
521991287, -5696, 13498, 3364, 6516, 4101, 1020, -2400, 17, 240, -164, 36, 56, 40, 58, 210, 55, 83, 61
521992074, -5696, 13498, 3364, 6516, 4101, 1020, -2400, 17, 240, -164, 36, 56, 40, 58, 210, 55, 83, 61
521992917, -5696, 13498, 3364, 6516, 4101, 1020, -2400, 17, 240, -164, 36, 56, 40, 58, 210, 55, 83, 61
521997980, -5696, 13498, 3364, 6516, 4101, 1020, -2400, 17, 240, -164, 36, 56, 40, 58, 210, 55, 83, 61
521998900, -5658, 13471, 3386, 6594, 3903, 1105, -2437, -163, 330, -372, 36, 56, 40, 58, 210, 55, 83, 61
521999707, -5658, 13471, 3386, 6594, 3903, 1105, -2437, -163, 330, -372, 67, 51, 40, 39, 158, 53, 79, 69
522000529, -5658, 13471, 3386, 6594, 3903, 1105, -2437, -163, 330, -372, 67, 51, 40, 39, 158, 53, 79, 69
522005550, -5658, 13471, 3386, 6594, 3903, 1105, -2437, -163, 330, -372, 67, 51, 40, 39, 158, 53, 79, 69
522006372, -5658, 13471, 3386, 6594, 3903, 1105, -2437, -163, 330, -372, 67, 51, 40, 39, 158, 53, 79, 69
522007182, -5658, 13471, 3386, 6594, 3903, 1105, -2437, -163, 330, -372, 67, 51, 40, 39, 158, 53, 79, 69
522008027, -5658, 13471, 3386, 6594, 3903, 1105, -2437, -163, 330, -372, 67, 51, 40, 39, 158, 53, 79, 69
522012968, -5658, 13471, 3386, 6594, 3903, 1105, -2437, -163, 330, -372, 67, 51, 40, 39, 158, 53, 79, 69
522013753, -5658, 13471, 3386, 6594, 3903, 1105, -2437, -163, 330, -372, 67, 51, 40, 39, 158, 53, 79, 69
522014577, -5658, 13471, 3386, 6594, 3903, 1105, -2437, -163, 330, -372, 67, 51, 40, 39, 158, 53, 79, 69
522015417, -5658, 13471, 3386, 6594, 3903, 1105, -2437, -163, 330, -372, 67, 51, 40, 39, 158, 53, 79, 69
522020475, -5658, 13471, 3386, 6594, 3903, 1105, -2437, -163, 330, -372, 67, 51, 40, 39, 158, 53, 79, 69
522021409, -5547, 13466, 3408, 6685, 3815, 1205, -2464, -556, 262, -533, 67, 51, 40, 39, 158, 53, 79, 69
522022190, -5547, 13466, 3408, 6685, 3815, 1205, -2464, -556, 262, -533, 148, 100, 42, 37, 152, 57, 59, 132
522023017, -5547, 13466, 3408, 6685, 3815, 1205, -2464, -556, 262, -533, 148, 100, 42, 37, 152, 57, 59, 132
522028032, -5547, 13466, 3408, 6685, 3815, 1205, -2464, -556, 262, -533, 148, 100, 42, 37, 152, 57, 59, 132
522028838, -5547, 13466, 3408, 6685, 3815, 1205, -2464, -556, 262, -533, 148, 100, 42, 37, 152, 57, 59, 132
522029641, -5547, 13466, 3408, 6685, 3815, 1205, -2464, -556, 262, -533, 148, 100, 42, 37, 152, 57, 59, 132
522030480, -5547, 13466, 3408, 6685, 3815, 1205, -2464, -556, 262, -533, 148, 100, 42, 37, 152, 57, 59, 132
522035442, -5547, 13466, 3408, 6685, 3815, 1205, -2464, -556, 262, -533, 148, 100, 42, 37, 152, 57, 59, 132
522036237, -5547, 13466, 3408, 6685, 3815, 1205, -2464, -556, 262, -533, 148, 100, 42, 37, 152, 57, 59, 132
522037048, -5547, 13466, 3408, 6685, 3815, 1205, -2464, -556, 262, -533, 148, 100, 42, 37, 152, 57, 59, 132
522037879, -5547, 13466, 3408, 6685, 3815, 1205, -2464, -556, 262, -533, 148, 100, 42, 37, 152, 57, 59, 132
522042998, -5547, 13466, 3408, 6685, 3815, 1205, -2464, -556, 262, -533, 148, 100, 42, 37, 152, 57, 59, 132
522043927, -5358, 13491, 3439, 6773, 3918, 1388, -2433, -947, 65, -711, 148, 100, 42, 37, 152, 57, 59, 132
522044736, -5358, 13491, 3439, 6773, 3918, 1388, -2433, -947, 65, -711, 171, 131, 50, 37, 145, 53, 50, 134
522045551, -5358, 13491, 3439, 6773, 3918, 1388, -2433, -947, 65, -711, 171, 131, 50, 37, 145, 53, 50, 134
522050563, -5358, 13491, 3439, 6773, 3918, 1388, -2433, -947, 65, -711, 171, 131, 50, 37, 145, 53, 50, 134
522051379, -5358, 13491, 3439, 6773, 3918, 1388, -2433, -947, 65, -711, 171, 131, 50, 37, 145, 53, 50, 134
522052181, -5358, 13491, 3439, 6773, 3918, 1388, -2433, -947, 65, -711, 171, 131, 50, 37, 145, 53, 50, 134
522053010, -5358, 13491, 3439, 6773, 3918, 1388, -2433, -947, 65, -711, 171, 131, 50, 37, 145, 53, 50, 134
522057983, -5358, 13491, 3439, 6773, 3918, 1388, -2433, -947, 65, -711, 171, 131, 50, 37, 145, 53, 50, 134
522058765, -5358, 13491, 3439, 6773, 3918, 1388, -2433, -947, 65, -711, 171, 131, 50, 37, 145, 53, 50, 134
522059576, -5358, 13491, 3439, 6773, 3918, 1388, -2433, -947, 65, -711, 171, 131, 50, 37, 145, 53, 50, 134
522060399, -5358, 13491, 3439, 6773, 3918, 1388, -2433, -947, 65, -711, 171, 131, 50, 37, 145, 53, 50, 134
522065482, -5358, 13491, 3439, 6773, 3918, 1388, -2433, -947, 65, -711, 171, 131, 50, 37, 145, 53, 50, 134
522066402, -5084, 13534, 3504, 6865, 3943, 1536, -2339, -1304, -115, -1053, 171, 131, 50, 37, 145, 53, 50, 134
522067219, -5084, 13534, 3504, 6865, 3943, 1536, -2339, -1304, -115, -1053, 268, 171, 56, 41, 173, 57, 46, 134
522068040, -5084, 13534, 3504, 6865, 3943, 1536, -2339, -1304, -115, -1053, 268, 171, 56, 41, 173, 57, 46, 134
522073038, -5084, 13534, 3504, 6865, 3943, 1536, -2339, -1304, -115, -1053, 268, 171, 56, 41, 173, 57, 46, 134
522073853, -5084, 13534, 3504, 6865, 3943, 1536, -2339, -1304, -115, -1053, 268, 171, 56, 41, 173, 57, 46, 134
522074652, -5084, 13534, 3504, 6865, 3943, 1536, -2339, -1304, -115, -1053, 268, 171, 56, 41, 173, 57, 46, 134
522075474, -5084, 13534, 3504, 6865, 3943, 1536, -2339, -1304, -115, -1053, 268, 171, 56, 41, 173, 57, 46, 134
522080432, -5084, 13534, 3504, 6865, 3943, 1536, -2339, -1304, -115, -1053, 268, 171, 56, 41, 173, 57, 46, 134
522081227, -5084, 13534, 3504, 6865, 3943, 1536, -2339, -1304, -115, -1053, 268, 171, 56, 41, 173, 57, 46, 134
522082057, -5084, 13534, 3504, 6865, 3943, 1536, -2339, -1304, -115, -1053, 268, 171, 56, 41, 173, 57, 46, 134
522082861, -5084, 13534, 3504, 6865, 3943, 1536, -2339, -1304, -115, -1053, 268, 171, 56, 41, 173, 57, 46, 134
522087961, -5084, 13534, 3504, 6865, 3943, 1536, -2339, -1304, -115, -1053, 268, 171, 56, 41, 173, 57, 46, 134
522088876, -4773, 13560, 3633, 6970, 3946, 1559, -2391, -1307, -172, -1477, 268, 171, 56, 41, 173, 57, 46, 134
522089679, -4773, 13560, 3633, 6970, 3946, 1559, -2391, -1307, -172, -1477, 285, 186, 61, 57, 224, 60, 46, 134
522090500, -4773, 13560, 3633, 6970, 3946, 1559, -2391, -1307, -172, -1477, 285, 186, 61, 57, 224, 60, 46, 134
522095528, -4773, 13560, 3633, 6970, 3946, 1559, -2391, -1307, -172, -1477, 285, 186, 61, 57, 224, 60, 46, 134
522096370, -4773, 13560, 3633, 6970, 3946, 1559, -2391, -1307, -172, -1477, 285, 186, 61, 57, 224, 60, 46, 134
522097152, -4773, 13560, 3633, 6970, 3946, 1559, -2391, -1307, -172, -1477, 285, 186, 61, 57, 224, 60, 46, 134
522097981, -4773, 13560, 3633, 6970, 3946, 1559, -2391, -1307, -172, -1477, 285, 186, 61, 57, 224, 60, 46, 134
522102918, -4773, 13560, 3633, 6970, 3946, 1559, -2391, -1307, -172, -1477, 285, 186, 61, 57, 224, 60, 46, 134
522103715, -4773, 13560, 3633, 6970, 3946, 1559, -2391, -1307, -172, -1477, 285, 186, 61, 57, 224, 60, 46, 134
522104552, -4773, 13560, 3633, 6970, 3946, 1559, -2391, -1307, -172, -1477, 285, 186, 61, 57, 224, 60, 46, 134
522105375, -4773, 13560, 3633, 6970, 3946, 1559, -2391, -1307, -172, -1477, 285, 186, 61, 57, 224, 60, 46, 134
522110494, -4773, 13560, 3633, 6970, 3946, 1559, -2391, -1307, -172, -1477, 285, 186, 61, 57, 224, 60, 46, 134
522111430, -4440, 13554, 3839, 7089, 3861, 1707, -2308, -1189, -182, -1951, 285, 186, 61, 57, 224, 60, 46, 134
522112260, -4440, 13554, 3839, 7089, 3861, 1707, -2308, -1189, -182, -1951, 307, 224, 91, 62, 259, 62, 47, 180
522113058, -4440, 13554, 3839, 7089, 3861, 1707, -2308, -1189, -182, -1951, 307, 224, 91, 62, 259, 62, 47, 180
522118069, -4440, 13554, 3839, 7089, 3861, 1707, -2308, -1189, -182, -1951, 307, 224, 91, 62, 259, 62, 47, 180
522118872, -4440, 13554, 3839, 7089, 3861, 1707, -2308, -1189, -182, -1951, 307, 224, 91, 62, 259, 62, 47, 180
522119684, -4440, 13554, 3839, 7089, 3861, 1707, -2308, -1189, -182, -1951, 307, 224, 91, 62, 259, 62, 47, 180
522120530, -4440, 13554, 3839, 7089, 3861, 1707, -2308, -1189, -182, -1951, 307, 224, 91, 62, 259, 62, 47, 180
522125457, -4440, 13554, 3839, 7089, 3861, 1707, -2308, -1189, -182, -1951, 307, 224, 91, 62, 259, 62, 47, 180
522126272, -4440, 13554, 3839, 7089, 3861, 1707, -2308, -1189, -182, -1951, 307, 224, 91, 62, 259, 62, 47, 180
522127077, -4440, 13554, 3839, 7089, 3861, 1707, -2308, -1189, -182, -1951, 307, 224, 91, 62, 259, 62, 47, 180
522127920, -4440, 13554, 3839, 7089, 3861, 1707, -2308, -1189, -182, -1951, 307, 224, 91, 62, 259, 62, 47, 180
522132969, -4440, 13554, 3839, 7089, 3861, 1707, -2308, -1189, -182, -1951, 307, 224, 91, 62, 259, 62, 47, 180
522133885, -4066, 13516, 4119, 7228, 3825, 2009, -2199, -1180, -181, -2460, 307, 224, 91, 62, 259, 62, 47, 180
522134708, -4066, 13516, 4119, 7228, 3825, 2009, -2199, -1180, -181, -2460, 287, 253, 109, 70, 254, 56, 46, 146
522135530, -4066, 13516, 4119, 7228, 3825, 2009, -2199, -1180, -181, -2460, 287, 253, 109, 70, 254, 56, 46, 146
522140535, -4066, 13516, 4119, 7228, 3825, 2009, -2199, -1180, -181, -2460, 287, 253, 109, 70, 254, 56, 46, 146
522141362, -4066, 13516, 4119, 7228, 3825, 2009, -2199, -1180, -181, -2460, 287, 253, 109, 70, 254, 56, 46, 146
522142145, -4066, 13516, 4119, 7228, 3825, 2009, -2199, -1180, -181, -2460, 287, 253, 109, 70, 254, 56, 46, 146
522142968, -4066, 13516, 4119, 7228, 3825, 2009, -2199, -1180, -181, -2460, 287, 253, 109, 70, 254, 56, 46, 146
522147944, -4066, 13516, 4119, 7228, 3825, 2009, -2199, -1180, -181, -2460, 287, 253, 109, 70, 254, 56, 46, 146
522148737, -4066, 13516, 4119, 7228, 3825, 2009, -2199, -1180, -181, -2460, 287, 253, 109, 70, 254, 56, 46, 146
522149579, -4066, 13516, 4119, 7228, 3825, 2009, -2199, -1180, -181, -2460, 287, 253, 109, 70, 254, 56, 46, 146
522150377, -4066, 13516, 4119, 7228, 3825, 2009, -2199, -1180, -181, -2460, 287, 253, 109, 70, 254, 56, 46, 146
522155466, -4066, 13516, 4119, 7228, 3825, 2009, -2199, -1180, -181, -2460, 287, 253, 109, 70, 254, 56, 46, 146
522156393, -3673, 13432, 4478, 7379, 3832, 2107, -2128, -1022, -148, -2960, 287, 253, 109, 70, 254, 56, 46, 146
522157192, -3673, 13432, 4478, 7379, 3832, 2107, -2128, -1022, -148, -2960, 281, 256, 108, 69, 254, 61, 47, 183
522158009, -3673, 13432, 4478, 7379, 3832, 2107, -2128, -1022, -148, -2960, 281, 256, 108, 69, 254, 61, 47, 183
522163010, -3673, 13432, 4478, 7379, 3832, 2107, -2128, -1022, -148, -2960, 281, 256, 108, 69, 254, 61, 47, 183
522163814, -3673, 13432, 4478, 7379, 3832, 2107, -2128, -1022, -148, -2960, 281, 256, 108, 69, 254, 61, 47, 183
522164659, -3673, 13432, 4478, 7379, 3832, 2107, -2128, -1022, -148, -2960, 281, 256, 108, 69, 254, 61, 47, 183
522165467, -3673, 13432, 4478, 7379, 3832, 2107, -2128, -1022, -148, -2960, 281, 256, 108, 69, 254, 61, 47, 183
522170477, -3673, 13432, 4478, 7379, 3832, 2107, -2128, -1022, -148, -2960, 281, 256, 108, 69, 254, 61, 47, 183
522171264, -3673, 13432, 4478, 7379, 3832, 2107, -2128, -1022, -148, -2960, 281, 256, 108, 69, 254, 61, 47, 183
522172075, -3673, 13432, 4478, 7379, 3832, 2107, -2128, -1022, -148, -2960, 281, 256, 108, 69, 254, 61, 47, 183
522172901, -3673, 13432, 4478, 7379, 3832, 2107, -2128, -1022, -148, -2960, 281, 256, 108, 69, 254, 61, 47, 183
522177968, -3673, 13432, 4478, 7379, 3832, 2107, -2128, -1022, -148, -2960, 281, 256, 108, 69, 254, 61, 47, 183
522178906, -3286, 13302, 4908, 7522, 3572, 2197, -1952, -751, -149, -3326, 281, 256, 108, 69, 254, 61, 47, 183
522179705, -3286, 13302, 4908, 7522, 3572, 2197, -1952, -751, -149, -3326, 208, 238, 108, 70, 245, 63, 47, 198
522180524, -3286, 13302, 4908, 7522, 3572, 2197, -1952, -751, -149, -3326, 208, 238, 108, 70, 245, 63, 47, 198
522185546, -3286, 13302, 4908, 7522, 3572, 2197, -1952, -751, -149, -3326, 208, 238, 108, 70, 245, 63, 47, 198
522186370, -3286, 13302, 4908, 7522, 3572, 2197, -1952, -751, -149, -3326, 208, 238, 108, 70, 245, 63, 47, 198
522187179, -3286, 13302, 4908, 7522, 3572, 2197, -1952, -751, -149, -3326, 208, 238, 108, 70, 245, 63, 47, 198
522187968, -3286, 13302, 4908, 7522, 3572, 2197, -1952, -751, -149, -3326, 208, 238, 108, 70, 245, 63, 47, 198
522192926, -3286, 13302, 4908, 7522, 3572, 2197, -1952, -751, -149, -3326, 208, 238, 108, 70, 245, 63, 47, 198
522193752, -3286, 13302, 4908, 7522, 3572, 2197, -1952, -751, -149, -3326, 208, 238, 108, 70, 245, 63, 47, 198
522194549, -3286, 13302, 4908, 7522, 3572, 2197, -1952, -751, -149, -3326, 208, 238, 108, 70, 245, 63, 47, 198
522195361, -3286, 13302, 4908, 7522, 3572, 2197, -1952, -751, -149, -3326, 208, 238, 108, 70, 245, 63, 47, 198
522198887, -3286, 13302, 4908, 7522, 3572, 2197, -1952, -751, -149, -3326, 208, 238, 108, 70, 245, 63, 47, 198
522208112, -2868, 13126, 5428, 7644, 3301, 2329, -1938, -420, -282, -3610, 208, 238, 108, 70, 245, 63, 47, 198
522208907, -2868, 13126, 5428, 7644, 3301, 2329, -1938, -420, -282, -3610, 195, 243, 110, 58, 204, 57, 43, 201
522209692, -2868, 13126, 5428, 7644, 3301, 2329, -1938, -420, -282, -3610, 195, 243, 110, 58, 204, 57, 43, 201
522210498, -2868, 13126, 5428, 7644, 3301, 2329, -1938, -420, -282, -3610, 195, 243, 110, 58, 204, 57, 43, 201
522215406, -2868, 13126, 5428, 7644, 3301, 2329, -1938, -420, -282, -3610, 195, 243, 110, 58, 204, 57, 43, 201
522216212, -2868, 13126, 5428, 7644, 3301, 2329, -1938, -420, -282, -3610, 195, 243, 110, 58, 204, 57, 43, 201
522217023, -2868, 13126, 5428, 7644, 3301, 2329, -1938, -420, -282, -3610, 195, 243, 110, 58, 204, 57, 43, 201
522217839, -2868, 13126, 5428, 7644, 3301, 2329, -1938, -420, -282, -3610, 195, 243, 110, 58, 204, 57, 43, 201
522222387, -2868, 13126, 5428, 7644, 3301, 2329, -1938, -420, -282, -3610, 195, 243, 110, 58, 204, 57, 43, 201
522223275, -2454, 12923, 5989, 7715, 3067, 2433, -1959, -185, -463, -3811, 195, 243, 110, 58, 204, 57, 43, 201
522230568, -2454, 12923, 5989, 7715, 3067, 2433, -1959, -185, -463, -3811, 156, 212, 89, 53, 134, 50, 41, 190
522231367, -2454, 12923, 5989, 7715, 3067, 2433, -1959, -185, -463, -3811, 156, 212, 89, 53, 134, 50, 41, 190
522232176, -2454, 12923, 5989, 7715, 3067, 2433, -1959, -185, -463, -3811, 156, 212, 89, 53, 134, 50, 41, 190
522232969, -2454, 12923, 5989, 7715, 3067, 2433, -1959, -185, -463, -3811, 156, 212, 89, 53, 134, 50, 41, 190
522237963, -2454, 12923, 5989, 7715, 3067, 2433, -1959, -185, -463, -3811, 156, 212, 89, 53, 134, 50, 41, 190
522238736, -2454, 12923, 5989, 7715, 3067, 2433, -1959, -185, -463, -3811, 156, 212, 89, 53, 134, 50, 41, 190
522239549, -2454, 12923, 5989, 7715, 3067, 2433, -1959, -185, -463, -3811, 156, 212, 89, 53, 134, 50, 41, 190
522240362, -2454, 12923, 5989, 7715, 3067, 2433, -1959, -185, -463, -3811, 156, 212, 89, 53, 134, 50, 41, 190
522245439, -2454, 12923, 5989, 7715, 3067, 2433, -1959, -185, -463, -3811, 156, 212, 89, 53, 134, 50, 41, 190
522246406, -2017, 12710, 6542, 7745, 2950, 2558, -1967, -226, -655, -3843, 156, 212, 89, 53, 134, 50, 41, 190
522247204, -2017, 12710, 6542, 7745, 2950, 2558, -1967, -226, -655, -3843, 145, 160, 63, 43, 129, 50, 44, 243
522247993, -2017, 12710, 6542, 7745, 2950, 2558, -1967, -226, -655, -3843, 145, 160, 63, 43, 129, 50, 44, 243
522250820, -2017, 12710, 6542, 7745, 2950, 2558, -1967, -226, -655, -3843, 145, 160, 63, 43, 129, 50, 44, 243
522260424, -2017, 12710, 6542, 7745, 2950, 2558, -1967, -226, -655, -3843, 145, 160, 63, 43, 129, 50, 44, 243
522261214, -2017, 12710, 6542, 7745, 2950, 2558, -1967, -226, -655, -3843, 145, 160, 63, 43, 129, 50, 44, 243
522262032, -2017, 12710, 6542, 7745, 2950, 2558, -1967, -226, -655, -3843, 145, 160, 63, 43, 129, 50, 44, 243
522262871, -2017, 12710, 6542, 7745, 2950, 2558, -1967, -226, -655, -3843, 145, 160, 63, 43, 129, 50, 44, 243
522267951, -2017, 12710, 6542, 7745, 2950, 2558, -1967, -226, -655, -3843, 145, 160, 63, 43, 129, 50, 44, 243
522268761, -2017, 12710, 6542, 7745, 2950, 2558, -1967, -226, -655, -3843, 145, 160, 63, 43, 129, 50, 44, 243
522269559, -2017, 12710, 6542, 7745, 2950, 2558, -1967, -226, -655, -3843, 145, 160, 63, 43, 129, 50, 44, 243
522270363, -2017, 12710, 6542, 7745, 2950, 2558, -1967, -226, -655, -3843, 145, 160, 63, 43, 129, 50, 44, 243
522275537, -2017, 12710, 6542, 7745, 2950, 2558, -1967, -226, -655, -3843, 138, 135, 60, 42, 115, 43, 42, 239
522276365, -2017, 12710, 6542, 7745, 2950, 2558, -1967, -226, -655, -3843, 138, 135, 60, 42, 115, 43, 42, 239
522277150, -2017, 12710, 6542, 7745, 2950, 2558, -1967, -226, -655, -3843, 138, 135, 60, 42, 115, 43, 42, 239
522278010, -2017, 12710, 6542, 7745, 2950, 2558, -1967, -226, -655, -3843, 138, 135, 60, 42, 115, 43, 42, 239
522282926, -2017, 12710, 6542, 7745, 2950, 2558, -1967, -226, -655, -3843, 138, 135, 60, 42, 115, 43, 42, 239
522283742, -2017, 12710, 6542, 7745, 2950, 2558, -1967, -226, -655, -3843, 138, 135, 60, 42, 115, 43, 42, 239
522284549, -2017, 12710, 6542, 7745, 2950, 2558, -1967, -226, -655, -3843, 138, 135, 60, 42, 115, 43, 42, 239
522285362, -2017, 12710, 6542, 7745, 2950, 2558, -1967, -226, -655, -3843, 138, 135, 60, 42, 115, 43, 42, 239
522290438, -2017, 12710, 6542, 7745, 2950, 2558, -1967, -226, -655, -3843, 138, 135, 60, 42, 115, 43, 42, 239
522291375, -1147, 12242, 7564, 7747, 2829, 2482, -2158, -233, -645, -3696, 138, 135, 60, 42, 115, 43, 42, 239
522292178, -1147, 12242, 7564, 7747, 2829, 2482, -2158, -233, -645, -3696, 122, 130, 56, 48, 97, 35, 44, 265
522292998, -1147, 12242, 7564, 7747, 2829, 2482, -2158, -233, -645, -3696, 122, 130, 56, 48, 97, 35, 44, 265
522298041, -1147, 12242, 7564, 7747, 2829, 2482, -2158, -233, -645, -3696, 122, 130, 56, 48, 97, 35, 44, 265
522298818, -1147, 12242, 7564, 7747, 2829, 2482, -2158, -233, -645, -3696, 122, 130, 56, 48, 97, 35, 44, 265
522299629, -1147, 12242, 7564, 7747, 2829, 2482, -2158, -233, -645, -3696, 122, 130, 56, 48, 97, 35, 44, 265
522300446, -1147, 12242, 7564, 7747, 2829, 2482, -2158, -233, -645, -3696, 122, 130, 56, 48, 97, 35, 44, 265
522305413, -1147, 12242, 7564, 7747, 2829, 2482, -2158, -233, -645, -3696, 122, 130, 56, 48, 97, 35, 44, 265
522306215, -1147, 12242, 7564, 7747, 2829, 2482, -2158, -233, -645, -3696, 122, 130, 56, 48, 97, 35, 44, 265
522307019, -1147, 12242, 7564, 7747, 2829, 2482, -2158, -233, -645, -3696, 122, 130, 56, 48, 97, 35, 44, 265
522307838, -1147, 12242, 7564, 7747, 2829, 2482, -2158, -233, -645, -3696, 122, 130, 56, 48, 97, 35, 44, 265
522312991, -1147, 12242, 7564, 7747, 2829, 2482, -2158, -233, -645, -3696, 122, 130, 56, 48, 97, 35, 44, 265
522313914, -766, 11984, 8021, 7737, 2734, 2421, -2191, -192, -506, -3490, 122, 130, 56, 48, 97, 35, 44, 265
522314737, -766, 11984, 8021, 7737, 2734, 2421, -2191, -192, -506, -3490, 104, 96, 48, 49, 79, 39, 44, 273
522315526, -766, 11984, 8021, 7737, 2734, 2421, -2191, -192, -506, -3490, 104, 96, 48, 49, 79, 39, 44, 273
522320563, -766, 11984, 8021, 7737, 2734, 2421, -2191, -192, -506, -3490, 104, 96, 48, 49, 79, 39, 44, 273
522321369, -766, 11984, 8021, 7737, 2734, 2421, -2191, -192, -506, -3490, 104, 96, 48, 49, 79, 39, 44, 273
522322172, -766, 11984, 8021, 7737, 2734, 2421, -2191, -192, -506, -3490, 104, 96, 48, 49, 79, 39, 44, 273
522322994, -766, 11984, 8021, 7737, 2734, 2421, -2191, -192, -506, -3490, 104, 96, 48, 49, 79, 39, 44, 273
522327956, -766, 11984, 8021, 7737, 2734, 2421, -2191, -192, -506, -3490, 104, 96, 48, 49, 79, 39, 44, 273
522328771, -766, 11984, 8021, 7737, 2734, 2421, -2191, -192, -506, -3490, 104, 96, 48, 49, 79, 39, 44, 273
522329565, -766, 11984, 8021, 7737, 2734, 2421, -2191, -192, -506, -3490, 104, 96, 48, 49, 79, 39, 44, 273
522330393, -766, 11984, 8021, 7737, 2734, 2421, -2191, -192, -506, -3490, 104, 96, 48, 49, 79, 39, 44, 273
522342936, -766, 11984, 8021, 7737, 2734, 2421, -2191, -192, -506, -3490, 104, 96, 48, 49, 79, 39, 44, 273
522343877, -440, 11732, 8440, 7704, 2543, 2369, -2211, -28, -457, -3189, 104, 96, 48, 49, 79, 39, 44, 273
522344682, -440, 11732, 8440, 7704, 2543, 2369, -2211, -28, -457, -3189, 99, 86, 41, 49, 73, 36, 49, 269
522345487, -440, 11732, 8440, 7704, 2543, 2369, -2211, -28, -457, -3189, 99, 86, 41, 49, 73, 36, 49, 269
522350511, -440, 11732, 8440, 7704, 2543, 2369, -2211, -28, -457, -3189, 99, 86, 41, 49, 73, 36, 49, 269
522351371, -440, 11732, 8440, 7704, 2543, 2369, -2211, -28, -457, -3189, 99, 86, 41, 49, 73, 36, 49, 269
522352126, -440, 11732, 8440, 7704, 2543, 2369, -2211, -28, -457, -3189, 99, 86, 41, 49, 73, 36, 49, 269
522352943, -440, 11732, 8440, 7704, 2543, 2369, -2211, -28, -457, -3189, 99, 86, 41, 49, 73, 36, 49, 269
522357908, -440, 11732, 8440, 7704, 2543, 2369, -2211, -28, -457, -3189, 99, 86, 41, 49, 73, 36, 49, 269
522358714, -440, 11732, 8440, 7704, 2543, 2369, -2211, -28, -457, -3189, 99, 86, 41, 49, 73, 36, 49, 269
522359526, -440, 11732, 8440, 7704, 2543, 2369, -2211, -28, -457, -3189, 99, 86, 41, 49, 73, 36, 49, 269
522360363, -440, 11732, 8440, 7704, 2543, 2369, -2211, -28, -457, -3189, 99, 86, 41, 49, 73, 36, 49, 269
522365473, -440, 11732, 8440, 7704, 2543, 2369, -2211, -28, -457, -3189, 99, 86, 41, 49, 73, 36, 49, 269
522366391, -168, 11508, 8802, 7647, 2480, 2418, -2223, 100, -470, -2752, 99, 86, 41, 49, 73, 36, 49, 269
522367196, -168, 11508, 8802, 7647, 2480, 2418, -2223, 100, -470, -2752, 110, 79, 46, 64, 172, 37, 57, 302
522368025, -168, 11508, 8802, 7647, 2480, 2418, -2223, 100, -470, -2752, 110, 79, 46, 64, 172, 37, 57, 302
522373037, -168, 11508, 8802, 7647, 2480, 2418, -2223, 100, -470, -2752, 110, 79, 46, 64, 172, 37, 57, 302
522373857, -168, 11508, 8802, 7647, 2480, 2418, -2223, 100, -470, -2752, 110, 79, 46, 64, 172, 37, 57, 302
522374654, -168, 11508, 8802, 7647, 2480, 2418, -2223, 100, -470, -2752, 110, 79, 46, 64, 172, 37, 57, 302
522375470, -168, 11508, 8802, 7647, 2480, 2418, -2223, 100, -470, -2752, 110, 79, 46, 64, 172, 37, 57, 302
522380430, -168, 11508, 8802, 7647, 2480, 2418, -2223, 100, -470, -2752, 110, 79, 46, 64, 172, 37, 57, 302
522381233, -168, 11508, 8802, 7647, 2480, 2418, -2223, 100, -470, -2752, 110, 79, 46, 64, 172, 37, 57, 302
522382055, -168, 11508, 8802, 7647, 2480, 2418, -2223, 100, -470, -2752, 110, 79, 46, 64, 172, 37, 57, 302
522382865, -168, 11508, 8802, 7647, 2480, 2418, -2223, 100, -470, -2752, 110, 79, 46, 64, 172, 37, 57, 302
522387952, -168, 11508, 8802, 7647, 2480, 2418, -2223, 100, -470, -2752, 110, 79, 46, 64, 172, 37, 57, 302
522388876, 54, 11318, 9111, 7569, 2567, 2473, -2229, 215, -506, -2324, 110, 79, 46, 64, 172, 37, 57, 302
522389680, 54, 11318, 9111, 7569, 2567, 2473, -2229, 215, -506, -2324, 123, 88, 53, 66, 189, 45, 96, 303
522390497, 54, 11318, 9111, 7569, 2567, 2473, -2229, 215, -506, -2324, 110, 79, 46, 64, 172, 37, 57, 302
522395512, 54, 11318, 9111, 7569, 2567, 2473, -2229, 215, -506, -2324, 123, 88, 53, 66, 189, 45, 96, 303
522396368, 54, 11318, 9111, 7569, 2567, 2473, -2229, 215, -506, -2324, 123, 88, 53, 66, 189, 45, 96, 303
522397154, 54, 11318, 9111, 7569, 2567, 2473, -2229, 215, -506, -2324, 123, 88, 53, 66, 189, 45, 96, 303
522397960, 54, 11318, 9111, 7569, 2567, 2473, -2229, 215, -506, -2324, 123, 88, 53, 66, 189, 45, 96, 303
522402938, 54, 11318, 9111, 7569, 2567, 2473, -2229, 215, -506, -2324, 123, 88, 53, 66, 189, 45, 96, 303
522403744, 54, 11318, 9111, 7569, 2567, 2473, -2229, 215, -506, -2324, 123, 88, 53, 66, 189, 45, 96, 303
522404527, 54, 11318, 9111, 7569, 2567, 2473, -2229, 215, -506, -2324, 123, 88, 53, 66, 189, 45, 96, 303
522405392, 54, 11318, 9111, 7569, 2567, 2473, -2229, 215, -506, -2324, 123, 88, 53, 66, 189, 45, 96, 303
522410458, 54, 11318, 9111, 7569, 2567, 2473, -2229, 215, -506, -2324, 123, 88, 53, 66, 189, 45, 96, 303
522411376, 244, 11150, 9365, 7505, 2754, 2469, -2234, 148, -436, -1998, 123, 88, 53, 66, 189, 45, 96, 303
522412177, 244, 11150, 9365, 7505, 2754, 2469, -2234, 148, -436, -1998, 137, 85, 56, 59, 186, 46, 107, 424
522412971, 244, 11150, 9365, 7505, 2754, 2469, -2234, 148, -436, -1998, 137, 85, 56, 59, 186, 46, 107, 424
522417997, 244, 11150, 9365, 7505, 2754, 2469, -2234, 148, -436, -1998, 137, 85, 56, 59, 186, 46, 107, 424
522418817, 244, 11150, 9365, 7505, 2754, 2469, -2234, 148, -436, -1998, 137, 85, 56, 59, 186, 46, 107, 424
522419630, 244, 11150, 9365, 7505, 2754, 2469, -2234, 148, -436, -1998, 137, 85, 56, 59, 186, 46, 107, 424
522420452, 244, 11150, 9365, 7505, 2754, 2469, -2234, 148, -436, -1998, 137, 85, 56, 59, 186, 46, 107, 424
522425450, 244, 11150, 9365, 7505, 2754, 2469, -2234, 148, -436, -1998, 137, 85, 56, 59, 186, 46, 107, 424
522426286, 244, 11150, 9365, 7505, 2754, 2469, -2234, 148, -436, -1998, 137, 85, 56, 59, 186, 46, 107, 424
522427078, 244, 11150, 9365, 7505, 2754, 2469, -2234, 148, -436, -1998, 137, 85, 56, 59, 186, 46, 107, 424
522427891, 244, 11150, 9365, 7505, 2754, 2469, -2234, 148, -436, -1998, 137, 85, 56, 59, 186, 46, 107, 424
522432971, 244, 11150, 9365, 7505, 2754, 2469, -2234, 148, -436, -1998, 137, 85, 56, 59, 186, 46, 107, 424
522433913, 400, 10984, 9583, 7468, 2741, 2467, -2139, 101, -243, -1781, 137, 85, 56, 59, 186, 46, 107, 424
522434709, 400, 10984, 9583, 7468, 2741, 2467, -2139, 101, -243, -1781, 155, 87, 54, 58, 186, 47, 123, 476
522435533, 400, 10984, 9583, 7468, 2741, 2467, -2139, 101, -243, -1781, 155, 87, 54, 58, 186, 47, 123, 476
522440541, 400, 10984, 9583, 7468, 2741, 2467, -2139, 101, -243, -1781, 155, 87, 54, 58, 186, 47, 123, 476
522441368, 400, 10984, 9583, 7468, 2741, 2467, -2139, 101, -243, -1781, 155, 87, 54, 58, 186, 47, 123, 476
522442145, 400, 10984, 9583, 7468, 2741, 2467, -2139, 101, -243, -1781, 155, 87, 54, 58, 186, 47, 123, 476
522442967, 400, 10984, 9583, 7468, 2741, 2467, -2139, 101, -243, -1781, 155, 87, 54, 58, 186, 47, 123, 476
522447955, 400, 10984, 9583, 7468, 2741, 2467, -2139, 101, -243, -1781, 155, 87, 54, 58, 186, 47, 123, 476
522448768, 400, 10984, 9583, 7468, 2741, 2467, -2139, 101, -243, -1781, 155, 87, 54, 58, 186, 47, 123, 476
522449597, 400, 10984, 9583, 7468, 2741, 2467, -2139, 101, -243, -1781, 155, 87, 54, 58, 186, 47, 123, 476
522450402, 400, 10984, 9583, 7468, 2741, 2467, -2139, 101, -243, -1781, 155, 87, 54, 58, 186, 47, 123, 476
522455471, 400, 10984, 9583, 7468, 2741, 2467, -2139, 101, -243, -1781, 155, 87, 54, 58, 186, 47, 123, 476
522456408, 562, 10812, 9723, 7527, 2629, 2568, -2017, -313, -61, -1552, 155, 87, 54, 58, 186, 47, 123, 476
522457197, 562, 10812, 9723, 7527, 2629, 2568, -2017, -313, -61, -1552, 182, 108, 66, 78, 195, 59, 134, 530
522458005, 562, 10812, 9723, 7527, 2629, 2568, -2017, -313, -61, -1552, 182, 108, 66, 78, 195, 59, 134, 530
522463019, 562, 10812, 9723, 7527, 2629, 2568, -2017, -313, -61, -1552, 182, 108, 66, 78, 195, 59, 134, 530
522463822, 562, 10812, 9723, 7527, 2629, 2568, -2017, -313, -61, -1552, 182, 108, 66, 78, 195, 59, 134, 530
522464656, 562, 10812, 9723, 7527, 2629, 2568, -2017, -313, -61, -1552, 182, 108, 66, 78, 195, 59, 134, 530
522465469, 562, 10812, 9723, 7527, 2629, 2568, -2017, -313, -61, -1552, 182, 108, 66, 78, 195, 59, 134, 530
522470431, 562, 10812, 9723, 7527, 2629, 2568, -2017, -313, -61, -1552, 182, 108, 66, 78, 195, 59, 134, 530
522471220, 562, 10812, 9723, 7527, 2629, 2568, -2017, -313, -61, -1552, 182, 108, 66, 78, 195, 59, 134, 530
522472030, 562, 10812, 9723, 7527, 2629, 2568, -2017, -313, -61, -1552, 182, 108, 66, 78, 195, 59, 134, 530
522472849, 562, 10812, 9723, 7527, 2629, 2568, -2017, -313, -61, -1552, 182, 108, 66, 78, 195, 59, 134, 530
522477995, 562, 10812, 9723, 7527, 2629, 2568, -2017, -313, -61, -1552, 182, 108, 66, 78, 195, 59, 134, 530
522478896, 746, 10647, 9805, 7639, 2479, 2506, -1769, -696, 2, -1384, 182, 108, 66, 78, 195, 59, 134, 530
522479704, 746, 10647, 9805, 7639, 2479, 2506, -1769, -696, 2, -1384, 192, 123, 80, 69, 118, 81, 171, 600
522480522, 746, 10647, 9805, 7639, 2479, 2506, -1769, -696, 2, -1384, 192, 123, 80, 69, 118, 81, 171, 600
522485568, 746, 10647, 9805, 7639, 2479, 2506, -1769, -696, 2, -1384, 192, 123, 80, 69, 118, 81, 171, 600
522486368, 746, 10647, 9805, 7639, 2479, 2506, -1769, -696, 2, -1384, 192, 123, 80, 69, 118, 81, 171, 600
522487177, 746, 10647, 9805, 7639, 2479, 2506, -1769, -696, 2, -1384, 192, 123, 80, 69, 118, 81, 171, 600
522488008, 746, 10647, 9805, 7639, 2479, 2506, -1769, -696, 2, -1384, 192, 123, 80, 69, 118, 81, 171, 600
522492981, 746, 10647, 9805, 7639, 2479, 2506, -1769, -696, 2, -1384, 192, 123, 80, 69, 118, 81, 171, 600
522493755, 746, 10647, 9805, 7639, 2479, 2506, -1769, -696, 2, -1384, 192, 123, 80, 69, 118, 81, 171, 600
522494582, 746, 10647, 9805, 7639, 2479, 2506, -1769, -696, 2, -1384, 192, 123, 80, 69, 118, 81, 171, 600
522495408, 746, 10647, 9805, 7639, 2479, 2506, -1769, -696, 2, -1384, 192, 123, 80, 69, 118, 81, 171, 600
522500475, 746, 10647, 9805, 7639, 2479, 2506, -1769, -696, 2, -1384, 192, 123, 80, 69, 118, 81, 171, 600
522501380, 969, 10488, 9855, 7769, 2413, 2493, -1616, -989, -99, -1387, 192, 123, 80, 69, 118, 81, 171, 600
522502205, 969, 10488, 9855, 7769, 2413, 2493, -1616, -989, -99, -1387, 193, 130, 81, 68, 91, 80, 179, 621
522503022, 969, 10488, 9855, 7769, 2413, 2493, -1616, -989, -99, -1387, 193, 130, 81, 68, 91, 80, 179, 621
522508034, 969, 10488, 9855, 7769, 2413, 2493, -1616, -989, -99, -1387, 193, 130, 81, 68, 91, 80, 179, 621
522508842, 969, 10488, 9855, 7769, 2413, 2493, -1616, -989, -99, -1387, 193, 130, 81, 68, 91, 80, 179, 621
522509659, 969, 10488, 9855, 7769, 2413, 2493, -1616, -989, -99, -1387, 193, 130, 81, 68, 91, 80, 179, 621
522510490, 969, 10488, 9855, 7769, 2413, 2493, -1616, -989, -99, -1387, 193, 130, 81, 68, 91, 80, 179, 621
522515440, 969, 10488, 9855, 7769, 2413, 2493, -1616, -989, -99, -1387, 193, 130, 81, 68, 91, 80, 179, 621
522516234, 969, 10488, 9855, 7769, 2413, 2493, -1616, -989, -99, -1387, 193, 130, 81, 68, 91, 80, 179, 621
522517047, 969, 10488, 9855, 7769, 2413, 2493, -1616, -989, -99, -1387, 193, 130, 81, 68, 91, 80, 179, 621
522517848, 969, 10488, 9855, 7769, 2413, 2493, -1616, -989, -99, -1387, 193, 130, 81, 68, 91, 80, 179, 621
522522965, 969, 10488, 9855, 7769, 2413, 2493, -1616, -989, -99, -1387, 193, 130, 81, 68, 91, 80, 179, 621
522523879, 1201, 10345, 9894, 7877, 2427, 2468, -1570, -1006, -269, -1395, 193, 130, 81, 68, 91, 80, 179, 621
522524677, 1201, 10345, 9894, 7877, 2427, 2468, -1570, -1006, -269, -1395, 225, 154, 97, 69, 93, 95, 214, 625
522525481, 1201, 10345, 9894, 7877, 2427, 2468, -1570, -1006, -269, -1395, 225, 154, 97, 69, 93, 95, 214, 625
522530535, 1201, 10345, 9894, 7877, 2427, 2468, -1570, -1006, -269, -1395, 225, 154, 97, 69, 93, 95, 214, 625
522531359, 1201, 10345, 9894, 7877, 2427, 2468, -1570, -1006, -269, -1395, 225, 154, 97, 69, 93, 95, 214, 625
522532130, 1201, 10345, 9894, 7877, 2427, 2468, -1570, -1006, -269, -1395, 225, 154, 97, 69, 93, 95, 214, 625
522532936, 1201, 10345, 9894, 7877, 2427, 2468, -1570, -1006, -269, -1395, 225, 154, 97, 69, 93, 95, 214, 625
522537744, 1201, 10345, 9894, 7877, 2427, 2468, -1570, -1006, -269, -1395, 225, 154, 97, 69, 93, 95, 214, 625
522538542, 1201, 10345, 9894, 7877, 2427, 2468, -1570, -1006, -269, -1395, 225, 154, 97, 69, 93, 95, 214, 625
522539386, 1201, 10345, 9894, 7877, 2427, 2468, -1570, -1006, -269, -1395, 225, 154, 97, 69, 93, 95, 214, 625
522545492, 1201, 10345, 9894, 7877, 2427, 2468, -1570, -1006, -269, -1395, 225, 154, 97, 69, 93, 95, 214, 625
522546284, 1201, 10345, 9894, 7877, 2427, 2468, -1570, -1006, -269, -1395, 225, 154, 97, 69, 93, 95, 214, 625
522547221, 1465, 10220, 9896, 7993, 2372, 2442, -1534, -1282, -396, -1342, 225, 154, 97, 69, 93, 95, 214, 625
522548048, 1465, 10220, 9896, 7993, 2372, 2442, -1534, -1282, -396, -1342, 220, 154, 99, 71, 100, 109, 243, 652
522553086, 1465, 10220, 9896, 7993, 2372, 2442, -1534, -1282, -396, -1342, 220, 154, 99, 71, 100, 109, 243, 652
522553882, 1465, 10220, 9896, 7993, 2372, 2442, -1534, -1282, -396, -1342, 220, 154, 99, 71, 100, 109, 243, 652
522554676, 1465, 10220, 9896, 7993, 2372, 2442, -1534, -1282, -396, -1342, 220, 154, 99, 71, 100, 109, 243, 652
522555499, 1465, 10220, 9896, 7993, 2372, 2442, -1534, -1282, -396, -1342, 220, 154, 99, 71, 100, 109, 243, 652
522560465, 1465, 10220, 9896, 7993, 2372, 2442, -1534, -1282, -396, -1342, 220, 154, 99, 71, 100, 109, 243, 652
522561250, 1465, 10220, 9896, 7993, 2372, 2442, -1534, -1282, -396, -1342, 220, 154, 99, 71, 100, 109, 243, 652
522562082, 1465, 10220, 9896, 7993, 2372, 2442, -1534, -1282, -396, -1342, 220, 154, 99, 71, 100, 109, 243, 652
522562894, 1465, 10220, 9896, 7993, 2372, 2442, -1534, -1282, -396, -1342, 220, 154, 99, 71, 100, 109, 243, 652
522567997, 1465, 10220, 9896, 7993, 2372, 2442, -1534, -1282, -396, -1342, 220, 154, 99, 71, 100, 109, 243, 652
522568899, 1745, 10100, 9868, 8122, 2406, 2466, -1558, -1516, -425, -1319, 220, 154, 99, 71, 100, 109, 243, 652
522569705, 1745, 10100, 9868, 8122, 2406, 2466, -1558, -1516, -425, -1319, 198, 140, 93, 48, 74, 107, 294, 645
522570510, 1745, 10100, 9868, 8122, 2406, 2466, -1558, -1516, -425, -1319, 198, 140, 93, 48, 74, 107, 294, 645
522575536, 1745, 10100, 9868, 8122, 2406, 2466, -1558, -1516, -425, -1319, 198, 140, 93, 48, 74, 107, 294, 645
522576391, 1745, 10100, 9868, 8122, 2406, 2466, -1558, -1516, -425, -1319, 198, 140, 93, 48, 74, 107, 294, 645
522577141, 1745, 10100, 9868, 8122, 2406, 2466, -1558, -1516, -425, -1319, 198, 140, 93, 48, 74, 107, 294, 645
522577971, 1745, 10100, 9868, 8122, 2406, 2466, -1558, -1516, -425, -1319, 198, 140, 93, 48, 74, 107, 294, 645
522582944, 1745, 10100, 9868, 8122, 2406, 2466, -1558, -1516, -425, -1319, 198, 140, 93, 48, 74, 107, 294, 645
522583735, 1745, 10100, 9868, 8122, 2406, 2466, -1558, -1516, -425, -1319, 198, 140, 93, 48, 74, 107, 294, 645
522584550, 1745, 10100, 9868, 8122, 2406, 2466, -1558, -1516, -425, -1319, 198, 140, 93, 48, 74, 107, 294, 645
522585384, 1745, 10100, 9868, 8122, 2406, 2466, -1558, -1516, -425, -1319, 198, 140, 93, 48, 74, 107, 294, 645
522590473, 1745, 10100, 9868, 8122, 2406, 2466, -1558, -1516, -425, -1319, 198, 140, 93, 48, 74, 107, 294, 645
522591392, 2077, 9949, 9836, 8268, 2524, 2461, -1531, -1823, -277, -1341, 198, 140, 93, 48, 74, 107, 294, 645
522592174, 2077, 9949, 9836, 8268, 2524, 2461, -1531, -1823, -277, -1341, 192, 126, 81, 45, 94, 94, 289, 606
522592991, 2077, 9949, 9836, 8268, 2524, 2461, -1531, -1823, -277, -1341, 198, 140, 93, 48, 74, 107, 294, 645
522598022, 2077, 9949, 9836, 8268, 2524, 2461, -1531, -1823, -277, -1341, 192, 126, 81, 45, 94, 94, 289, 606
522598829, 2077, 9949, 9836, 8268, 2524, 2461, -1531, -1823, -277, -1341, 192, 126, 81, 45, 94, 94, 289, 606
522599615, 2077, 9949, 9836, 8268, 2524, 2461, -1531, -1823, -277, -1341, 192, 126, 81, 45, 94, 94, 289, 606
522600445, 2077, 9949, 9836, 8268, 2524, 2461, -1531, -1823, -277, -1341, 192, 126, 81, 45, 94, 94, 289, 606
522605476, 2077, 9949, 9836, 8268, 2524, 2461, -1531, -1823, -277, -1341, 192, 126, 81, 45, 94, 94, 289, 606
522606267, 2077, 9949, 9836, 8268, 2524, 2461, -1531, -1823, -277, -1341, 192, 126, 81, 45, 94, 94, 289, 606
522607103, 2077, 9949, 9836, 8268, 2524, 2461, -1531, -1823, -277, -1341, 192, 126, 81, 45, 94, 94, 289, 606
522607912, 2077, 9949, 9836, 8268, 2524, 2461, -1531, -1823, -277, -1341, 192, 126, 81, 45, 94, 94, 289, 606
522612991, 2077, 9949, 9836, 8268, 2524, 2461, -1531, -1823, -277, -1341, 192, 126, 81, 45, 94, 94, 289, 606
522613904, 2377, 9769, 9783, 8462, 2636, 2219, -1598, -1996, 63, -1280, 192, 126, 81, 45, 94, 94, 289, 606
522614732, 2377, 9769, 9783, 8462, 2636, 2219, -1598, -1996, 63, -1280, 191, 116, 88, 73, 147, 102, 277, 626
522615538, 2377, 9769, 9783, 8462, 2636, 2219, -1598, -1996, 63, -1280, 191, 116, 88, 73, 147, 102, 277, 626
522620569, 2377, 9769, 9783, 8462, 2636, 2219, -1598, -1996, 63, -1280, 191, 116, 88, 73, 147, 102, 277, 626
522621376, 2377, 9769, 9783, 8462, 2636, 2219, -1598, -1996, 63, -1280, 191, 116, 88, 73, 147, 102, 277, 626
522622168, 2377, 9769, 9783, 8462, 2636, 2219, -1598, -1996, 63, -1280, 191, 116, 88, 73, 147, 102, 277, 626
522622994, 2377, 9769, 9783, 8462, 2636, 2219, -1598, -1996, 63, -1280, 191, 116, 88, 73, 147, 102, 277, 626
522627266, 2377, 9769, 9783, 8462, 2636, 2219, -1598, -1996, 63, -1280, 191, 116, 88, 73, 147, 102, 277, 626
522628081, 2377, 9769, 9783, 8462, 2636, 2219, -1598, -1996, 63, -1280, 191, 116, 88, 73, 147, 102, 277, 626
522635469, 2377, 9769, 9783, 8462, 2636, 2219, -1598, -1996, 63, -1280, 191, 116, 88, 73, 147, 102, 277, 626
522636256, 2377, 9769, 9783, 8462, 2636, 2219, -1598, -1996, 63, -1280, 191, 116, 88, 73, 147, 102, 277, 626
522637065, 2377, 9769, 9783, 8462, 2636, 2219, -1598, -1996, 63, -1280, 191, 116, 88, 73, 147, 102, 277, 626
522638004, 2588, 9559, 9736, 8692, 2771, 1992, -1703, -1863, 583, -1159, 191, 116, 88, 73, 147, 102, 277, 626
522643042, 2588, 9559, 9736, 8692, 2771, 1992, -1703, -1863, 583, -1159, 146, 115, 206, 238, 234, 121, 264, 543
522643846, 2588, 9559, 9736, 8692, 2771, 1992, -1703, -1863, 583, -1159, 146, 115, 206, 238, 234, 121, 264, 543
522644646, 2588, 9559, 9736, 8692, 2771, 1992, -1703, -1863, 583, -1159, 146, 115, 206, 238, 234, 121, 264, 543
522645462, 2588, 9559, 9736, 8692, 2771, 1992, -1703, -1863, 583, -1159, 146, 115, 206, 238, 234, 121, 264, 543
522650449, 2588, 9559, 9736, 8692, 2771, 1992, -1703, -1863, 583, -1159, 146, 115, 206, 238, 234, 121, 264, 543
522651234, 2588, 9559, 9736, 8692, 2771, 1992, -1703, -1863, 583, -1159, 146, 115, 206, 238, 234, 121, 264, 543
522652052, 2588, 9559, 9736, 8692, 2771, 1992, -1703, -1863, 583, -1159, 146, 115, 206, 238, 234, 121, 264, 543
522652855, 2588, 9559, 9736, 8692, 2771, 1992, -1703, -1863, 583, -1159, 146, 115, 206, 238, 234, 121, 264, 543
522658005, 2588, 9559, 9736, 8692, 2771, 1992, -1703, -1863, 583, -1159, 146, 115, 206, 238, 234, 121, 264, 543
522658920, 2577, 9359, 9709, 8939, 2823, 1836, -1715, -1482, 1261, -1176, 146, 115, 206, 238, 234, 121, 264, 543
522659734, 2577, 9359, 9709, 8939, 2823, 1836, -1715, -1482, 1261, -1176, 153, 168, 300, 346, 343, 286, 238, 467
522660538, 2577, 9359, 9709, 8939, 2823, 1836, -1715, -1482, 1261, -1176, 153, 168, 300, 346, 343, 286, 238, 467
522665584, 2577, 9359, 9709, 8939, 2823, 1836, -1715, -1482, 1261, -1176, 153, 168, 300, 346, 343, 286, 238, 467
522666392, 2577, 9359, 9709, 8939, 2823, 1836, -1715, -1482, 1261, -1176, 153, 168, 300, 346, 343, 286, 238, 467
522667172, 2577, 9359, 9709, 8939, 2823, 1836, -1715, -1482, 1261, -1176, 153, 168, 300, 346, 343, 286, 238, 467
522668005, 2577, 9359, 9709, 8939, 2823, 1836, -1715, -1482, 1261, -1176, 153, 168, 300, 346, 343, 286, 238, 467
522672964, 2577, 9359, 9709, 8939, 2823, 1836, -1715, -1482, 1261, -1176, 153, 168, 300, 346, 343, 286, 238, 467
522673773, 2577, 9359, 9709, 8939, 2823, 1836, -1715, -1482, 1261, -1176, 153, 168, 300, 346, 343, 286, 238, 467
522674569, 2577, 9359, 9709, 8939, 2823, 1836, -1715, -1482, 1261, -1176, 153, 168, 300, 346, 343, 286, 238, 467
522675386, 2577, 9359, 9709, 8939, 2823, 1836, -1715, -1482, 1261, -1176, 153, 168, 300, 346, 343, 286, 238, 467
522680504, 2577, 9359, 9709, 8939, 2823, 1836, -1715, -1482, 1261, -1176, 153, 168, 300, 346, 343, 286, 238, 467
522681402, 2555, 9052, 9772, 9189, 3036, 1896, -1961, -981, 1847, -1162, 153, 168, 300, 346, 343, 286, 238, 467
522682223, 2555, 9052, 9772, 9189, 3036, 1896, -1961, -981, 1847, -1162, 160, 261, 536, 547, 595, 462, 177, 415
522683015, 2555, 9052, 9772, 9189, 3036, 1896, -1961, -981, 1847, -1162, 160, 261, 536, 547, 595, 462, 177, 415
522688061, 2555, 9052, 9772, 9189, 3036, 1896, -1961, -981, 1847, -1162, 160, 261, 536, 547, 595, 462, 177, 415
522688834, 2555, 9052, 9772, 9189, 3036, 1896, -1961, -981, 1847, -1162, 160, 261, 536, 547, 595, 462, 177, 415
522689659, 2555, 9052, 9772, 9189, 3036, 1896, -1961, -981, 1847, -1162, 160, 261, 536, 547, 595, 462, 177, 415
522690467, 2555, 9052, 9772, 9189, 3036, 1896, -1961, -981, 1847, -1162, 160, 261, 536, 547, 595, 462, 177, 415
522695443, 2555, 9052, 9772, 9189, 3036, 1896, -1961, -981, 1847, -1162, 160, 261, 536, 547, 595, 462, 177, 415
522696226, 2555, 9052, 9772, 9189, 3036, 1896, -1961, -981, 1847, -1162, 160, 261, 536, 547, 595, 462, 177, 415
522697037, 2555, 9052, 9772, 9189, 3036, 1896, -1961, -981, 1847, -1162, 160, 261, 536, 547, 595, 462, 177, 415
522697880, 2555, 9052, 9772, 9189, 3036, 1896, -1961, -981, 1847, -1162, 160, 261, 536, 547, 595, 462, 177, 415
522702961, 2555, 9052, 9772, 9189, 3036, 1896, -1961, -981, 1847, -1162, 160, 261, 536, 547, 595, 462, 177, 415
522703857, 2395, 8727, 9912, 9394, 3119, 1872, -2447, -251, 2330, -1081, 160, 261, 536, 547, 595, 462, 177, 415
522704682, 2395, 8727, 9912, 9394, 3119, 1872, -2447, -251, 2330, -1081, 151, 283, 586, 711, 734, 571, 199, 327
522705507, 2395, 8727, 9912, 9394, 3119, 1872, -2447, -251, 2330, -1081, 151, 283, 586, 711, 734, 571, 199, 327
522710519, 2395, 8727, 9912, 9394, 3119, 1872, -2447, -251, 2330, -1081, 151, 283, 586, 711, 734, 571, 199, 327
522711387, 2395, 8727, 9912, 9394, 3119, 1872, -2447, -251, 2330, -1081, 151, 283, 586, 711, 734, 571, 199, 327
522712072, 2395, 8727, 9912, 9394, 3119, 1872, -2447, -251, 2330, -1081, 151, 283, 586, 711, 734, 571, 199, 327
522712950, 2395, 8727, 9912, 9394, 3119, 1872, -2447, -251, 2330, -1081, 151, 283, 586, 711, 734, 571, 199, 327
522717922, 2395, 8727, 9912, 9394, 3119, 1872, -2447, -251, 2330, -1081, 151, 283, 586, 711, 734, 571, 199, 327
522718702, 2395, 8727, 9912, 9394, 3119, 1872, -2447, -251, 2330, -1081, 151, 283, 586, 711, 734, 571, 199, 327
522719511, 2395, 8727, 9912, 9394, 3119, 1872, -2447, -251, 2330, -1081, 151, 283, 586, 711, 734, 571, 199, 327
522720390, 2395, 8727, 9912, 9394, 3119, 1872, -2447, -251, 2330, -1081, 151, 283, 586, 711, 734, 571, 199, 327
522725509, 2395, 8727, 9912, 9394, 3119, 1872, -2447, -251, 2330, -1081, 151, 283, 586, 711, 734, 571, 199, 327
522726410, 2169, 8390, 10137, 9515, 2535, 1990, -2740, 470, 2456, -1157, 151, 283, 586, 711, 734, 571, 199, 327
522727208, 2169, 8390, 10137, 9515, 2535, 1990, -2740, 470, 2456, -1157, 144, 313, 608, 792, 874, 684, 251, 217
522728030, 2169, 8390, 10137, 9515, 2535, 1990, -2740, 470, 2456, -1157, 144, 313, 608, 792, 874, 684, 251, 217
522733068, 2169, 8390, 10137, 9515, 2535, 1990, -2740, 470, 2456, -1157, 144, 313, 608, 792, 874, 684, 251, 217
522733846, 2169, 8390, 10137, 9515, 2535, 1990, -2740, 470, 2456, -1157, 144, 313, 608, 792, 874, 684, 251, 217
522734653, 2169, 8390, 10137, 9515, 2535, 1990, -2740, 470, 2456, -1157, 144, 313, 608, 792, 874, 684, 251, 217
522735465, 2169, 8390, 10137, 9515, 2535, 1990, -2740, 470, 2456, -1157, 144, 313, 608, 792, 874, 684, 251, 217
522740459, 2169, 8390, 10137, 9515, 2535, 1990, -2740, 470, 2456, -1157, 144, 313, 608, 792, 874, 684, 251, 217
522741248, 2169, 8390, 10137, 9515, 2535, 1990, -2740, 470, 2456, -1157, 144, 313, 608, 792, 874, 684, 251, 217
522742036, 2169, 8390, 10137, 9515, 2535, 1990, -2740, 470, 2456, -1157, 144, 313, 608, 792, 874, 684, 251, 217
522742881, 2169, 8390, 10137, 9515, 2535, 1990, -2740, 470, 2456, -1157, 144, 313, 608, 792, 874, 684, 251, 217
522747962, 2169, 8390, 10137, 9515, 2535, 1990, -2740, 470, 2456, -1157, 144, 313, 608, 792, 874, 684, 251, 217
522748883, 2022, 8081, 10326, 9611, 1537, 2425, -2677, 250, 2025, -1099, 144, 313, 608, 792, 874, 684, 251, 217
522749699, 2022, 8081, 10326, 9611, 1537, 2425, -2677, 250, 2025, -1099, 140, 324, 625, 879, 1068, 820, 368, 200
522750501, 2022, 8081, 10326, 9611, 1537, 2425, -2677, 250, 2025, -1099, 140, 324, 625, 879, 1068, 820, 368, 200
522755533, 2022, 8081, 10326, 9611, 1537, 2425, -2677, 250, 2025, -1099, 140, 324, 625, 879, 1068, 820, 368, 200
522756359, 2022, 8081, 10326, 9611, 1537, 2425, -2677, 250, 2025, -1099, 140, 324, 625, 879, 1068, 820, 368, 200
522757122, 2022, 8081, 10326, 9611, 1537, 2425, -2677, 250, 2025, -1099, 140, 324, 625, 879, 1068, 820, 368, 200
522757946, 2022, 8081, 10326, 9611, 1537, 2425, -2677, 250, 2025, -1099, 140, 324, 625, 879, 1068, 820, 368, 200
522762917, 2022, 8081, 10326, 9611, 1537, 2425, -2677, 250, 2025, -1099, 140, 324, 625, 879, 1068, 820, 368, 200
522763715, 2022, 8081, 10326, 9611, 1537, 2425, -2677, 250, 2025, -1099, 140, 324, 625, 879, 1068, 820, 368, 200
522764517, 2022, 8081, 10326, 9611, 1537, 2425, -2677, 250, 2025, -1099, 140, 324, 625, 879, 1068, 820, 368, 200
522765353, 2022, 8081, 10326, 9611, 1537, 2425, -2677, 250, 2025, -1099, 140, 324, 625, 879, 1068, 820, 368, 200
522770454, 2022, 8081, 10326, 9611, 1537, 2425, -2677, 250, 2025, -1099, 140, 324, 625, 879, 1068, 820, 368, 200
522771373, 1880, 7814, 10363, 9820, 495, 2899, -2189, -561, 2092, -322, 140, 324, 625, 879, 1068, 820, 368, 200
522772156, 1880, 7814, 10363, 9820, 495, 2899, -2189, -561, 2092, -322, 131, 519, 597, 858, 1254, 892, 436, 223
522772965, 1880, 7814, 10363, 9820, 495, 2899, -2189, -561, 2092, -322, 131, 519, 597, 858, 1254, 892, 436, 223
522777978, 1880, 7814, 10363, 9820, 495, 2899, -2189, -561, 2092, -322, 131, 519, 597, 858, 1254, 892, 436, 223
522778785, 1880, 7814, 10363, 9820, 495, 2899, -2189, -561, 2092, -322, 131, 519, 597, 858, 1254, 892, 436, 223
522779596, 1880, 7814, 10363, 9820, 495, 2899, -2189, -561, 2092, -322, 131, 519, 597, 858, 1254, 892, 436, 223
522780414, 1880, 7814, 10363, 9820, 495, 2899, -2189, -561, 2092, -322, 131, 519, 597, 858, 1254, 892, 436, 223
522785431, 1880, 7814, 10363, 9820, 495, 2899, -2189, -561, 2092, -322, 131, 519, 597, 858, 1254, 892, 436, 223
522786235, 1880, 7814, 10363, 9820, 495, 2899, -2189, -561, 2092, -322, 131, 519, 597, 858, 1254, 892, 436, 223
522787068, 1880, 7814, 10363, 9820, 495, 2899, -2189, -561, 2092, -322, 131, 519, 597, 858, 1254, 892, 436, 223
522787869, 1880, 7814, 10363, 9820, 495, 2899, -2189, -561, 2092, -322, 131, 519, 597, 858, 1254, 892, 436, 223
522792941, 1880, 7814, 10363, 9820, 495, 2899, -2189, -561, 2092, -322, 131, 519, 597, 858, 1254, 892, 436, 223
522793877, 1596, 7607, 9936, 10453, 2152, 2518, -823, -3095, 3119, 1677, 131, 519, 597, 858, 1254, 892, 436, 223
522794674, 1596, 7607, 9936, 10453, 2152, 2518, -823, -3095, 3119, 1677, 128, 755, 419, 881, 1298, 964, 562, 300
522795492, 1596, 7607, 9936, 10453, 2152, 2518, -823, -3095, 3119, 1677, 128, 755, 419, 881, 1298, 964, 562, 300
522800523, 1596, 7607, 9936, 10453, 2152, 2518, -823, -3095, 3119, 1677, 128, 755, 419, 881, 1298, 964, 562, 300
522801358, 1596, 7607, 9936, 10453, 2152, 2518, -823, -3095, 3119, 1677, 128, 755, 419, 881, 1298, 964, 562, 300
522802166, 1596, 7607, 9936, 10453, 2152, 2518, -823, -3095, 3119, 1677, 128, 755, 419, 881, 1298, 964, 562, 300
522802973, 1596, 7607, 9936, 10453, 2152, 2518, -823, -3095, 3119, 1677, 128, 755, 419, 881, 1298, 964, 562, 300
522807893, 1596, 7607, 9936, 10453, 2152, 2518, -823, -3095, 3119, 1677, 128, 755, 419, 881, 1298, 964, 562, 300
522808716, 1596, 7607, 9936, 10453, 2152, 2518, -823, -3095, 3119, 1677, 128, 755, 419, 881, 1298, 964, 562, 300
522809538, 1596, 7607, 9936, 10453, 2152, 2518, -823, -3095, 3119, 1677, 128, 755, 419, 881, 1298, 964, 562, 300
522810359, 1596, 7607, 9936, 10453, 2152, 2518, -823, -3095, 3119, 1677, 128, 755, 419, 881, 1298, 964, 562, 300
522815434, 1596, 7607, 9936, 10453, 2152, 2518, -823, -3095, 3119, 1677, 128, 755, 419, 881, 1298, 964, 562, 300
522816361, 1099, 7228, 9772, 10930, 2541, 444, -801, -1217, 4207, 916, 128, 755, 419, 881, 1298, 964, 562, 300
522817169, 1099, 7228, 9772, 10930, 2541, 444, -801, -1217, 4207, 916, 134, 793, 414, 918, 1299, 988, 660, 478
522817972, 1099, 7228, 9772, 10930, 2541, 444, -801, -1217, 4207, 916, 134, 793, 414, 918, 1299, 988, 660, 478
522823043, 1099, 7228, 9772, 10930, 2541, 444, -801, -1217, 4207, 916, 134, 793, 414, 918, 1299, 988, 660, 478
522823820, 1099, 7228, 9772, 10930, 2541, 444, -801, -1217, 4207, 916, 134, 793, 414, 918, 1299, 988, 660, 478
522824625, 1099, 7228, 9772, 10930, 2541, 444, -801, -1217, 4207, 916, 134, 793, 414, 918, 1299, 988, 660, 478
522825426, 1099, 7228, 9772, 10930, 2541, 444, -801, -1217, 4207, 916, 134, 793, 414, 918, 1299, 988, 660, 478
522830420, 1099, 7228, 9772, 10930, 2541, 444, -801, -1217, 4207, 916, 134, 793, 414, 918, 1299, 988, 660, 478
522831207, 1099, 7228, 9772, 10930, 2541, 444, -801, -1217, 4207, 916, 134, 793, 414, 918, 1299, 988, 660, 478
522832019, 1099, 7228, 9772, 10930, 2541, 444, -801, -1217, 4207, 916, 134, 793, 414, 918, 1299, 988, 660, 478
522832835, 1099, 7228, 9772, 10930, 2541, 444, -801, -1217, 4207, 916, 134, 793, 414, 918, 1299, 988, 660, 478
522837965, 1099, 7228, 9772, 10930, 2541, 444, -801, -1217, 4207, 916, 134, 793, 414, 918, 1299, 988, 660, 478
522838894, 541, 6783, 10411, 10664, 1991, 843, -1959, 4273, 3215, -1244, 134, 793, 414, 918, 1299, 988, 660, 478
522839732, 541, 6783, 10411, 10664, 1991, 843, -1959, 4273, 3215, -1244, 146, 785, 426, 878, 1354, 992, 776, 521
522840528, 541, 6783, 10411, 10664, 1991, 843, -1959, 4273, 3215, -1244, 146, 785, 426, 878, 1354, 992, 776, 521
522845552, 541, 6783, 10411, 10664, 1991, 843, -1959, 4273, 3215, -1244, 146, 785, 426, 878, 1354, 992, 776, 521
522846359, 541, 6783, 10411, 10664, 1991, 843, -1959, 4273, 3215, -1244, 146, 785, 426, 878, 1354, 992, 776, 521
522847146, 541, 6783, 10411, 10664, 1991, 843, -1959, 4273, 3215, -1244, 146, 785, 426, 878, 1354, 992, 776, 521
522847961, 541, 6783, 10411, 10664, 1991, 843, -1959, 4273, 3215, -1244, 146, 785, 426, 878, 1354, 992, 776, 521
522852949, 541, 6783, 10411, 10664, 1991, 843, -1959, 4273, 3215, -1244, 146, 785, 426, 878, 1354, 992, 776, 521
522853751, 541, 6783, 10411, 10664, 1991, 843, -1959, 4273, 3215, -1244, 146, 785, 426, 878, 1354, 992, 776, 521
522854552, 541, 6783, 10411, 10664, 1991, 843, -1959, 4273, 3215, -1244, 146, 785, 426, 878, 1354, 992, 776, 521
522855391, 541, 6783, 10411, 10664, 1991, 843, -1959, 4273, 3215, -1244, 146, 785, 426, 878, 1354, 992, 776, 521
522860436, 541, 6783, 10411, 10664, 1991, 843, -1959, 4273, 3215, -1244, 146, 785, 426, 878, 1354, 992, 776, 521
522861371, -52, 6321, 11146, 10208, 1693, 2107, -2581, 5368, 3003, -1311, 146, 785, 426, 878, 1354, 992, 776, 521
522862168, -52, 6321, 11146, 10208, 1693, 2107, -2581, 5368, 3003, -1311, 141, 784, 364, 813, 1290, 928, 743, 575
522862995, -52, 6321, 11146, 10208, 1693, 2107, -2581, 5368, 3003, -1311, 141, 784, 364, 813, 1290, 928, 743, 575
522868007, -52, 6321, 11146, 10208, 1693, 2107, -2581, 5368, 3003, -1311, 141, 784, 364, 813, 1290, 928, 743, 575
522868824, -52, 6321, 11146, 10208, 1693, 2107, -2581, 5368, 3003, -1311, 141, 784, 364, 813, 1290, 928, 743, 575
522869625, -52, 6321, 11146, 10208, 1693, 2107, -2581, 5368, 3003, -1311, 141, 784, 364, 813, 1290, 928, 743, 575
522870456, -52, 6321, 11146, 10208, 1693, 2107, -2581, 5368, 3003, -1311, 141, 784, 364, 813, 1290, 928, 743, 575
522875416, -52, 6321, 11146, 10208, 1693, 2107, -2581, 5368, 3003, -1311, 141, 784, 364, 813, 1290, 928, 743, 575
522876219, -52, 6321, 11146, 10208, 1693, 2107, -2581, 5368, 3003, -1311, 141, 784, 364, 813, 1290, 928, 743, 575
522877022, -52, 6321, 11146, 10208, 1693, 2107, -2581, 5368, 3003, -1311, 141, 784, 364, 813, 1290, 928, 743, 575
522877866, -52, 6321, 11146, 10208, 1693, 2107, -2581, 5368, 3003, -1311, 141, 784, 364, 813, 1290, 928, 743, 575
522882708, -52, 6321, 11146, 10208, 1693, 2107, -2581, 5368, 3003, -1311, 141, 784, 364, 813, 1290, 928, 743, 575
522883609, -614, 5883, 11587, 9958, 1018, 2801, -3135, 3466, 3294, -573, 141, 784, 364, 813, 1290, 928, 743, 575
522884422, -614, 5883, 11587, 9958, 1018, 2801, -3135, 3466, 3294, -573, 133, 687, 363, 869, 1240, 846, 719, 575
522885260, -614, 5883, 11587, 9958, 1018, 2801, -3135, 3466, 3294, -573, 133, 687, 363, 869, 1240, 846, 719, 575
522890498, -614, 5883, 11587, 9958, 1018, 2801, -3135, 3466, 3294, -573, 133, 687, 363, 869, 1240, 846, 719, 575
522891367, -614, 5883, 11587, 9958, 1018, 2801, -3135, 3466, 3294, -573, 133, 687, 363, 869, 1240, 846, 719, 575
522892043, -614, 5883, 11587, 9958, 1018, 2801, -3135, 3466, 3294, -573, 133, 687, 363, 869, 1240, 846, 719, 575
522892911, -614, 5883, 11587, 9958, 1018, 2801, -3135, 3466, 3294, -573, 133, 687, 363, 869, 1240, 846, 719, 575
522897890, -614, 5883, 11587, 9958, 1018, 2801, -3135, 3466, 3294, -573, 133, 687, 363, 869, 1240, 846, 719, 575
522898681, -614, 5883, 11587, 9958, 1018, 2801, -3135, 3466, 3294, -573, 133, 687, 363, 869, 1240, 846, 719, 575
522899493, -614, 5883, 11587, 9958, 1018, 2801, -3135, 3466, 3294, -573, 133, 687, 363, 869, 1240, 846, 719, 575
522900392, -614, 5883, 11587, 9958, 1018, 2801, -3135, 3466, 3294, -573, 133, 687, 363, 869, 1240, 846, 719, 575
522905482, -614, 5883, 11587, 9958, 1018, 2801, -3135, 3466, 3294, -573, 133, 687, 363, 869, 1240, 846, 719, 575
522906412, -1072, 5596, 11693, 9961, 1416, 3048, -2846, 1113, 2920, 271, 133, 687, 363, 869, 1240, 846, 719, 575
522907213, -1072, 5596, 11693, 9961, 1416, 3048, -2846, 1113, 2920, 271, 132, 376, 375, 771, 1276, 731, 639, 544
522908024, -1072, 5596, 11693, 9961, 1416, 3048, -2846, 1113, 2920, 271, 132, 376, 375, 771, 1276, 731, 639, 544
522913035, -1072, 5596, 11693, 9961, 1416, 3048, -2846, 1113, 2920, 271, 132, 376, 375, 771, 1276, 731, 639, 544
522913821, -1072, 5596, 11693, 9961, 1416, 3048, -2846, 1113, 2920, 271, 132, 376, 375, 771, 1276, 731, 639, 544
522914653, -1072, 5596, 11693, 9961, 1416, 3048, -2846, 1113, 2920, 271, 132, 376, 375, 771, 1276, 731, 639, 544
522915469, -1072, 5596, 11693, 9961, 1416, 3048, -2846, 1113, 2920, 271, 132, 376, 375, 771, 1276, 731, 639, 544
522920431, -1072, 5596, 11693, 9961, 1416, 3048, -2846, 1113, 2920, 271, 132, 376, 375, 771, 1276, 731, 639, 544
522921235, -1072, 5596, 11693, 9961, 1416, 3048, -2846, 1113, 2920, 271, 132, 376, 375, 771, 1276, 731, 639, 544
522922028, -1072, 5596, 11693, 9961, 1416, 3048, -2846, 1113, 2920, 271, 132, 376, 375, 771, 1276, 731, 639, 544
522922860, -1072, 5596, 11693, 9961, 1416, 3048, -2846, 1113, 2920, 271, 132, 376, 375, 771, 1276, 731, 639, 544
522927945, -1072, 5596, 11693, 9961, 1416, 3048, -2846, 1113, 2920, 271, 132, 376, 375, 771, 1276, 731, 639, 544
522928880, -1393, 5386, 11661, 10074, 1745, 2185, -2806, -113, 2366, 238, 132, 376, 375, 771, 1276, 731, 639, 544
522929685, -1393, 5386, 11661, 10074, 1745, 2185, -2806, -113, 2366, 238, 121, 272, 316, 588, 1235, 674, 532, 392
522930494, -1393, 5386, 11661, 10074, 1745, 2185, -2806, -113, 2366, 238, 121, 272, 316, 588, 1235, 674, 532, 392
522935527, -1393, 5386, 11661, 10074, 1745, 2185, -2806, -113, 2366, 238, 121, 272, 316, 588, 1235, 674, 532, 392
522936366, -1393, 5386, 11661, 10074, 1745, 2185, -2806, -113, 2366, 238, 121, 272, 316, 588, 1235, 674, 532, 392
522937127, -1393, 5386, 11661, 10074, 1745, 2185, -2806, -113, 2366, 238, 121, 272, 316, 588, 1235, 674, 532, 392
522937986, -1393, 5386, 11661, 10074, 1745, 2185, -2806, -113, 2366, 238, 121, 272, 316, 588, 1235, 674, 532, 392
522942918, -1393, 5386, 11661, 10074, 1745, 2185, -2806, -113, 2366, 238, 121, 272, 316, 588, 1235, 674, 532, 392
522943711, -1393, 5386, 11661, 10074, 1745, 2185, -2806, -113, 2366, 238, 121, 272, 316, 588, 1235, 674, 532, 392
522944520, -1393, 5386, 11661, 10074, 1745, 2185, -2806, -113, 2366, 238, 121, 272, 316, 588, 1235, 674, 532, 392
522945389, -1393, 5386, 11661, 10074, 1745, 2185, -2806, -113, 2366, 238, 121, 272, 316, 588, 1235, 674, 532, 392
522950413, -1393, 5386, 11661, 10074, 1745, 2185, -2806, -113, 2366, 238, 121, 272, 316, 588, 1235, 674, 532, 392
522951373, -1711, 5234, 11629, 10142, 1421, 1613, -2561, 36, 2078, 485, 121, 272, 316, 588, 1235, 674, 532, 392
522952148, -1711, 5234, 11629, 10142, 1421, 1613, -2561, 36, 2078, 485, 102, 268, 267, 632, 1222, 583, 313, 333
522952996, -1711, 5234, 11629, 10142, 1421, 1613, -2561, 36, 2078, 485, 102, 268, 267, 632, 1222, 583, 313, 333
522958033, -1711, 5234, 11629, 10142, 1421, 1613, -2561, 36, 2078, 485, 102, 268, 267, 632, 1222, 583, 313, 333
522958807, -1711, 5234, 11629, 10142, 1421, 1613, -2561, 36, 2078, 485, 102, 268, 267, 632, 1222, 583, 313, 333
522959607, -1711, 5234, 11629, 10142, 1421, 1613, -2561, 36, 2078, 485, 102, 268, 267, 632, 1222, 583, 313, 333
522960417, -1711, 5234, 11629, 10142, 1421, 1613, -2561, 36, 2078, 485, 102, 268, 267, 632, 1222, 583, 313, 333
522965393, -1711, 5234, 11629, 10142, 1421, 1613, -2561, 36, 2078, 485, 102, 268, 267, 632, 1222, 583, 313, 333
522966172, -1711, 5234, 11629, 10142, 1421, 1613, -2561, 36, 2078, 485, 102, 268, 267, 632, 1222, 583, 313, 333
522967005, -1711, 5234, 11629, 10142, 1421, 1613, -2561, 36, 2078, 485, 102, 268, 267, 632, 1222, 583, 313, 333
522967826, -1711, 5234, 11629, 10142, 1421, 1613, -2561, 36, 2078, 485, 102, 268, 267, 632, 1222, 583, 313, 333
522972972, -1711, 5234, 11629, 10142, 1421, 1613, -2561, 36, 2078, 485, 102, 268, 267, 632, 1222, 583, 313, 333
522973878, -2030, 5153, 11637, 10115, 1382, 2013, -2563, 531, 1650, 795, 102, 268, 267, 632, 1222, 583, 313, 333
522974678, -2030, 5153, 11637, 10115, 1382, 2013, -2563, 531, 1650, 795, 103, 259, 291, 626, 1187, 563, 276, 231
522975491, -2030, 5153, 11637, 10115, 1382, 2013, -2563, 531, 1650, 795, 103, 259, 291, 626, 1187, 563, 276, 231
522980509, -2030, 5153, 11637, 10115, 1382, 2013, -2563, 531, 1650, 795, 103, 259, 291, 626, 1187, 563, 276, 231
522981362, -2030, 5153, 11637, 10115, 1382, 2013, -2563, 531, 1650, 795, 103, 259, 291, 626, 1187, 563, 276, 231
522982140, -2030, 5153, 11637, 10115, 1382, 2013, -2563, 531, 1650, 795, 103, 259, 291, 626, 1187, 563, 276, 231
522982939, -2030, 5153, 11637, 10115, 1382, 2013, -2563, 531, 1650, 795, 103, 259, 291, 626, 1187, 563, 276, 231
522987912, -2030, 5153, 11637, 10115, 1382, 2013, -2563, 531, 1650, 795, 103, 259, 291, 626, 1187, 563, 276, 231
522988713, -2030, 5153, 11637, 10115, 1382, 2013, -2563, 531, 1650, 795, 103, 259, 291, 626, 1187, 563, 276, 231
522989533, -2030, 5153, 11637, 10115, 1382, 2013, -2563, 531, 1650, 795, 103, 259, 291, 626, 1187, 563, 276, 231
522990388, -2030, 5153, 11637, 10115, 1382, 2013, -2563, 531, 1650, 795, 103, 259, 291, 626, 1187, 563, 276, 231
522995446, -2030, 5153, 11637, 10115, 1382, 2013, -2563, 531, 1650, 795, 103, 259, 291, 626, 1187, 563, 276, 231
522996373, -2261, 5133, 11734, 9964, 1632, 2555, -2680, 492, 1313, 776, 103, 259, 291, 626, 1187, 563, 276, 231
522997173, -2261, 5133, 11734, 9964, 1632, 2555, -2680, 492, 1313, 776, 104, 176, 271, 540, 1096, 553, 233, 188
522997978, -2261, 5133, 11734, 9964, 1632, 2555, -2680, 492, 1313, 776, 104, 176, 271, 540, 1096, 553, 233, 188
523003020, -2261, 5133, 11734, 9964, 1632, 2555, -2680, 492, 1313, 776, 104, 176, 271, 540, 1096, 553, 233, 188
523003811, -2261, 5133, 11734, 9964, 1632, 2555, -2680, 492, 1313, 776, 104, 176, 271, 540, 1096, 553, 233, 188
523004652, -2261, 5133, 11734, 9964, 1632, 2555, -2680, 492, 1313, 776, 104, 176, 271, 540, 1096, 553, 233, 188
523005436, -2261, 5133, 11734, 9964, 1632, 2555, -2680, 492, 1313, 776, 104, 176, 271, 540, 1096, 553, 233, 188
523010408, -2261, 5133, 11734, 9964, 1632, 2555, -2680, 492, 1313, 776, 104, 176, 271, 540, 1096, 553, 233, 188
523011207, -2261, 5133, 11734, 9964, 1632, 2555, -2680, 492, 1313, 776, 104, 176, 271, 540, 1096, 553, 233, 188
523012022, -2261, 5133, 11734, 9964, 1632, 2555, -2680, 492, 1313, 776, 104, 176, 271, 540, 1096, 553, 233, 188
523012810, -2261, 5133, 11734, 9964, 1632, 2555, -2680, 492, 1313, 776, 104, 176, 271, 540, 1096, 553, 233, 188
523017917, -2261, 5133, 11734, 9964, 1632, 2555, -2680, 492, 1313, 776, 104, 176, 271, 540, 1096, 553, 233, 188
523018840, -2386, 5128, 11814, 9842, 1579, 2592, -2762, 121, 932, 533, 104, 176, 271, 540, 1096, 553, 233, 188
523019652, -2386, 5128, 11814, 9842, 1579, 2592, -2762, 121, 932, 533, 100, 149, 231, 505, 954, 488, 199, 148
523020452, -2386, 5128, 11814, 9842, 1579, 2592, -2762, 121, 932, 533, 100, 149, 231, 505, 954, 488, 199, 148
523025474, -2386, 5128, 11814, 9842, 1579, 2592, -2762, 121, 932, 533, 100, 149, 231, 505, 954, 488, 199, 148
523026273, -2386, 5128, 11814, 9842, 1579, 2592, -2762, 121, 932, 533, 100, 149, 231, 505, 954, 488, 199, 148
523027098, -2386, 5128, 11814, 9842, 1579, 2592, -2762, 121, 932, 533, 100, 149, 231, 505, 954, 488, 199, 148
523027939, -2386, 5128, 11814, 9842, 1579, 2592, -2762, 121, 932, 533, 100, 149, 231, 505, 954, 488, 199, 148
