Timestamp, Orientation x, Orientation y, Orientation z, Orientation w, Acceleration x, Acceleration y, Acceleration z, Rotation x, Rotation y, Rotation z, EMG 0, EMG 1, EMG 2, EMG 3, EMG 4, EMG 5, EMG 6, EMG 7
114101515, 5709, 9646, -8849, -8031, 3952, 1035, -2201, -12, 56, -101, 0, 0, 0, 0, 0, 0, 0, 0
114102301, 5706, 9661, -8837, -8028, 3929, 1059, -2199, 15, 63, -89, 0, 0, 0, 0, 0, 0, 0, 0
114103111, 5702, 9676, -8829, -8022, 3917, 1073, -2193, 36, 65, -72, 0, 0, 0, 0, 0, 0, 0, 0
114122585, 5697, 9691, -8825, -8012, 3908, 1076, -2183, 65, 65, -53, 0, 0, 0, 0, 0, 0, 0, 0
114145113, 5691, 9705, -8824, -8001, 3897, 1072, -2185, 80, 58, -38, 0, 0, 0, 0, 0, 0, 0, 0
114160105, 5684, 9717, -8825, -7989, 3896, 1062, -2199, 80, 50, -31, 0, 0, 0, 0, 0, 0, 0, 0
114168208, 5684, 9717, -8825, -7989, 3896, 1062, -2199, 80, 50, -31, 35, 52, 36, 28, 25, 66, 60, 55
114169012, 5684, 9717, -8825, -7989, 3896, 1062, -2199, 80, 50, -31, 35, 52, 36, 28, 25, 66, 60, 55
114183227, 5678, 9728, -8826, -7980, 3918, 1034, -2203, 71, 39, -27, 35, 52, 36, 28, 25, 66, 60, 55
114184004, 5678, 9728, -8826, -7980, 3918, 1034, -2203, 71, 39, -27, 34, 46, 34, 27, 23, 56, 50, 50
114189993, 5678, 9728, -8826, -7980, 3918, 1034, -2203, 71, 39, -27, 34, 46, 34, 27, 23, 56, 50, 50
114206436, 5673, 9738, -8825, -7972, 3947, 1033, -2214, 59, 40, -33, 34, 46, 34, 27, 23, 56, 50, 50
114207161, 5673, 9738, -8825, -7972, 3947, 1033, -2214, 59, 40, -33, 33, 44, 32, 25, 23, 48, 43, 47
114207975, 5673, 9738, -8825, -7972, 3947, 1033, -2214, 59, 40, -33, 33, 44, 32, 25, 23, 48, 43, 47
114220040, 5667, 9754, -8815, -7967, 3979, 1027, -2241, 38, 60, -87, 33, 44, 32, 25, 23, 48, 43, 47
114228329, 5667, 9754, -8815, -7967, 3979, 1027, -2241, 38, 60, -87, 32, 41, 28, 26, 23, 38, 42, 43
114229018, 5667, 9754, -8815, -7967, 3979, 1027, -2241, 38, 60, -87, 32, 41, 28, 26, 23, 38, 42, 43
114242549, 5664, 9776, -8796, -7964, 4007, 1033, -2246, 10, 99, -136, 32, 41, 28, 26, 23, 38, 42, 43
114250694, 5664, 9776, -8796, -7964, 4007, 1033, -2246, 10, 99, -136, 30, 41, 37, 26, 23, 33, 37, 38
114251507, 5664, 9776, -8796, -7964, 4007, 1033, -2246, 10, 99, -136, 30, 41, 37, 26, 23, 33, 37, 38
114266181, 5652, 9826, -8740, -7972, 4216, 1048, -2278, -39, 182, -382, 30, 41, 37, 26, 23, 33, 37, 38
114266953, 5652, 9826, -8740, -7972, 4216, 1048, -2278, -39, 182, -382, 32, 46, 43, 27, 27, 32, 36, 41
114272536, 5652, 9826, -8740, -7972, 4216, 1048, -2278, -39, 182, -382, 32, 46, 43, 27, 27, 32, 36, 41
114290406, 5641, 9922, -8639, -7972, 4137, 1020, -2345, -53, 422, -659, 32, 46, 43, 27, 27, 32, 36, 41
114291060, 5641, 9922, -8639, -7972, 4137, 1020, -2345, -53, 422, -659, 32, 46, 43, 27, 27, 32, 36, 41
114291944, 5709, 9646, -8849, -8031, 3952, 1035, -2201, -12, 56, -101, 32, 46, 43, 27, 27, 32, 36, 41
114292763, 5706, 9661, -8837, -8028, 3929, 1059, -2199, 15, 63, -89, 32, 46, 43, 27, 27, 32, 36, 41
114297762, 5702, 9676, -8829, -8022, 3917, 1073, -2193, 36, 65, -72, 32, 46, 43, 27, 27, 32, 36, 41
114298554, 5697, 9691, -8825, -8012, 3908, 1076, -2183, 65, 65, -53, 32, 46, 43, 27, 27, 32, 36, 41
114299423, 5691, 9705, -8824, -8001, 3897, 1072, -2185, 80, 58, -38, 32, 46, 43, 27, 27, 32, 36, 41
114300213, 5691, 9705, -8824, -8001, 3897, 1072, -2185, 80, 58, -38, 35, 52, 36, 28, 25, 66, 60, 55
114305271, 5691, 9705, -8824, -8001, 3897, 1072, -2185, 80, 58, -38, 34, 46, 34, 27, 23, 56, 50, 50
114306090, 5691, 9705, -8824, -8001, 3897, 1072, -2185, 80, 58, -38, 34, 46, 34, 27, 23, 56, 50, 50
114306918, 5691, 9705, -8824, -8001, 3897, 1072, -2185, 80, 58, -38, 34, 46, 34, 27, 23, 56, 50, 50
114307720, 5691, 9705, -8824, -8001, 3897, 1072, -2185, 80, 58, -38, 34, 46, 34, 27, 23, 56, 50, 50
114312673, 5691, 9705, -8824, -8001, 3897, 1072, -2185, 80, 58, -38, 34, 46, 34, 27, 23, 56, 50, 50
114313481, 5691, 9705, -8824, -8001, 3897, 1072, -2185, 80, 58, -38, 34, 46, 34, 27, 23, 56, 50, 50
114314353, 5691, 9705, -8824, -8001, 3897, 1072, -2185, 80, 58, -38, 34, 46, 34, 27, 23, 56, 50, 50
114315036, 5691, 9705, -8824, -8001, 3897, 1072, -2185, 80, 58, -38, 34, 46, 34, 27, 23, 56, 50, 50
114320209, 5691, 9705, -8824, -8001, 3897, 1072, -2185, 80, 58, -38, 34, 46, 34, 27, 23, 56, 50, 50
114321113, 5673, 9738, -8825, -7972, 3947, 1033, -2214, 59, 40, -33, 34, 46, 34, 27, 23, 56, 50, 50
114321927, 5673, 9738, -8825, -7972, 3947, 1033, -2214, 59, 40, -33, 33, 44, 32, 25, 23, 48, 43, 47
114322736, 5673, 9738, -8825, -7972, 3947, 1033, -2214, 59, 40, -33, 33, 44, 32, 25, 23, 48, 43, 47
114327754, 5673, 9738, -8825, -7972, 3947, 1033, -2214, 59, 40, -33, 33, 44, 32, 25, 23, 48, 43, 47
114328554, 5673, 9738, -8825, -7972, 3947, 1033, -2214, 59, 40, -33, 33, 44, 32, 25, 23, 48, 43, 47
114329363, 5673, 9738, -8825, -7972, 3947, 1033, -2214, 59, 40, -33, 33, 44, 32, 25, 23, 48, 43, 47
114330197, 5673, 9738, -8825, -7972, 3947, 1033, -2214, 59, 40, -33, 33, 44, 32, 25, 23, 48, 43, 47
114335147, 5673, 9738, -8825, -7972, 3947, 1033, -2214, 59, 40, -33, 33, 44, 32, 25, 23, 48, 43, 47
114335956, 5673, 9738, -8825, -7972, 3947, 1033, -2214, 59, 40, -33, 33, 44, 32, 25, 23, 48, 43, 47
114336763, 5673, 9738, -8825, -7972, 3947, 1033, -2214, 59, 40, -33, 33, 44, 32, 25, 23, 48, 43, 47
114337619, 5673, 9738, -8825, -7972, 3947, 1033, -2214, 59, 40, -33, 33, 44, 32, 25, 23, 48, 43, 47
114342681, 5673, 9738, -8825, -7972, 3947, 1033, -2214, 59, 40, -33, 33, 44, 32, 25, 23, 48, 43, 47
114343589, 5667, 9754, -8815, -7967, 3979, 1027, -2241, 38, 60, -87, 33, 44, 32, 25, 23, 48, 43, 47
114344396, 5667, 9754, -8815, -7967, 3979, 1027, -2241, 38, 60, -87, 32, 41, 28, 26, 23, 38, 42, 43
114345227, 5667, 9754, -8815, -7967, 3979, 1027, -2241, 38, 60, -87, 32, 41, 28, 26, 23, 38, 42, 43
114350225, 5667, 9754, -8815, -7967, 3979, 1027, -2241, 38, 60, -87, 32, 41, 28, 26, 23, 38, 42, 43
114351024, 5667, 9754, -8815, -7967, 3979, 1027, -2241, 38, 60, -87, 32, 41, 28, 26, 23, 38, 42, 43
114351842, 5667, 9754, -8815, -7967, 3979, 1027, -2241, 38, 60, -87, 32, 41, 28, 26, 23, 38, 42, 43
114352656, 5667, 9754, -8815, -7967, 3979, 1027, -2241, 38, 60, -87, 32, 41, 28, 26, 23, 38, 42, 43
114357634, 5667, 9754, -8815, -7967, 3979, 1027, -2241, 38, 60, -87, 32, 41, 28, 26, 23, 38, 42, 43
114358427, 5667, 9754, -8815, -7967, 3979, 1027, -2241, 38, 60, -87, 32, 41, 28, 26, 23, 38, 42, 43
114359229, 5667, 9754, -8815, -7967, 3979, 1027, -2241, 38, 60, -87, 32, 41, 28, 26, 23, 38, 42, 43
114360076, 5667, 9754, -8815, -7967, 3979, 1027, -2241, 38, 60, -87, 32, 41, 28, 26, 23, 38, 42, 43
114365202, 5667, 9754, -8815, -7967, 3979, 1027, -2241, 38, 60, -87, 32, 41, 28, 26, 23, 38, 42, 43
114366120, 5664, 9776, -8796, -7964, 4007, 1033, -2246, 10, 99, -136, 32, 41, 28, 26, 23, 38, 42, 43
114366941, 5664, 9776, -8796, -7964, 4007, 1033, -2246, 10, 99, -136, 30, 41, 37, 26, 23, 33, 37, 38
114367779, 5664, 9776, -8796, -7964, 4007, 1033, -2246, 10, 99, -136, 30, 41, 37, 26, 23, 33, 37, 38
114372801, 5664, 9776, -8796, -7964, 4007, 1033, -2246, 10, 99, -136, 30, 41, 37, 26, 23, 33, 37, 38
114373566, 5664, 9776, -8796, -7964, 4007, 1033, -2246, 10, 99, -136, 30, 41, 37, 26, 23, 33, 37, 38
114374423, 5664, 9776, -8796, -7964, 4007, 1033, -2246, 10, 99, -136, 30, 41, 37, 26, 23, 33, 37, 38
114375227, 5664, 9776, -8796, -7964, 4007, 1033, -2246, 10, 99, -136, 30, 41, 37, 26, 23, 33, 37, 38
114380166, 5664, 9776, -8796, -7964, 4007, 1033, -2246, 10, 99, -136, 30, 41, 37, 26, 23, 33, 37, 38
114380977, 5664, 9776, -8796, -7964, 4007, 1033, -2246, 10, 99, -136, 30, 41, 37, 26, 23, 33, 37, 38
114381771, 5664, 9776, -8796, -7964, 4007, 1033, -2246, 10, 99, -136, 30, 41, 37, 26, 23, 33, 37, 38
114382634, 5664, 9776, -8796, -7964, 4007, 1033, -2246, 10, 99, -136, 30, 41, 37, 26, 23, 33, 37, 38
114387672, 5664, 9776, -8796, -7964, 4007, 1033, -2246, 10, 99, -136, 30, 41, 37, 26, 23, 33, 37, 38
114388610, 5652, 9826, -8740, -7972, 4216, 1048, -2278, -39, 182, -382, 30, 41, 37, 26, 23, 33, 37, 38
114389437, 5652, 9826, -8740, -7972, 4216, 1048, -2278, -39, 182, -382, 32, 46, 43, 27, 27, 32, 36, 41
114390224, 5652, 9826, -8740, -7972, 4216, 1048, -2278, -39, 182, -382, 32, 46, 43, 27, 27, 32, 36, 41
114395234, 5652, 9826, -8740, -7972, 4216, 1048, -2278, -39, 182, -382, 32, 46, 43, 27, 27, 32, 36, 41
114396052, 5652, 9826, -8740, -7972, 4216, 1048, -2278, -39, 182, -382, 32, 46, 43, 27, 27, 32, 36, 41
114396878, 5652, 9826, -8740, -7972, 4216, 1048, -2278, -39, 182, -382, 32, 46, 43, 27, 27, 32, 36, 41
114397668, 5652, 9826, -8740, -7972, 4216, 1048, -2278, -39, 182, -382, 32, 46, 43, 27, 27, 32, 36, 41
114402644, 5652, 9826, -8740, -7972, 4216, 1048, -2278, -39, 182, -382, 32, 46, 43, 27, 27, 32, 36, 41
114403449, 5652, 9826, -8740, -7972, 4216, 1048, -2278, -39, 182, -382, 32, 46, 43, 27, 27, 32, 36, 41
114404253, 5652, 9826, -8740, -7972, 4216, 1048, -2278, -39, 182, -382, 32, 46, 43, 27, 27, 32, 36, 41
114405072, 5652, 9826, -8740, -7972, 4216, 1048, -2278, -39, 182, -382, 32, 46, 43, 27, 27, 32, 36, 41
114410164, 5652, 9826, -8740, -7972, 4216, 1048, -2278, -39, 182, -382, 32, 46, 43, 27, 27, 32, 36, 41
114411089, 5641, 9922, -8639, -7972, 4137, 1020, -2345, -53, 422, -659, 32, 46, 43, 27, 27, 32, 36, 41
114411896, 5641, 9922, -8639, -7972, 4137, 1020, -2345, -53, 422, -659, 35, 57, 49, 29, 89, 36, 39, 41
114412707, 5641, 9922, -8639, -7972, 4137, 1020, -2345, -53, 422, -659, 35, 57, 49, 29, 89, 36, 39, 41
114417741, 5641, 9922, -8639, -7972, 4137, 1020, -2345, -53, 422, -659, 35, 57, 49, 29, 89, 36, 39, 41
114418533, 5641, 9922, -8639, -7972, 4137, 1020, -2345, -53, 422, -659, 35, 57, 49, 29, 89, 36, 39, 41
114419373, 5641, 9922, -8639, -7972, 4137, 1020, -2345, -53, 422, -659, 35, 57, 49, 29, 89, 36, 39, 41
114420152, 5641, 9922, -8639, -7972, 4137, 1020, -2345, -53, 422, -659, 35, 57, 49, 29, 89, 36, 39, 41
114425195, 5641, 9922, -8639, -7972, 4137, 1020, -2345, -53, 422, -659, 35, 57, 49, 29, 89, 36, 39, 41
114425985, 5641, 9922, -8639, -7972, 4137, 1020, -2345, -53, 422, -659, 35, 57, 49, 29, 89, 36, 39, 41
114426789, 5641, 9922, -8639, -7972, 4137, 1020, -2345, -53, 422, -659, 35, 57, 49, 29, 89, 36, 39, 41
114427609, 5641, 9922, -8639, -7972, 4137, 1020, -2345, -53, 422, -659, 35, 57, 49, 29, 89, 36, 39, 41
114432708, 5641, 9922, -8639, -7972, 4137, 1020, -2345, -53, 422, -659, 35, 57, 49, 29, 89, 36, 39, 41
114433626, 5619, 10071, -8509, -7939, 4122, 961, -2506, 103, 700, -876, 35, 57, 49, 29, 89, 36, 39, 41
114434421, 5619, 10071, -8509, -7939, 4122, 961, -2506, 103, 700, -876, 62, 95, 74, 38, 166, 41, 41, 42
114435234, 5619, 10071, -8509, -7939, 4122, 961, -2506, 103, 700, -876, 62, 95, 74, 38, 166, 41, 41, 42
114440286, 5619, 10071, -8509, -7939, 4122, 961, -2506, 103, 700, -876, 62, 95, 74, 38, 166, 41, 41, 42
114441078, 5619, 10071, -8509, -7939, 4122, 961, -2506, 103, 700, -876, 62, 95, 74, 38, 166, 41, 41, 42
114441872, 5619, 10071, -8509, -7939, 4122, 961, -2506, 103, 700, -876, 62, 95, 74, 38, 166, 41, 41, 42
114442702, 5619, 10071, -8509, -7939, 4122, 961, -2506, 103, 700, -876, 62, 95, 74, 38, 166, 41, 41, 42
114447665, 5619, 10071, -8509, -7939, 4122, 961, -2506, 103, 700, -876, 62, 95, 74, 38, 166, 41, 41, 42
114448469, 5619, 10071, -8509, -7939, 4122, 961, -2506, 103, 700, -876, 62, 95, 74, 38, 166, 41, 41, 42
114449323, 5619, 10071, -8509, -7939, 4122, 961, -2506, 103, 700, -876, 62, 95, 74, 38, 166, 41, 41, 42
114450119, 5619, 10071, -8509, -7939, 4122, 961, -2506, 103, 700, -876, 62, 95, 74, 38, 166, 41, 41, 42
114455191, 5619, 10071, -8509, -7939, 4122, 961, -2506, 103, 700, -876, 62, 95, 74, 38, 166, 41, 41, 42
114456152, 5552, 10305, -8403, -7799, 4354, 1007, -2428, 800, 1124, -956, 62, 95, 74, 38, 166, 41, 41, 42
114456912, 5552, 10305, -8403, -7799, 4354, 1007, -2428, 800, 1124, -956, 77, 118, 80, 47, 219, 55, 40, 43
114457740, 5552, 10305, -8403, -7799, 4354, 1007, -2428, 800, 1124, -956, 77, 118, 80, 47, 219, 55, 40, 43
114462871, 5552, 10305, -8403, -7799, 4354, 1007, -2428, 800, 1124, -956, 77, 118, 80, 47, 219, 55, 40, 43
114463602, 5552, 10305, -8403, -7799, 4354, 1007, -2428, 800, 1124, -956, 77, 118, 80, 47, 219, 55, 40, 43
114464448, 5552, 10305, -8403, -7799, 4354, 1007, -2428, 800, 1124, -956, 77, 118, 80, 47, 219, 55, 40, 43
114465239, 5552, 10305, -8403, -7799, 4354, 1007, -2428, 800, 1124, -956, 77, 118, 80, 47, 219, 55, 40, 43
114470160, 5552, 10305, -8403, -7799, 4354, 1007, -2428, 800, 1124, -956, 77, 118, 80, 47, 219, 55, 40, 43
114470957, 5552, 10305, -8403, -7799, 4354, 1007, -2428, 800, 1124, -956, 77, 118, 80, 47, 219, 55, 40, 43
114471778, 5552, 10305, -8403, -7799, 4354, 1007, -2428, 800, 1124, -956, 77, 118, 80, 47, 219, 55, 40, 43
114472571, 5552, 10305, -8403, -7799, 4354, 1007, -2428, 800, 1124, -956, 77, 118, 80, 47, 219, 55, 40, 43
114477761, 5552, 10305, -8403, -7799, 4354, 1007, -2428, 800, 1124, -956, 77, 118, 80, 47, 219, 55, 40, 43
114478682, 5353, 10678, -8370, -7464, 4269, 1290, -2220, 2281, 1667, -1079, 77, 118, 80, 47, 219, 55, 40, 43
114479485, 5353, 10678, -8370, -7464, 4269, 1290, -2220, 2281, 1667, -1079, 105, 163, 117, 70, 388, 88, 45, 49
114480299, 5353, 10678, -8370, -7464, 4269, 1290, -2220, 2281, 1667, -1079, 105, 163, 117, 70, 388, 88, 45, 49
114485316, 5353, 10678, -8370, -7464, 4269, 1290, -2220, 2281, 1667, -1079, 105, 163, 117, 70, 388, 88, 45, 49
114486115, 5353, 10678, -8370, -7464, 4269, 1290, -2220, 2281, 1667, -1079, 105, 163, 117, 70, 388, 88, 45, 49
114486902, 5353, 10678, -8370, -7464, 4269, 1290, -2220, 2281, 1667, -1079, 105, 163, 117, 70, 388, 88, 45, 49
114487762, 5353, 10678, -8370, -7464, 4269, 1290, -2220, 2281, 1667, -1079, 105, 163, 117, 70, 388, 88, 45, 49
114492700, 5353, 10678, -8370, -7464, 4269, 1290, -2220, 2281, 1667, -1079, 105, 163, 117, 70, 388, 88, 45, 49
114493487, 5353, 10678, -8370, -7464, 4269, 1290, -2220, 2281, 1667, -1079, 105, 163, 117, 70, 388, 88, 45, 49
114494391, 5353, 10678, -8370, -7464, 4269, 1290, -2220, 2281, 1667, -1079, 105, 163, 117, 70, 388, 88, 45, 49
114495071, 5353, 10678, -8370, -7464, 4269, 1290, -2220, 2281, 1667, -1079, 105, 163, 117, 70, 388, 88, 45, 49
114507710, 5353, 10678, -8370, -7464, 4269, 1290, -2220, 2281, 1667, -1079, 105, 163, 117, 70, 388, 88, 45, 49
114508613, 4997, 11184, -8370, -6952, 4088, 1869, -2248, 3690, 2141, -1424, 105, 163, 117, 70, 388, 88, 45, 49
114509418, 4997, 11184, -8370, -6952, 4088, 1869, -2248, 3690, 2141, -1424, 116, 172, 135, 72, 452, 91, 44, 48
114510247, 4997, 11184, -8370, -6952, 4088, 1869, -2248, 3690, 2141, -1424, 116, 172, 135, 72, 452, 91, 44, 48
114515251, 4997, 11184, -8370, -6952, 4088, 1869, -2248, 3690, 2141, -1424, 116, 172, 135, 72, 452, 91, 44, 48
114516054, 4997, 11184, -8370, -6952, 4088, 1869, -2248, 3690, 2141, -1424, 116, 172, 135, 72, 452, 91, 44, 48
114516851, 4997, 11184, -8370, -6952, 4088, 1869, -2248, 3690, 2141, -1424, 116, 172, 135, 72, 452, 91, 44, 48
114517694, 4997, 11184, -8370, -6952, 4088, 1869, -2248, 3690, 2141, -1424, 116, 172, 135, 72, 452, 91, 44, 48
114522639, 4997, 11184, -8370, -6952, 4088, 1869, -2248, 3690, 2141, -1424, 116, 172, 135, 72, 452, 91, 44, 48
114523458, 4997, 11184, -8370, -6952, 4088, 1869, -2248, 3690, 2141, -1424, 116, 172, 135, 72, 452, 91, 44, 48
114524256, 4997, 11184, -8370, -6952, 4088, 1869, -2248, 3690, 2141, -1424, 116, 172, 135, 72, 452, 91, 44, 48
114525074, 4997, 11184, -8370, -6952, 4088, 1869, -2248, 3690, 2141, -1424, 116, 172, 135, 72, 452, 91, 44, 48
114530232, 4997, 11184, -8370, -6952, 4088, 1869, -2248, 3690, 2141, -1424, 116, 172, 135, 72, 452, 91, 44, 48
114531186, 4532, 11754, -8345, -6332, 3662, 2265, -2473, 4468, 2438, -1775, 116, 172, 135, 72, 452, 91, 44, 48
114531961, 4532, 11754, -8345, -6332, 3662, 2265, -2473, 4468, 2438, -1775, 122, 232, 155, 74, 457, 93, 41, 53
114532750, 4532, 11754, -8345, -6332, 3662, 2265, -2473, 4468, 2438, -1775, 122, 232, 155, 74, 457, 93, 41, 53
114537791, 4532, 11754, -8345, -6332, 3662, 2265, -2473, 4468, 2438, -1775, 122, 232, 155, 74, 457, 93, 41, 53
114538594, 4532, 11754, -8345, -6332, 3662, 2265, -2473, 4468, 2438, -1775, 122, 232, 155, 74, 457, 93, 41, 53
114539413, 4532, 11754, -8345, -6332, 3662, 2265, -2473, 4468, 2438, -1775, 122, 232, 155, 74, 457, 93, 41, 53
114540224, 4532, 11754, -8345, -6332, 3662, 2265, -2473, 4468, 2438, -1775, 122, 232, 155, 74, 457, 93, 41, 53
114545210, 4532, 11754, -8345, -6332, 3662, 2265, -2473, 4468, 2438, -1775, 122, 232, 155, 74, 457, 93, 41, 53
114545980, 4532, 11754, -8345, -6332, 3662, 2265, -2473, 4468, 2438, -1775, 122, 232, 155, 74, 457, 93, 41, 53
114546778, 4532, 11754, -8345, -6332, 3662, 2265, -2473, 4468, 2438, -1775, 122, 232, 155, 74, 457, 93, 41, 53
114547592, 4532, 11754, -8345, -6332, 3662, 2265, -2473, 4468, 2438, -1775, 122, 232, 155, 74, 457, 93, 41, 53
114552699, 4532, 11754, -8345, -6332, 3662, 2265, -2473, 4468, 2438, -1775, 122, 232, 155, 74, 457, 93, 41, 53
114553623, 4046, 12313, -8221, -5734, 3187, 2647, -2492, 4257, 2421, -2219, 122, 232, 155, 74, 457, 93, 41, 53
114554431, 4046, 12313, -8221, -5734, 3187, 2647, -2492, 4257, 2421, -2219, 120, 262, 158, 69, 440, 92, 41, 53
114555264, 4046, 12313, -8221, -5734, 3187, 2647, -2492, 4257, 2421, -2219, 120, 262, 158, 69, 440, 92, 41, 53
114560278, 4046, 12313, -8221, -5734, 3187, 2647, -2492, 4257, 2421, -2219, 120, 262, 158, 69, 440, 92, 41, 53
114561077, 4046, 12313, -8221, -5734, 3187, 2647, -2492, 4257, 2421, -2219, 120, 262, 158, 69, 440, 92, 41, 53
114561871, 4046, 12313, -8221, -5734, 3187, 2647, -2492, 4257, 2421, -2219, 120, 262, 158, 69, 440, 92, 41, 53
114562709, 4046, 12313, -8221, -5734, 3187, 2647, -2492, 4257, 2421, -2219, 120, 262, 158, 69, 440, 92, 41, 53
114567674, 4046, 12313, -8221, -5734, 3187, 2647, -2492, 4257, 2421, -2219, 120, 262, 158, 69, 440, 92, 41, 53
114568481, 4046, 12313, -8221, -5734, 3187, 2647, -2492, 4257, 2421, -2219, 120, 262, 158, 69, 440, 92, 41, 53
114569282, 4046, 12313, -8221, -5734, 3187, 2647, -2492, 4257, 2421, -2219, 120, 262, 158, 69, 440, 92, 41, 53
114570076, 4046, 12313, -8221, -5734, 3187, 2647, -2492, 4257, 2421, -2219, 120, 262, 158, 69, 440, 92, 41, 53
114575165, 4046, 12313, -8221, -5734, 3187, 2647, -2492, 4257, 2421, -2219, 120, 262, 158, 69, 440, 92, 41, 53
114576100, 3538, 12839, -7992, -5215, 2775, 2942, -2250, 3878, 2104, -2722, 120, 262, 158, 69, 440, 92, 41, 53
114576908, 3538, 12839, -7992, -5215, 2775, 2942, -2250, 3878, 2104, -2722, 116, 265, 156, 66, 418, 88, 43, 54
114577720, 3538, 12839, -7992, -5215, 2775, 2942, -2250, 3878, 2104, -2722, 116, 265, 156, 66, 418, 88, 43, 54
114582748, 3538, 12839, -7992, -5215, 2775, 2942, -2250, 3878, 2104, -2722, 116, 265, 156, 66, 418, 88, 43, 54
114583550, 3538, 12839, -7992, -5215, 2775, 2942, -2250, 3878, 2104, -2722, 116, 265, 156, 66, 418, 88, 43, 54
114584375, 3538, 12839, -7992, -5215, 2775, 2942, -2250, 3878, 2104, -2722, 116, 265, 156, 66, 418, 88, 43, 54
114585162, 3538, 12839, -7992, -5215, 2775, 2942, -2250, 3878, 2104, -2722, 116, 265, 156, 66, 418, 88, 43, 54
114590213, 3538, 12839, -7992, -5215, 2775, 2942, -2250, 3878, 2104, -2722, 116, 265, 156, 66, 418, 88, 43, 54
114590986, 3538, 12839, -7992, -5215, 2775, 2942, -2250, 3878, 2104, -2722, 116, 265, 156, 66, 418, 88, 43, 54
114591808, 3538, 12839, -7992, -5215, 2775, 2942, -2250, 3878, 2104, -2722, 116, 265, 156, 66, 418, 88, 43, 54
114592627, 3538, 12839, -7992, -5215, 2775, 2942, -2250, 3878, 2104, -2722, 116, 265, 156, 66, 418, 88, 43, 54
114597708, 3538, 12839, -7992, -5215, 2775, 2942, -2250, 3878, 2104, -2722, 116, 265, 156, 66, 418, 88, 43, 54
114598638, 2978, 13358, -7635, -4780, 2515, 3043, -2286, 3643, 1737, -3460, 116, 265, 156, 66, 418, 88, 43, 54
114599441, 2978, 13358, -7635, -4780, 2515, 3043, -2286, 3643, 1737, -3460, 98, 250, 134, 42, 274, 54, 44, 50
114600254, 2978, 13358, -7635, -4780, 2515, 3043, -2286, 3643, 1737, -3460, 98, 250, 134, 42, 274, 54, 44, 50
114605294, 2978, 13358, -7635, -4780, 2515, 3043, -2286, 3643, 1737, -3460, 98, 250, 134, 42, 274, 54, 44, 50
114606084, 2978, 13358, -7635, -4780, 2515, 3043, -2286, 3643, 1737, -3460, 98, 250, 134, 42, 274, 54, 44, 50
114606888, 2978, 13358, -7635, -4780, 2515, 3043, -2286, 3643, 1737, -3460, 98, 250, 134, 42, 274, 54, 44, 50
114607707, 2978, 13358, -7635, -4780, 2515, 3043, -2286, 3643, 1737, -3460, 98, 250, 134, 42, 274, 54, 44, 50
114612671, 2978, 13358, -7635, -4780, 2515, 3043, -2286, 3643, 1737, -3460, 98, 250, 134, 42, 274, 54, 44, 50
114613475, 2978, 13358, -7635, -4780, 2515, 3043, -2286, 3643, 1737, -3460, 98, 250, 134, 42, 274, 54, 44, 50
114614290, 2978, 13358, -7635, -4780, 2515, 3043, -2286, 3643, 1737, -3460, 98, 250, 134, 42, 274, 54, 44, 50
114615099, 2978, 13358, -7635, -4780, 2515, 3043, -2286, 3643, 1737, -3460, 98, 250, 134, 42, 274, 54, 44, 50
114620200, 2978, 13358, -7635, -4780, 2515, 3043, -2286, 3643, 1737, -3460, 98, 250, 134, 42, 274, 54, 44, 50
114621104, 2361, 13856, -7166, -4419, 2563, 2737, -2712, 3500, 1334, -4085, 98, 250, 134, 42, 274, 54, 44, 50
114621922, 2361, 13856, -7166, -4419, 2563, 2737, -2712, 3500, 1334, -4085, 97, 247, 116, 38, 155, 48, 52, 179
114622726, 2361, 13856, -7166, -4419, 2563, 2737, -2712, 3500, 1334, -4085, 97, 247, 116, 38, 155, 48, 52, 179
114627786, 2361, 13856, -7166, -4419, 2563, 2737, -2712, 3500, 1334, -4085, 97, 247, 116, 38, 155, 48, 52, 179
114628543, 2361, 13856, -7166, -4419, 2563, 2737, -2712, 3500, 1334, -4085, 97, 247, 116, 38, 155, 48, 52, 179
114629393, 2361, 13856, -7166, -4419, 2563, 2737, -2712, 3500, 1334, -4085, 97, 247, 116, 38, 155, 48, 52, 179
114630196, 2361, 13856, -7166, -4419, 2563, 2737, -2712, 3500, 1334, -4085, 97, 247, 116, 38, 155, 48, 52, 179
114635174, 2361, 13856, -7166, -4419, 2563, 2737, -2712, 3500, 1334, -4085, 97, 247, 116, 38, 155, 48, 52, 179
114635951, 2361, 13856, -7166, -4419, 2563, 2737, -2712, 3500, 1334, -4085, 97, 247, 116, 38, 155, 48, 52, 179
114636761, 2361, 13856, -7166, -4419, 2563, 2737, -2712, 3500, 1334, -4085, 97, 247, 116, 38, 155, 48, 52, 179
114637601, 2361, 13856, -7166, -4419, 2563, 2737, -2712, 3500, 1334, -4085, 97, 247, 116, 38, 155, 48, 52, 179
114642678, 2361, 13856, -7166, -4419, 2563, 2737, -2712, 3500, 1334, -4085, 97, 247, 116, 38, 155, 48, 52, 179
114643558, 1690, 14294, -6633, -4155, 2974, 2186, -3095, 3377, 698, -4402, 97, 247, 116, 38, 155, 48, 52, 179
114644395, 1690, 14294, -6633, -4155, 2974, 2186, -3095, 3377, 698, -4402, 102, 195, 87, 32, 116, 49, 61, 230
114645223, 1690, 14294, -6633, -4155, 2974, 2186, -3095, 3377, 698, -4402, 102, 195, 87, 32, 116, 49, 61, 230
114650242, 1690, 14294, -6633, -4155, 2974, 2186, -3095, 3377, 698, -4402, 102, 195, 87, 32, 116, 49, 61, 230
114651037, 1690, 14294, -6633, -4155, 2974, 2186, -3095, 3377, 698, -4402, 102, 195, 87, 32, 116, 49, 61, 230
114651853, 1690, 14294, -6633, -4155, 2974, 2186, -3095, 3377, 698, -4402, 102, 195, 87, 32, 116, 49, 61, 230
114652675, 1690, 14294, -6633, -4155, 2974, 2186, -3095, 3377, 698, -4402, 102, 195, 87, 32, 116, 49, 61, 230
114657683, 1690, 14294, -6633, -4155, 2974, 2186, -3095, 3377, 698, -4402, 102, 195, 87, 32, 116, 49, 61, 230
114658476, 1690, 14294, -6633, -4155, 2974, 2186, -3095, 3377, 698, -4402, 102, 195, 87, 32, 116, 49, 61, 230
114659282, 1690, 14294, -6633, -4155, 2974, 2186, -3095, 3377, 698, -4402, 102, 195, 87, 32, 116, 49, 61, 230
114660131, 1690, 14294, -6633, -4155, 2974, 2186, -3095, 3377, 698, -4402, 102, 195, 87, 32, 116, 49, 61, 230
114665194, 1690, 14294, -6633, -4155, 2974, 2186, -3095, 3377, 698, -4402, 102, 195, 87, 32, 116, 49, 61, 230
114666127, 891, 14616, -6118, -4071, 4013, 2280, -2560, 3557, -649, -4335, 102, 195, 87, 32, 116, 49, 61, 230
114666947, 891, 14616, -6118, -4071, 4013, 2280, -2560, 3557, -649, -4335, 95, 150, 74, 33, 100, 59, 80, 256
114667776, 891, 14616, -6118, -4071, 4013, 2280, -2560, 3557, -649, -4335, 95, 150, 74, 33, 100, 59, 80, 256
114672788, 891, 14616, -6118, -4071, 4013, 2280, -2560, 3557, -649, -4335, 95, 150, 74, 33, 100, 59, 80, 256
114673591, 891, 14616, -6118, -4071, 4013, 2280, -2560, 3557, -649, -4335, 95, 150, 74, 33, 100, 59, 80, 256
114674390, 891, 14616, -6118, -4071, 4013, 2280, -2560, 3557, -649, -4335, 95, 150, 74, 33, 100, 59, 80, 256
114675189, 891, 14616, -6118, -4071, 4013, 2280, -2560, 3557, -649, -4335, 95, 150, 74, 33, 100, 59, 80, 256
114680187, 891, 14616, -6118, -4071, 4013, 2280, -2560, 3557, -649, -4335, 95, 150, 74, 33, 100, 59, 80, 256
114680973, 891, 14616, -6118, -4071, 4013, 2280, -2560, 3557, -649, -4335, 95, 150, 74, 33, 100, 59, 80, 256
114681782, 891, 14616, -6118, -4071, 4013, 2280, -2560, 3557, -649, -4335, 95, 150, 74, 33, 100, 59, 80, 256
114682600, 891, 14616, -6118, -4071, 4013, 2280, -2560, 3557, -649, -4335, 95, 150, 74, 33, 100, 59, 80, 256
114687687, 891, 14616, -6118, -4071, 4013, 2280, -2560, 3557, -649, -4335, 95, 150, 74, 33, 100, 59, 80, 256
114688602, -52, 14735, -5746, -4278, 5695, 2282, -2571, 3799, -2729, -3490, 95, 150, 74, 33, 100, 59, 80, 256
114689443, -52, 14735, -5746, -4278, 5695, 2282, -2571, 3799, -2729, -3490, 109, 143, 77, 33, 96, 81, 306, 269
114690244, -52, 14735, -5746, -4278, 5695, 2282, -2571, 3799, -2729, -3490, 109, 143, 77, 33, 96, 81, 306, 269
114695266, -52, 14735, -5746, -4278, 5695, 2282, -2571, 3799, -2729, -3490, 109, 143, 77, 33, 96, 81, 306, 269
114696054, -52, 14735, -5746, -4278, 5695, 2282, -2571, 3799, -2729, -3490, 109, 143, 77, 33, 96, 81, 306, 269
114696870, -52, 14735, -5746, -4278, 5695, 2282, -2571, 3799, -2729, -3490, 109, 143, 77, 33, 96, 81, 306, 269
114697693, -52, 14735, -5746, -4278, 5695, 2282, -2571, 3799, -2729, -3490, 109, 143, 77, 33, 96, 81, 306, 269
114702663, -52, 14735, -5746, -4278, 5695, 2282, -2571, 3799, -2729, -3490, 109, 143, 77, 33, 96, 81, 306, 269
114703476, -52, 14735, -5746, -4278, 5695, 2282, -2571, 3799, -2729, -3490, 109, 143, 77, 33, 96, 81, 306, 269
114704261, -52, 14735, -5746, -4278, 5695, 2282, -2571, 3799, -2729, -3490, 109, 143, 77, 33, 96, 81, 306, 269
114705074, -52, 14735, -5746, -4278, 5695, 2282, -2571, 3799, -2729, -3490, 109, 143, 77, 33, 96, 81, 306, 269
114710247, -52, 14735, -5746, -4278, 5695, 2282, -2571, 3799, -2729, -3490, 109, 143, 77, 33, 96, 81, 306, 269
114711149, -733, 14708, -5323, -4820, 6016, 2319, -2500, 1748, -4118, -3065, 109, 143, 77, 33, 96, 81, 306, 269
114711934, -733, 14708, -5323, -4820, 6016, 2319, -2500, 1748, -4118, -3065, 107, 137, 73, 35, 85, 88, 390, 327
114712773, -733, 14708, -5323, -4820, 6016, 2319, -2500, 1748, -4118, -3065, 107, 137, 73, 35, 85, 88, 390, 327
114717788, -733, 14708, -5323, -4820, 6016, 2319, -2500, 1748, -4118, -3065, 107, 137, 73, 35, 85, 88, 390, 327
114718594, -733, 14708, -5323, -4820, 6016, 2319, -2500, 1748, -4118, -3065, 107, 137, 73, 35, 85, 88, 390, 327
114719411, -733, 14708, -5323, -4820, 6016, 2319, -2500, 1748, -4118, -3065, 107, 137, 73, 35, 85, 88, 390, 327
114720217, -733, 14708, -5323, -4820, 6016, 2319, -2500, 1748, -4118, -3065, 107, 137, 73, 35, 85, 88, 390, 327
114725201, -733, 14708, -5323, -4820, 6016, 2319, -2500, 1748, -4118, -3065, 107, 137, 73, 35, 85, 88, 390, 327
114725985, -733, 14708, -5323, -4820, 6016, 2319, -2500, 1748, -4118, -3065, 107, 137, 73, 35, 85, 88, 390, 327
114726769, -733, 14708, -5323, -4820, 6016, 2319, -2500, 1748, -4118, -3065, 107, 137, 73, 35, 85, 88, 390, 327
114727576, -733, 14708, -5323, -4820, 6016, 2319, -2500, 1748, -4118, -3065, 107, 137, 73, 35, 85, 88, 390, 327
114732690, -733, 14708, -5323, -4820, 6016, 2319, -2500, 1748, -4118, -3065, 107, 137, 73, 35, 85, 88, 390, 327
114733617, -1016, 14548, -4819, -5703, 6114, 1663, -3042, -977, -5351, -2492, 107, 137, 73, 35, 85, 88, 390, 327
114734416, -1016, 14548, -4819, -5703, 6114, 1663, -3042, -977, -5351, -2492, 103, 137, 76, 38, 70, 99, 406, 320
114735265, -1016, 14548, -4819, -5703, 6114, 1663, -3042, -977, -5351, -2492, 103, 137, 76, 38, 70, 99, 406, 320
114740283, -1016, 14548, -4819, -5703, 6114, 1663, -3042, -977, -5351, -2492, 103, 137, 76, 38, 70, 99, 406, 320
114741083, -1016, 14548, -4819, -5703, 6114, 1663, -3042, -977, -5351, -2492, 103, 137, 76, 38, 70, 99, 406, 320
114741884, -1016, 14548, -4819, -5703, 6114, 1663, -3042, -977, -5351, -2492, 103, 137, 76, 38, 70, 99, 406, 320
114742707, -1016, 14548, -4819, -5703, 6114, 1663, -3042, -977, -5351, -2492, 103, 137, 76, 38, 70, 99, 406, 320
114747681, -1016, 14548, -4819, -5703, 6114, 1663, -3042, -977, -5351, -2492, 103, 137, 76, 38, 70, 99, 406, 320
114748479, -1016, 14548, -4819, -5703, 6114, 1663, -3042, -977, -5351, -2492, 103, 137, 76, 38, 70, 99, 406, 320
114749292, -1016, 14548, -4819, -5703, 6114, 1663, -3042, -977, -5351, -2492, 103, 137, 76, 38, 70, 99, 406, 320
114750084, -1016, 14548, -4819, -5703, 6114, 1663, -3042, -977, -5351, -2492, 103, 137, 76, 38, 70, 99, 406, 320
114755184, -1016, 14548, -4819, -5703, 6114, 1663, -3042, -977, -5351, -2492, 103, 137, 76, 38, 70, 99, 406, 320
114756113, -1097, 14223, -4150, -6908, 5924, 135, -3929, -2782, -7016, -2538, 103, 137, 76, 38, 70, 99, 406, 320
114756914, -1097, 14223, -4150, -6908, 5924, 135, -3929, -2782, -7016, -2538, 113, 144, 78, 41, 68, 156, 426, 321
114757733, -1097, 14223, -4150, -6908, 5924, 135, -3929, -2782, -7016, -2538, 113, 144, 78, 41, 68, 156, 426, 321
114762767, -1097, 14223, -4150, -6908, 5924, 135, -3929, -2782, -7016, -2538, 113, 144, 78, 41, 68, 156, 426, 321
114763558, -1097, 14223, -4150, -6908, 5924, 135, -3929, -2782, -7016, -2538, 113, 144, 78, 41, 68, 156, 426, 321
114764387, -1097, 14223, -4150, -6908, 5924, 135, -3929, -2782, -7016, -2538, 113, 144, 78, 41, 68, 156, 426, 321
114765180, -1097, 14223, -4150, -6908, 5924, 135, -3929, -2782, -7016, -2538, 113, 144, 78, 41, 68, 156, 426, 321
114770163, -1097, 14223, -4150, -6908, 5924, 135, -3929, -2782, -7016, -2538, 113, 144, 78, 41, 68, 156, 426, 321
114770950, -1097, 14223, -4150, -6908, 5924, 135, -3929, -2782, -7016, -2538, 113, 144, 78, 41, 68, 156, 426, 321
114771772, -1097, 14223, -4150, -6908, 5924, 135, -3929, -2782, -7016, -2538, 113, 144, 78, 41, 68, 156, 426, 321
114772583, -1097, 14223, -4150, -6908, 5924, 135, -3929, -2782, -7016, -2538, 113, 144, 78, 41, 68, 156, 426, 321
114777727, -1097, 14223, -4150, -6908, 5924, 135, -3929, -2782, -7016, -2538, 113, 144, 78, 41, 68, 156, 426, 321
114778643, -1139, 13660, -3295, -8348, 5094, 21, -3833, -3662, -8753, -2935, 113, 144, 78, 41, 68, 156, 426, 321
114779457, -1139, 13660, -3295, -8348, 5094, 21, -3833, -3662, -8753, -2935, 118, 130, 67, 41, 70, 516, 437, 342
114780252, -1139, 13660, -3295, -8348, 5094, 21, -3833, -3662, -8753, -2935, 118, 130, 67, 41, 70, 516, 437, 342
114785291, -1139, 13660, -3295, -8348, 5094, 21, -3833, -3662, -8753, -2935, 118, 130, 67, 41, 70, 516, 437, 342
114786087, -1139, 13660, -3295, -8348, 5094, 21, -3833, -3662, -8753, -2935, 118, 130, 67, 41, 70, 516, 437, 342
114786882, -1139, 13660, -3295, -8348, 5094, 21, -3833, -3662, -8753, -2935, 118, 130, 67, 41, 70, 516, 437, 342
114787699, -1139, 13660, -3295, -8348, 5094, 21, -3833, -3662, -8753, -2935, 118, 130, 67, 41, 70, 516, 437, 342
114792682, -1139, 13660, -3295, -8348, 5094, 21, -3833, -3662, -8753, -2935, 118, 130, 67, 41, 70, 516, 437, 342
114793495, -1139, 13660, -3295, -8348, 5094, 21, -3833, -3662, -8753, -2935, 118, 130, 67, 41, 70, 516, 437, 342
114794301, -1139, 13660, -3295, -8348, 5094, 21, -3833, -3662, -8753, -2935, 118, 130, 67, 41, 70, 516, 437, 342
114795144, -1139, 13660, -3295, -8348, 5094, 21, -3833, -3662, -8753, -2935, 118, 130, 67, 41, 70, 516, 437, 342
114800217, -1139, 13660, -3295, -8348, 5094, 21, -3833, -3662, -8753, -2935, 118, 130, 67, 41, 70, 516, 437, 342
114801114, -1464, 12780, -2571, -9816, 4188, 209, -4365, -1870, -10068, -2762, 118, 130, 67, 41, 70, 516, 437, 342
114801925, -1464, 12780, -2571, -9816, 4188, 209, -4365, -1870, -10068, -2762, 117, 117, 60, 41, 92, 774, 330, 353
114802735, -1464, 12780, -2571, -9816, 4188, 209, -4365, -1870, -10068, -2762, 117, 117, 60, 41, 92, 774, 330, 353
114807767, -1464, 12780, -2571, -9816, 4188, 209, -4365, -1870, -10068, -2762, 117, 117, 60, 41, 92, 774, 330, 353
114808565, -1464, 12780, -2571, -9816, 4188, 209, -4365, -1870, -10068, -2762, 117, 117, 60, 41, 92, 774, 330, 353
114809392, -1464, 12780, -2571, -9816, 4188, 209, -4365, -1870, -10068, -2762, 117, 117, 60, 41, 92, 774, 330, 353
114810202, -1464, 12780, -2571, -9816, 4188, 209, -4365, -1870, -10068, -2762, 117, 117, 60, 41, 92, 774, 330, 353
114815160, -1464, 12780, -2571, -9816, 4188, 209, -4365, -1870, -10068, -2762, 117, 117, 60, 41, 92, 774, 330, 353
114815950, -1464, 12780, -2571, -9816, 4188, 209, -4365, -1870, -10068, -2762, 117, 117, 60, 41, 92, 774, 330, 353
114816763, -1464, 12780, -2571, -9816, 4188, 209, -4365, -1870, -10068, -2762, 117, 117, 60, 41, 92, 774, 330, 353
114817576, -1464, 12780, -2571, -9816, 4188, 209, -4365, -1870, -10068, -2762, 117, 117, 60, 41, 92, 774, 330, 353
114822679, -1464, 12780, -2571, -9816, 4188, 209, -4365, -1870, -10068, -2762, 117, 117, 60, 41, 92, 774, 330, 353
114823591, -1977, 11550, -2198, -11238, 3226, 804, -4477, 359, -11054, -1569, 117, 117, 60, 41, 92, 774, 330, 353
114824399, -1977, 11550, -2198, -11238, 3226, 804, -4477, 359, -11054, -1569, 117, 109, 55, 64, 136, 855, 230, 352
114825192, -1977, 11550, -2198, -11238, 3226, 804, -4477, 359, -11054, -1569, 117, 109, 55, 64, 136, 855, 230, 352
114830237, -1977, 11550, -2198, -11238, 3226, 804, -4477, 359, -11054, -1569, 117, 109, 55, 64, 136, 855, 230, 352
114831055, -1977, 11550, -2198, -11238, 3226, 804, -4477, 359, -11054, -1569, 117, 109, 55, 64, 136, 855, 230, 352
114831835, -1977, 11550, -2198, -11238, 3226, 804, -4477, 359, -11054, -1569, 117, 109, 55, 64, 136, 855, 230, 352
114832689, -1977, 11550, -2198, -11238, 3226, 804, -4477, 359, -11054, -1569, 117, 109, 55, 64, 136, 855, 230, 352
114837706, -1977, 11550, -2198, -11238, 3226, 804, -4477, 359, -11054, -1569, 117, 109, 55, 64, 136, 855, 230, 352
114838502, -1977, 11550, -2198, -11238, 3226, 804, -4477, 359, -11054, -1569, 117, 109, 55, 64, 136, 855, 230, 352
114839315, -1977, 11550, -2198, -11238, 3226, 804, -4477, 359, -11054, -1569, 117, 109, 55, 64, 136, 855, 230, 352
114840128, -1977, 11550, -2198, -11238, 3226, 804, -4477, 359, -11054, -1569, 117, 109, 55, 64, 136, 855, 230, 352
114845206, -1977, 11550, -2198, -11238, 3226, 804, -4477, 359, -11054, -1569, 117, 109, 55, 64, 136, 855, 230, 352
114846150, -2315, 10018, -2299, -12547, 2771, 1431, -4854, 1788, -11311, 1144, 117, 109, 55, 64, 136, 855, 230, 352
114846937, -2315, 10018, -2299, -12547, 2771, 1431, -4854, 1788, -11311, 1144, 124, 115, 67, 132, 224, 906, 207, 370
114847786, -2315, 10018, -2299, -12547, 2771, 1431, -4854, 1788, -11311, 1144, 124, 115, 67, 132, 224, 906, 207, 370
114852784, -2315, 10018, -2299, -12547, 2771, 1431, -4854, 1788, -11311, 1144, 124, 115, 67, 132, 224, 906, 207, 370
114853573, -2315, 10018, -2299, -12547, 2771, 1431, -4854, 1788, -11311, 1144, 124, 115, 67, 132, 224, 906, 207, 370
114854387, -2315, 10018, -2299, -12547, 2771, 1431, -4854, 1788, -11311, 1144, 124, 115, 67, 132, 224, 906, 207, 370
114855186, -2315, 10018, -2299, -12547, 2771, 1431, -4854, 1788, -11311, 1144, 124, 115, 67, 132, 224, 906, 207, 370
114860181, -2315, 10018, -2299, -12547, 2771, 1431, -4854, 1788, -11311, 1144, 124, 115, 67, 132, 224, 906, 207, 370
114860981, -2315, 10018, -2299, -12547, 2771, 1431, -4854, 1788, -11311, 1144, 124, 115, 67, 132, 224, 906, 207, 370
114861764, -2315, 10018, -2299, -12547, 2771, 1431, -4854, 1788, -11311, 1144, 124, 115, 67, 132, 224, 906, 207, 370
114862584, -2315, 10018, -2299, -12547, 2771, 1431, -4854, 1788, -11311, 1144, 124, 115, 67, 132, 224, 906, 207, 370
114867685, -2315, 10018, -2299, -12547, 2771, 1431, -4854, 1788, -11311, 1144, 124, 115, 67, 132, 224, 906, 207, 370
114868633, -2170, 8309, -2552, -13718, 3622, 2257, -4742, 1024, -11109, 3785, 124, 115, 67, 132, 224, 906, 207, 370
114869435, -2170, 8309, -2552, -13718, 3622, 2257, -4742, 1024, -11109, 3785, 107, 105, 69, 149, 266, 947, 165, 352
114870244, -2170, 8309, -2552, -13718, 3622, 2257, -4742, 1024, -11109, 3785, 107, 105, 69, 149, 266, 947, 165, 352
114875251, -2170, 8309, -2552, -13718, 3622, 2257, -4742, 1024, -11109, 3785, 107, 105, 69, 149, 266, 947, 165, 352
114876042, -2170, 8309, -2552, -13718, 3622, 2257, -4742, 1024, -11109, 3785, 107, 105, 69, 149, 266, 947, 165, 352
114876863, -2170, 8309, -2552, -13718, 3622, 2257, -4742, 1024, -11109, 3785, 107, 105, 69, 149, 266, 947, 165, 352
114877696, -2170, 8309, -2552, -13718, 3622, 2257, -4742, 1024, -11109, 3785, 107, 105, 69, 149, 266, 947, 165, 352
114882662, -2170, 8309, -2552, -13718, 3622, 2257, -4742, 1024, -11109, 3785, 107, 105, 69, 149, 266, 947, 165, 352
114883439, -2170, 8309, -2552, -13718, 3622, 2257, -4742, 1024, -11109, 3785, 107, 105, 69, 149, 266, 947, 165, 352
114884232, -2170, 8309, -2552, -13718, 3622, 2257, -4742, 1024, -11109, 3785, 107, 105, 69, 149, 266, 947, 165, 352
114885063, -2170, 8309, -2552, -13718, 3622, 2257, -4742, 1024, -11109, 3785, 107, 105, 69, 149, 266, 947, 165, 352
114890157, -2170, 8309, -2552, -13718, 3622, 2257, -4742, 1024, -11109, 3785, 107, 105, 69, 149, 266, 947, 165, 352
114891084, -1719, 6412, -2579, -14756, 3786, 2994, -2581, -659, -11522, 4653, 107, 105, 69, 149, 266, 947, 165, 352
114891900, -1719, 6412, -2579, -14756, 3786, 2994, -2581, -659, -11522, 4653, 112, 117, 85, 163, 282, 818, 137, 358
114892708, -1719, 6412, -2579, -14756, 3786, 2994, -2581, -659, -11522, 4653, 112, 117, 85, 163, 282, 818, 137, 358
114897799, -1719, 6412, -2579, -14756, 3786, 2994, -2581, -659, -11522, 4653, 112, 117, 85, 163, 282, 818, 137, 358
114898564, -1719, 6412, -2579, -14756, 3786, 2994, -2581, -659, -11522, 4653, 112, 117, 85, 163, 282, 818, 137, 358
114899397, -1719, 6412, -2579, -14756, 3786, 2994, -2581, -659, -11522, 4653, 112, 117, 85, 163, 282, 818, 137, 358
114900267, -1719, 6412, -2579, -14756, 3786, 2994, -2581, -659, -11522, 4653, 112, 117, 85, 163, 282, 818, 137, 358
114905210, -1719, 6412, -2579, -14756, 3786, 2994, -2581, -659, -11522, 4653, 112, 117, 85, 163, 282, 818, 137, 358
114905985, -1719, 6412, -2579, -14756, 3786, 2994, -2581, -659, -11522, 4653, 112, 117, 85, 163, 282, 818, 137, 358
114906795, -1719, 6412, -2579, -14756, 3786, 2994, -2581, -659, -11522, 4653, 112, 117, 85, 163, 282, 818, 137, 358
114907609, -1719, 6412, -2579, -14756, 3786, 2994, -2581, -659, -11522, 4653, 112, 117, 85, 163, 282, 818, 137, 358
114912714, -1719, 6412, -2579, -14756, 3786, 2994, -2581, -659, -11522, 4653, 112, 117, 85, 163, 282, 818, 137, 358
114913623, -1332, 4536, -2233, -15528, 6191, 3783, -1410, -2187, -11098, 3322, 112, 117, 85, 163, 282, 818, 137, 358
114914401, -1332, 4536, -2233, -15528, 6191, 3783, -1410, -2187, -11098, 3322, 108, 150, 99, 214, 312, 595, 134, 413
114915239, -1332, 4536, -2233, -15528, 6191, 3783, -1410, -2187, -11098, 3322, 108, 150, 99, 214, 312, 595, 134, 413
114920291, -1332, 4536, -2233, -15528, 6191, 3783, -1410, -2187, -11098, 3322, 108, 150, 99, 214, 312, 595, 134, 413
114921100, -1332, 4536, -2233, -15528, 6191, 3783, -1410, -2187, -11098, 3322, 108, 150, 99, 214, 312, 595, 134, 413
114921880, -1332, 4536, -2233, -15528, 6191, 3783, -1410, -2187, -11098, 3322, 108, 150, 99, 214, 312, 595, 134, 413
114922703, -1332, 4536, -2233, -15528, 6191, 3783, -1410, -2187, -11098, 3322, 108, 150, 99, 214, 312, 595, 134, 413
114927677, -1332, 4536, -2233, -15528, 6191, 3783, -1410, -2187, -11098, 3322, 108, 150, 99, 214, 312, 595, 134, 413
114928591, -1332, 4536, -2233, -15528, 6191, 3783, -1410, -2187, -11098, 3322, 108, 150, 99, 214, 312, 595, 134, 413
114929275, -1332, 4536, -2233, -15528, 6191, 3783, -1410, -2187, -11098, 3322, 108, 150, 99, 214, 312, 595, 134, 413
114930065, -1332, 4536, -2233, -15528, 6191, 3783, -1410, -2187, -11098, 3322, 108, 150, 99, 214, 312, 595, 134, 413
114935175, -1332, 4536, -2233, -15528, 6191, 3783, -1410, -2187, -11098, 3322, 108, 150, 99, 214, 312, 595, 134, 413
114936110, -1162, 3112, -1570, -15967, 6199, 2376, -861, -3482, -8445, 1167, 108, 150, 99, 214, 312, 595, 134, 413
114936921, -1162, 3112, -1570, -15967, 6199, 2376, -861, -3482, -8445, 1167, 109, 157, 102, 248, 300, 472, 138, 406
114937717, -1162, 3112, -1570, -15967, 6199, 2376, -861, -3482, -8445, 1167, 109, 157, 102, 248, 300, 472, 138, 406
114942754, -1162, 3112, -1570, -15967, 6199, 2376, -861, -3482, -8445, 1167, 109, 157, 102, 248, 300, 472, 138, 406
114943599, -1162, 3112, -1570, -15967, 6199, 2376, -861, -3482, -8445, 1167, 109, 157, 102, 248, 300, 472, 138, 406
114944387, -1162, 3112, -1570, -15967, 6199, 2376, -861, -3482, -8445, 1167, 109, 157, 102, 248, 300, 472, 138, 406
114945175, -1162, 3112, -1570, -15967, 6199, 2376, -861, -3482, -8445, 1167, 109, 157, 102, 248, 300, 472, 138, 406
114950142, -1162, 3112, -1570, -15967, 6199, 2376, -861, -3482, -8445, 1167, 109, 157, 102, 248, 300, 472, 138, 406
114950950, -1162, 3112, -1570, -15967, 6199, 2376, -861, -3482, -8445, 1167, 109, 157, 102, 248, 300, 472, 138, 406
114951769, -1162, 3112, -1570, -15967, 6199, 2376, -861, -3482, -8445, 1167, 109, 157, 102, 248, 300, 472, 138, 406
114952585, -1162, 3112, -1570, -15967, 6199, 2376, -861, -3482, -8445, 1167, 109, 157, 102, 248, 300, 472, 138, 406
114957714, -1162, 3112, -1570, -15967, 6199, 2376, -861, -3482, -8445, 1167, 109, 157, 102, 248, 300, 472, 138, 406
114958640, -1047, 1959, -760, -16215, 6012, 1380, -863, -4234, -6842, 484, 109, 157, 102, 248, 300, 472, 138, 406
114959454, -1047, 1959, -760, -16215, 6012, 1380, -863, -4234, -6842, 484, 92, 148, 97, 232, 263, 368, 132, 368
114960263, -1047, 1959, -760, -16215, 6012, 1380, -863, -4234, -6842, 484, 92, 148, 97, 232, 263, 368, 132, 368
114965289, -1047, 1959, -760, -16215, 6012, 1380, -863, -4234, -6842, 484, 92, 148, 97, 232, 263, 368, 132, 368
114966088, -1047, 1959, -760, -16215, 6012, 1380, -863, -4234, -6842, 484, 92, 148, 97, 232, 263, 368, 132, 368
114966893, -1047, 1959, -760, -16215, 6012, 1380, -863, -4234, -6842, 484, 92, 148, 97, 232, 263, 368, 132, 368
114967719, -1047, 1959, -760, -16215, 6012, 1380, -863, -4234, -6842, 484, 92, 148, 97, 232, 263, 368, 132, 368
114971800, -1047, 1959, -760, -16215, 6012, 1380, -863, -4234, -6842, 484, 92, 148, 97, 232, 263, 368, 132, 368
114972571, -1047, 1959, -760, -16215, 6012, 1380, -863, -4234, -6842, 484, 92, 148, 97, 232, 263, 368, 132, 368
114973382, -1047, 1959, -760, -16215, 6012, 1380, -863, -4234, -6842, 484, 92, 148, 97, 232, 263, 368, 132, 368
114980210, -1047, 1959, -760, -16215, 6012, 1380, -863, -4234, -6842, 484, 92, 148, 97, 232, 263, 368, 132, 368
114980969, -1047, 1959, -760, -16215, 6012, 1380, -863, -4234, -6842, 484, 92, 148, 97, 232, 263, 368, 132, 368
114981929, -1057, 980, -97, -16321, 5072, 1153, -237, -3352, -5744, -207, 92, 148, 97, 232, 263, 368, 132, 368
114982727, -1057, 980, -97, -16321, 5072, 1153, -237, -3352, -5744, -207, 94, 145, 92, 225, 228, 219, 141, 368
114987771, -1057, 980, -97, -16321, 5072, 1153, -237, -3352, -5744, -207, 94, 145, 92, 225, 228, 219, 141, 368
114988560, -1057, 980, -97, -16321, 5072, 1153, -237, -3352, -5744, -207, 94, 145, 92, 225, 228, 219, 141, 368
114989397, -1057, 980, -97, -16321, 5072, 1153, -237, -3352, -5744, -207, 94, 145, 92, 225, 228, 219, 141, 368
114990168, -1057, 980, -97, -16321, 5072, 1153, -237, -3352, -5744, -207, 94, 145, 92, 225, 228, 219, 141, 368
114995156, -1057, 980, -97, -16321, 5072, 1153, -237, -3352, -5744, -207, 94, 145, 92, 225, 228, 219, 141, 368
114995958, -1057, 980, -97, -16321, 5072, 1153, -237, -3352, -5744, -207, 94, 145, 92, 225, 228, 219, 141, 368
114996771, -1057, 980, -97, -16321, 5072, 1153, -237, -3352, -5744, -207, 94, 145, 92, 225, 228, 219, 141, 368
114997584, -1057, 980, -97, -16321, 5072, 1153, -237, -3352, -5744, -207, 94, 145, 92, 225, 228, 219, 141, 368
115002681, -1057, 980, -97, -16321, 5072, 1153, -237, -3352, -5744, -207, 94, 145, 92, 225, 228, 219, 141, 368
115003583, -1211, 332, 213, -16335, 4065, 535, 380, -1445, -3736, -939, 94, 145, 92, 225, 228, 219, 141, 368
115004398, -1211, 332, 213, -16335, 4065, 535, 380, -1445, -3736, -939, 76, 135, 81, 217, 217, 182, 131, 328
115005214, -1211, 332, 213, -16335, 4065, 535, 380, -1445, -3736, -939, 76, 135, 81, 217, 217, 182, 131, 328
115010388, -1211, 332, 213, -16335, 4065, 535, 380, -1445, -3736, -939, 76, 135, 81, 217, 217, 182, 131, 328
115011033, -1211, 332, 213, -16335, 4065, 535, 380, -1445, -3736, -939, 76, 135, 81, 217, 217, 182, 131, 328
115011841, -1211, 332, 213, -16335, 4065, 535, 380, -1445, -3736, -939, 76, 135, 81, 217, 217, 182, 131, 328
115012667, -1211, 332, 213, -16335, 4065, 535, 380, -1445, -3736, -939, 76, 135, 81, 217, 217, 182, 131, 328
115017703, -1211, 332, 213, -16335, 4065, 535, 380, -1445, -3736, -939, 76, 135, 81, 217, 217, 182, 131, 328
115018480, -1211, 332, 213, -16335, 4065, 535, 380, -1445, -3736, -939, 76, 135, 81, 217, 217, 182, 131, 328
115019329, -1211, 332, 213, -16335, 4065, 535, 380, -1445, -3736, -939, 76, 135, 81, 217, 217, 182, 131, 328
115020144, -1211, 332, 213, -16335, 4065, 535, 380, -1445, -3736, -939, 76, 135, 81, 217, 217, 182, 131, 328
115025211, -1211, 332, 213, -16335, 4065, 535, 380, -1445, -3736, -939, 76, 135, 81, 217, 217, 182, 131, 328
115026137, -1341, 30, 142, -16329, 2770, 682, 1171, 535, -1647, -742, 76, 135, 81, 217, 217, 182, 131, 328
115026950, -1341, 30, 142, -16329, 2770, 682, 1171, 535, -1647, -742, 61, 108, 68, 167, 160, 106, 120, 235
115027767, -1341, 30, 142, -16329, 2770, 682, 1171, 535, -1647, -742, 61, 108, 68, 167, 160, 106, 120, 235
115032798, -1341, 30, 142, -16329, 2770, 682, 1171, 535, -1647, -742, 61, 108, 68, 167, 160, 106, 120, 235
115033589, -1341, 30, 142, -16329, 2770, 682, 1171, 535, -1647, -742, 61, 108, 68, 167, 160, 106, 120, 235
115034396, -1341, 30, 142, -16329, 2770, 682, 1171, 535, -1647, -742, 61, 108, 68, 167, 160, 106, 120, 235
115035215, -1341, 30, 142, -16329, 2770, 682, 1171, 535, -1647, -742, 61, 108, 68, 167, 160, 106, 120, 235
115040184, -1341, 30, 142, -16329, 2770, 682, 1171, 535, -1647, -742, 61, 108, 68, 167, 160, 106, 120, 235
115040986, -1341, 30, 142, -16329, 2770, 682, 1171, 535, -1647, -742, 61, 108, 68, 167, 160, 106, 120, 235
115041780, -1341, 30, 142, -16329, 2770, 682, 1171, 535, -1647, -742, 61, 108, 68, 167, 160, 106, 120, 235
115042615, -1341, 30, 142, -16329, 2770, 682, 1171, 535, -1647, -742, 61, 108, 68, 167, 160, 106, 120, 235
115047691, -1341, 30, 142, -16329, 2770, 682, 1171, 535, -1647, -742, 61, 108, 68, 167, 160, 106, 120, 235
115048620, -1333, -26, -181, -16329, 1789, 1369, 1891, 1649, 73, 43, 61, 108, 68, 167, 160, 106, 120, 235
115049440, -1333, -26, -181, -16329, 1789, 1369, 1891, 1649, 73, 43, 61, 103, 64, 100, 156, 103, 167, 183
115050214, -1333, -26, -181, -16329, 1789, 1369, 1891, 1649, 73, 43, 61, 103, 64, 100, 156, 103, 167, 183
115055258, -1333, -26, -181, -16329, 1789, 1369, 1891, 1649, 73, 43, 61, 103, 64, 100, 156, 103, 167, 183
115056054, -1333, -26, -181, -16329, 1789, 1369, 1891, 1649, 73, 43, 61, 103, 64, 100, 156, 103, 167, 183
115056868, -1333, -26, -181, -16329, 1789, 1369, 1891, 1649, 73, 43, 61, 103, 64, 100, 156, 103, 167, 183
115057673, -1333, -26, -181, -16329, 1789, 1369, 1891, 1649, 73, 43, 61, 103, 64, 100, 156, 103, 167, 183
115062671, -1333, -26, -181, -16329, 1789, 1369, 1891, 1649, 73, 43, 61, 103, 64, 100, 156, 103, 167, 183
115063450, -1333, -26, -181, -16329, 1789, 1369, 1891, 1649, 73, 43, 61, 103, 64, 100, 156, 103, 167, 183
115064267, -1333, -26, -181, -16329, 1789, 1369, 1891, 1649, 73, 43, 61, 103, 64, 100, 156, 103, 167, 183
115065080, -1333, -26, -181, -16329, 1789, 1369, 1891, 1649, 73, 43, 61, 103, 64, 100, 156, 103, 167, 183
115070174, -1333, -26, -181, -16329, 1789, 1369, 1891, 1649, 73, 43, 61, 103, 64, 100, 156, 103, 167, 183
115071086, -1313, 114, -601, -16320, 832, 2217, 1510, 1993, 1090, 87, 61, 103, 64, 100, 156, 103, 167, 183
115071896, -1313, 114, -601, -16320, 832, 2217, 1510, 1993, 1090, 87, 60, 107, 58, 69, 119, 85, 205, 170
115072704, -1313, 114, -601, -16320, 832, 2217, 1510, 1993, 1090, 87, 60, 107, 58, 69, 119, 85, 205, 170
115077751, -1313, 114, -601, -16320, 832, 2217, 1510, 1993, 1090, 87, 60, 107, 58, 69, 119, 85, 205, 170
115078532, -1313, 114, -601, -16320, 832, 2217, 1510, 1993, 1090, 87, 60, 107, 58, 69, 119, 85, 205, 170
115079573, -1313, 114, -601, -16320, 832, 2217, 1510, 1993, 1090, 87, 60, 107, 58, 69, 119, 85, 205, 170
115080259, -1313, 114, -601, -16320, 832, 2217, 1510, 1993, 1090, 87, 60, 107, 58, 69, 119, 85, 205, 170
115085187, -1313, 114, -601, -16320, 832, 2217, 1510, 1993, 1090, 87, 60, 107, 58, 69, 119, 85, 205, 170
115085988, -1313, 114, -601, -16320, 832, 2217, 1510, 1993, 1090, 87, 60, 107, 58, 69, 119, 85, 205, 170
115086797, -1313, 114, -601, -16320, 832, 2217, 1510, 1993, 1090, 87, 60, 107, 58, 69, 119, 85, 205, 170
115087609, -1313, 114, -601, -16320, 832, 2217, 1510, 1993, 1090, 87, 60, 107, 58, 69, 119, 85, 205, 170
115092712, -1313, 114, -601, -16320, 832, 2217, 1510, 1993, 1090, 87, 60, 107, 58, 69, 119, 85, 205, 170
115093608, -1323, 258, -1096, -16292, 628, 2886, 800, 1205, 1389, -163, 60, 107, 58, 69, 119, 85, 205, 170
115094410, -1323, 258, -1096, -16292, 628, 2886, 800, 1205, 1389, -163, 56, 149, 72, 58, 111, 68, 224, 155
115095231, -1323, 258, -1096, -16292, 628, 2886, 800, 1205, 1389, -163, 56, 149, 72, 58, 111, 68, 224, 155
115100282, -1323, 258, -1096, -16292, 628, 2886, 800, 1205, 1389, -163, 56, 149, 72, 58, 111, 68, 224, 155
115101044, -1323, 258, -1096, -16292, 628, 2886, 800, 1205, 1389, -163, 56, 149, 72, 58, 111, 68, 224, 155
115101875, -1323, 258, -1096, -16292, 628, 2886, 800, 1205, 1389, -163, 56, 149, 72, 58, 111, 68, 224, 155
115102721, -1323, 258, -1096, -16292, 628, 2886, 800, 1205, 1389, -163, 56, 149, 72, 58, 111, 68, 224, 155
115107670, -1323, 258, -1096, -16292, 628, 2886, 800, 1205, 1389, -163, 56, 149, 72, 58, 111, 68, 224, 155
115108451, -1323, 258, -1096, -16292, 628, 2886, 800, 1205, 1389, -163, 56, 149, 72, 58, 111, 68, 224, 155
115109246, -1323, 258, -1096, -16292, 628, 2886, 800, 1205, 1389, -163, 56, 149, 72, 58, 111, 68, 224, 155
115110071, -1323, 258, -1096, -16292, 628, 2886, 800, 1205, 1389, -163, 56, 149, 72, 58, 111, 68, 224, 155
115115207, -1323, 258, -1096, -16292, 628, 2886, 800, 1205, 1389, -163, 56, 149, 72, 58, 111, 68, 224, 155
115116114, -1365, 561, -1069, -16283, 1091, 3062, 219, -282, 1656, -354, 56, 149, 72, 58, 111, 68, 224, 155
115116900, -1365, 561, -1069, -16283, 1091, 3062, 219, -282, 1656, -354, 59, 213, 88, 52, 92, 59, 225, 145
115117716, -1365, 561, -1069, -16283, 1091, 3062, 219, -282, 1656, -354, 56, 149, 72, 58, 111, 68, 224, 155
115122771, -1365, 561, -1069, -16283, 1091, 3062, 219, -282, 1656, -354, 59, 213, 88, 52, 92, 59, 225, 145
115123570, -1365, 561, -1069, -16283, 1091, 3062, 219, -282, 1656, -354, 59, 213, 88, 52, 92, 59, 225, 145
115124397, -1365, 561, -1069, -16283, 1091, 3062, 219, -282, 1656, -354, 59, 213, 88, 52, 92, 59, 225, 145
115125175, -1365, 561, -1069, -16283, 1091, 3062, 219, -282, 1656, -354, 59, 213, 88, 52, 92, 59, 225, 145
115130147, -1365, 561, -1069, -16283, 1091, 3062, 219, -282, 1656, -354, 59, 213, 88, 52, 92, 59, 225, 145
115130952, -1365, 561, -1069, -16283, 1091, 3062, 219, -282, 1656, -354, 59, 213, 88, 52, 92, 59, 225, 145
115131759, -1365, 561, -1069, -16283, 1091, 3062, 219, -282, 1656, -354, 59, 213, 88, 52, 92, 59, 225, 145
115132561, -1365, 561, -1069, -16283, 1091, 3062, 219, -282, 1656, -354, 59, 213, 88, 52, 92, 59, 225, 145
