Timestamp, Orientation x, Orientation y, Orientation z, Orientation w, Acceleration x, Acceleration y, Acceleration z, Rotation x, Rotation y, Rotation z, EMG 0, EMG 1, EMG 2, EMG 3, EMG 4, EMG 5, EMG 6, EMG 7
670370767, -1967, 12203, 7443, 7761, 3857, 1115, -2185, 352, -10, 29, 0, 0, 0, 0, 0, 0, 0, 0
670371553, -2023, 12195, 7449, 7753, 3861, 1122, -2176, 300, -5, 90, 0, 0, 0, 0, 0, 0, 0, 0
670385102, -2079, 12191, 7446, 7747, 3866, 1108, -2210, 272, 12, 140, 0, 0, 0, 0, 0, 0, 0, 0
670400095, -2141, 12189, 7438, 7741, 3869, 1096, -2204, 282, 34, 190, 0, 0, 0, 0, 0, 0, 0, 0
670422610, -2210, 12187, 7428, 7735, 3871, 1090, -2200, 314, 55, 236, 0, 0, 0, 0, 0, 0, 0, 0
670438215, -2210, 12187, 7428, 7735, 3871, 1090, -2200, 314, 55, 236, 39, 56, 30, 42, 26, 32, 83, 109
670438994, -2210, 12187, 7428, 7735, 3871, 1090, -2200, 314, 55, 236, 39, 56, 30, 42, 26, 32, 83, 109
670445173, -2286, 12185, 7416, 7727, 3895, 1078, -2217, 344, 71, 271, 39, 56, 30, 42, 26, 32, 83, 109
670461411, -2286, 12185, 7416, 7727, 3895, 1078, -2217, 344, 71, 271, 34, 46, 25, 36, 26, 30, 69, 90
670462204, -2286, 12185, 7416, 7727, 3895, 1078, -2217, 344, 71, 271, 34, 46, 25, 36, 26, 30, 69, 90
670463159, -2362, 12182, 7407, 7718, 3894, 1089, -2237, 369, 88, 284, 34, 46, 25, 36, 26, 30, 69, 90
670475703, -2362, 12182, 7407, 7718, 3894, 1089, -2237, 369, 88, 284, 30, 41, 24, 34, 23, 28, 61, 74
670476471, -2362, 12182, 7407, 7718, 3894, 1089, -2237, 369, 88, 284, 30, 41, 24, 34, 23, 28, 61, 74
670482654, -2435, 12178, 7397, 7712, 3901, 1087, -2242, 355, 101, 285, 30, 41, 24, 34, 23, 28, 61, 74
670498179, -2435, 12178, 7397, 7712, 3901, 1087, -2242, 355, 101, 285, 28, 33, 24, 30, 22, 24, 45, 59
670498964, -2435, 12178, 7397, 7712, 3901, 1087, -2242, 355, 101, 285, 28, 33, 24, 30, 22, 24, 45, 59
670505156, -2504, 12171, 7389, 7707, 3916, 1073, -2263, 341, 119, 274, 28, 33, 24, 30, 22, 24, 45, 59
670521412, -2504, 12171, 7389, 7707, 3916, 1073, -2263, 341, 119, 274, 26, 31, 23, 26, 22, 23, 40, 48
670522167, -2504, 12171, 7389, 7707, 3916, 1073, -2263, 341, 119, 274, 26, 31, 23, 26, 22, 23, 40, 48
670523131, -2569, 12162, 7383, 7706, 3919, 1045, -2274, 317, 144, 250, 26, 31, 23, 26, 22, 23, 40, 48
670535706, -2569, 12162, 7383, 7706, 3919, 1045, -2274, 317, 144, 250, 23, 27, 23, 25, 22, 21, 37, 38
670536511, -2569, 12162, 7383, 7706, 3919, 1045, -2274, 317, 144, 250, 23, 27, 23, 25, 22, 21, 37, 38
670542677, -2630, 12151, 7378, 7708, 3914, 1018, -2289, 298, 162, 223, 23, 27, 23, 25, 22, 21, 37, 38
670558208, -2630, 12151, 7378, 7708, 3914, 1018, -2289, 298, 162, 223, 25, 25, 24, 26, 23, 21, 32, 32
670558976, -2630, 12151, 7378, 7708, 3914, 1018, -2289, 298, 162, 223, 25, 25, 24, 26, 23, 21, 32, 32
670565181, -2690, 12135, 7380, 7710, 3915, 1006, -2276, 314, 174, 189, 25, 25, 24, 26, 23, 21, 32, 32
670581408, -2690, 12135, 7380, 7710, 3915, 1006, -2276, 314, 174, 189, 24, 25, 22, 26, 25, 21, 35, 34
670582121, -2690, 12135, 7380, 7710, 3915, 1006, -2276, 314, 174, 189, 24, 25, 22, 26, 25, 21, 35, 34
670583082, -2747, 12116, 7390, 7712, 3916, 1012, -2287, 334, 177, 151, 24, 25, 22, 26, 25, 21, 35, 34
670603884, -2747, 12116, 7390, 7712, 3916, 1012, -2287, 334, 177, 151, 24, 25, 22, 25, 26, 22, 34, 32
670604666, -2747, 12116, 7390, 7712, 3916, 1012, -2287, 334, 177, 151, 24, 25, 22, 25, 26, 22, 34, 32
670605592, -2795, 12092, 7404, 7717, 3912, 1030, -2272, 314, 182, 110, 24, 25, 22, 25, 26, 22, 34, 32
670618191, -2795, 12092, 7404, 7717, 3912, 1030, -2272, 314, 182, 110, 26, 23, 22, 27, 22, 20, 40, 30
670618982, -2795, 12092, 7404, 7717, 3912, 1030, -2272, 314, 182, 110, 26, 23, 22, 27, 22, 20, 40, 30
670625154, -2836, 12065, 7424, 7727, 3908, 1046, -2250, 295, 183, 71, 26, 23, 22, 27, 22, 20, 40, 30
670641402, -2836, 12065, 7424, 7727, 3908, 1046, -2250, 295, 183, 71, 27, 23, 22, 26, 22, 23, 57, 31
670642127, -2836, 12065, 7424, 7727, 3908, 1046, -2250, 295, 183, 71, 27, 23, 22, 26, 22, 23, 57, 31
670643076, -2868, 12035, 7447, 7739, 3911, 1055, -2247, 266, 180, 30, 27, 23, 22, 26, 22, 23, 57, 31
670655684, -2868, 12035, 7447, 7739, 3911, 1055, -2247, 266, 180, 30, 25, 25, 19, 26, 21, 25, 59, 32
670656483, -2868, 12035, 7447, 7739, 3911, 1055, -2247, 266, 180, 30, 25, 25, 19, 26, 21, 25, 59, 32
670662620, -2892, 12003, 7474, 7753, 3914, 1065, -2240, 242, 174, -12, 25, 25, 19, 26, 21, 25, 59, 32
670678180, -2892, 12003, 7474, 7753, 3914, 1065, -2240, 242, 174, -12, 27, 23, 21, 24, 23, 27, 81, 32
670678949, -2892, 12003, 7474, 7753, 3914, 1065, -2240, 242, 174, -12, 27, 23, 21, 24, 23, 27, 81, 32
670685130, -2908, 11970, 7506, 7767, 3894, 1067, -2231, 218, 161, -54, 27, 23, 21, 24, 23, 27, 81, 32
670701396, -2908, 11970, 7506, 7767, 3894, 1067, -2231, 218, 161, -54, 26, 23, 25, 23, 22, 28, 82, 32
670702183, -2908, 11970, 7506, 7767, 3894, 1067, -2231, 218, 161, -54, 26, 23, 25, 23, 22, 28, 82, 32
670703134, -2914, 11939, 7539, 7781, 3882, 1063, -2234, 175, 136, -91, 26, 23, 25, 23, 22, 28, 82, 32
670715637, -2914, 11939, 7539, 7781, 3882, 1063, -2234, 175, 136, -91, 24, 24, 24, 21, 24, 29, 86, 35
670716425, -2914, 11939, 7539, 7781, 3882, 1063, -2234, 175, 136, -91, 24, 24, 24, 21, 24, 29, 86, 35
670722593, -2910, 11910, 7573, 7794, 3889, 1066, -2264, 132, 114, -122, 24, 24, 24, 21, 24, 29, 86, 35
670738207, -2910, 11910, 7573, 7794, 3889, 1066, -2264, 132, 114, -122, 26, 24, 26, 22, 25, 27, 76, 33
670738976, -2910, 11910, 7573, 7794, 3889, 1066, -2264, 132, 114, -122, 26, 24, 26, 22, 25, 27, 76, 33
670745142, -2896, 11884, 7604, 7809, 3900, 1054, -2265, 61, 93, -142, 26, 24, 26, 22, 25, 27, 76, 33
670761402, -2896, 11884, 7604, 7809, 3900, 1054, -2265, 61, 93, -142, 25, 24, 26, 22, 25, 27, 77, 32
670762129, -2896, 11884, 7604, 7809, 3900, 1054, -2265, 61, 93, -142, 25, 24, 26, 22, 25, 27, 77, 32
670763071, -2881, 11860, 7632, 7823, 3915, 1034, -2263, 38, 83, -152, 25, 24, 26, 22, 25, 27, 77, 32
670775692, -2881, 11860, 7632, 7823, 3915, 1034, -2263, 38, 83, -152, 30, 25, 25, 22, 22, 26, 76, 30
670776474, -2881, 11860, 7632, 7823, 3915, 1034, -2263, 38, 83, -152, 30, 25, 25, 22, 22, 26, 76, 30
670782627, -2867, 11837, 7660, 7836, 3911, 1016, -2274, 34, 80, -160, 30, 25, 25, 22, 22, 26, 76, 30
670798172, -2867, 11837, 7660, 7836, 3911, 1016, -2274, 34, 80, -160, 30, 26, 21, 21, 24, 26, 87, 30
670798954, -2867, 11837, 7660, 7836, 3911, 1016, -2274, 34, 80, -160, 30, 26, 21, 21, 24, 26, 87, 30
670805123, -2855, 11816, 7689, 7844, 3923, 1016, -2285, 52, 70, -164, 30, 26, 21, 21, 24, 26, 87, 30
670821398, -2855, 11816, 7689, 7844, 3923, 1016, -2285, 52, 70, -164, 30, 26, 22, 21, 21, 25, 82, 25
670822176, -2855, 11816, 7689, 7844, 3923, 1016, -2285, 52, 70, -164, 30, 26, 22, 21, 21, 25, 82, 25
670823107, -2843, 11789, 7725, 7853, 3974, 1056, -2314, 70, 78, -206, 30, 26, 22, 21, 21, 25, 82, 25
670835664, -2843, 11789, 7725, 7853, 3974, 1056, -2314, 70, 78, -206, 32, 29, 21, 21, 20, 27, 82, 31
670836451, -2843, 11789, 7725, 7853, 3974, 1056, -2314, 70, 78, -206, 32, 29, 21, 21, 20, 27, 82, 31
670842601, -2817, 11755, 7766, 7873, 3957, 1093, -2338, 5, 116, -280, 32, 29, 21, 21, 20, 27, 82, 31
670858140, -2817, 11755, 7766, 7873, 3957, 1093, -2338, 5, 116, -280, 43, 33, 22, 20, 23, 26, 84, 39
670858922, -2817, 11755, 7766, 7873, 3957, 1093, -2338, 5, 116, -280, 43, 33, 22, 20, 23, 26, 84, 39
670865102, -2773, 11720, 7807, 7900, 3941, 1115, -2378, -93, 127, -349, 43, 33, 22, 20, 23, 26, 84, 39
670881410, -2773, 11720, 7807, 7900, 3941, 1115, -2378, -93, 127, -349, 49, 44, 24, 20, 23, 28, 65, 60
670882119, -2773, 11720, 7807, 7900, 3941, 1115, -2378, -93, 127, -349, 49, 44, 24, 20, 23, 28, 65, 60
670883071, -2699, 11683, 7848, 7940, 3966, 1153, -2373, -254, 94, -465, 49, 44, 24, 20, 23, 28, 65, 60
670895685, -2699, 11683, 7848, 7940, 3966, 1153, -2373, -254, 94, -465, 65, 89, 45, 23, 25, 29, 50, 72
670896483, -2699, 11683, 7848, 7940, 3966, 1153, -2373, -254, 94, -465, 65, 89, 45, 23, 25, 29, 50, 72
670902624, -2597, 11640, 7902, 7983, 3958, 1218, -2412, -347, 57, -615, 65, 89, 45, 23, 25, 29, 50, 72
670918169, -2597, 11640, 7902, 7983, 3958, 1218, -2412, -347, 57, -615, 88, 116, 57, 29, 30, 31, 61, 100
670918939, -2597, 11640, 7902, 7983, 3958, 1218, -2412, -347, 57, -615, 88, 116, 57, 29, 30, 31, 61, 100
670925128, -2462, 11588, 7980, 8024, 3883, 1260, -2466, -418, -3, -833, 88, 116, 57, 29, 30, 31, 61, 100
670941407, -2462, 11588, 7980, 8024, 3883, 1260, -2466, -418, -3, -833, 112, 129, 62, 29, 31, 32, 62, 119
670942176, -2462, 11588, 7980, 8024, 3883, 1260, -2466, -418, -3, -833, 112, 129, 62, 29, 31, 32, 62, 119
670943130, -2305, 11529, 8081, 8055, 3883, 1344, -2517, -423, -92, -1019, 112, 129, 62, 29, 31, 32, 62, 119
670955668, -2305, 11529, 8081, 8055, 3883, 1344, -2517, -423, -92, -1019, 123, 133, 65, 31, 30, 33, 57, 124
670956456, -2305, 11529, 8081, 8055, 3883, 1344, -2517, -423, -92, -1019, 123, 133, 65, 31, 30, 33, 57, 124
670962592, -2121, 11452, 8210, 8084, 3876, 1496, -2377, -404, -235, -1245, 123, 133, 65, 31, 30, 33, 57, 124
670978153, -2121, 11452, 8210, 8084, 3876, 1496, -2377, -404, -235, -1245, 144, 139, 67, 32, 30, 31, 56, 129
670978920, -2121, 11452, 8210, 8084, 3876, 1496, -2377, -404, -235, -1245, 144, 139, 67, 32, 30, 31, 56, 129
670985088, -1925, 11357, 8374, 8098, 3824, 1631, -2413, -309, -298, -1458, 144, 139, 67, 32, 30, 31, 56, 129
671001395, -1925, 11357, 8374, 8098, 3824, 1631, -2413, -309, -298, -1458, 142, 122, 60, 30, 29, 30, 56, 126
671002152, -1925, 11357, 8374, 8098, 3824, 1631, -2413, -309, -298, -1458, 142, 122, 60, 30, 29, 30, 56, 126
671003077, -1709, 11243, 8561, 8112, 3700, 1808, -2397, -288, -361, -1652, 142, 122, 60, 30, 29, 30, 56, 126
671015696, -1709, 11243, 8561, 8112, 3700, 1808, -2397, -288, -361, -1652, 132, 100, 49, 27, 23, 27, 40, 110
671016480, -1709, 11243, 8561, 8112, 3700, 1808, -2397, -288, -361, -1652, 132, 100, 49, 27, 23, 27, 40, 110
671022646, -1456, 11120, 8762, 8115, 3614, 1945, -2372, -350, -502, -1833, 132, 100, 49, 27, 23, 27, 40, 110
671038169, -1456, 11120, 8762, 8115, 3614, 1945, -2372, -350, -502, -1833, 119, 98, 45, 28, 24, 26, 39, 89
671038950, -1456, 11120, 8762, 8115, 3614, 1945, -2372, -350, -502, -1833, 119, 98, 45, 28, 24, 26, 39, 89
671045118, -1167, 10984, 8983, 8105, 3549, 2063, -2382, -397, -636, -2051, 119, 98, 45, 28, 24, 26, 39, 89
671061318, -1167, 10984, 8983, 8105, 3549, 2063, -2382, -397, -636, -2051, 107, 99, 44, 28, 24, 25, 43, 82
671062118, -1167, 10984, 8983, 8105, 3549, 2063, -2382, -397, -636, -2051, 107, 99, 44, 28, 24, 25, 43, 82
671063049, -836, 10837, 9212, 8088, 3474, 2175, -2388, -505, -770, -2241, 107, 99, 44, 28, 24, 25, 43, 82
671075668, -836, 10837, 9212, 8088, 3474, 2175, -2388, -505, -770, -2241, 76, 87, 40, 26, 24, 27, 44, 59
671076448, -836, 10837, 9212, 8088, 3474, 2175, -2388, -505, -770, -2241, 76, 87, 40, 26, 24, 27, 44, 59
671082600, -478, 10677, 9444, 8062, 3411, 2212, -2426, -576, -864, -2385, 76, 87, 40, 26, 24, 27, 44, 59
671098160, -478, 10677, 9444, 8062, 3411, 2212, -2426, -576, -864, -2385, 71, 79, 35, 25, 24, 27, 44, 61
671098924, -478, 10677, 9444, 8062, 3411, 2212, -2426, -576, -864, -2385, 71, 79, 35, 25, 24, 27, 44, 61
671105092, -110, 10508, 9672, 8027, 3369, 2224, -2432, -604, -917, -2458, 71, 79, 35, 25, 24, 27, 44, 61
671121409, -110, 10508, 9672, 8027, 3369, 2224, -2432, -604, -917, -2458, 68, 75, 36, 24, 24, 26, 43, 52
671122155, -110, 10508, 9672, 8027, 3369, 2224, -2432, -604, -917, -2458, 68, 75, 36, 24, 24, 26, 43, 52
671123073, 258, 10331, 9896, 7980, 3305, 2190, -2406, -592, -948, -2491, 68, 75, 36, 24, 24, 26, 43, 52
671135680, 258, 10331, 9896, 7980, 3305, 2190, -2406, -592, -948, -2491, 53, 52, 30, 23, 24, 24, 41, 51
671136483, 258, 10331, 9896, 7980, 3305, 2190, -2406, -592, -948, -2491, 53, 52, 30, 23, 24, 24, 41, 51
671142657, 620, 10151, 10116, 7915, 3214, 2165, -2391, -525, -997, -2496, 53, 52, 30, 23, 24, 24, 41, 51
671158169, 620, 10151, 10116, 7915, 3214, 2165, -2391, -525, -997, -2496, 49, 39, 29, 22, 24, 24, 40, 48
671158972, 620, 10151, 10116, 7915, 3214, 2165, -2391, -525, -997, -2496, 49, 39, 29, 22, 24, 24, 40, 48
671165131, 983, 9976, 10329, 7826, 3128, 2196, -2353, -469, -1110, -2486, 49, 39, 29, 22, 24, 24, 40, 48
671181372, 983, 9976, 10329, 7826, 3128, 2196, -2353, -469, -1110, -2486, 40, 37, 29, 22, 23, 24, 39, 46
671182120, 983, 9976, 10329, 7826, 3128, 2196, -2353, -469, -1110, -2486, 40, 37, 29, 22, 23, 24, 39, 46
671183051, 1354, 9810, 10527, 7715, 3048, 2255, -2389, -462, -1254, -2442, 40, 37, 29, 22, 23, 24, 39, 46
671195550, 1354, 9810, 10527, 7715, 3048, 2255, -2389, -462, -1254, -2442, 41, 38, 30, 25, 22, 23, 39, 43
671203179, 1354, 9810, 10527, 7715, 3048, 2255, -2389, -462, -1254, -2442, 41, 38, 30, 25, 22, 23, 39, 43
671204078, 1728, 9652, 10705, 7593, 3000, 2319, -2443, -489, -1344, -2376, 41, 38, 30, 25, 22, 23, 39, 43
671218551, 1728, 9652, 10705, 7593, 3000, 2319, -2443, -489, -1344, -2376, 39, 34, 28, 26, 24, 24, 38, 54
671225686, 1728, 9652, 10705, 7593, 3000, 2319, -2443, -489, -1344, -2376, 39, 34, 28, 26, 24, 24, 38, 54
671226609, 2101, 9501, 10858, 7472, 2971, 2318, -2440, -560, -1384, -2288, 39, 34, 28, 26, 24, 24, 38, 54
671241319, 2101, 9501, 10858, 7472, 2971, 2318, -2440, -560, -1384, -2288, 42, 34, 29, 29, 23, 26, 40, 60
671242120, 2101, 9501, 10858, 7472, 2971, 2318, -2440, -560, -1384, -2288, 42, 34, 29, 29, 23, 26, 40, 60
671243021, 2477, 9356, 10978, 7362, 2934, 2321, -2391, -685, -1412, -2178, 42, 34, 29, 29, 23, 26, 40, 60
671254977, 2477, 9356, 10978, 7362, 2934, 2321, -2391, -685, -1412, -2178, 49, 39, 29, 28, 25, 26, 40, 68
671270694, 2477, 9356, 10978, 7362, 2934, 2321, -2391, -685, -1412, -2178, 49, 39, 29, 28, 25, 26, 40, 68
671271588, 2853, 9216, 11072, 7262, 2852, 2300, -2351, -796, -1429, -2084, 49, 39, 29, 28, 25, 26, 40, 68
671280193, 2853, 9216, 11072, 7262, 2852, 2300, -2351, -796, -1429, -2084, 57, 39, 28, 30, 26, 26, 45, 84
671281001, 2853, 9216, 11072, 7262, 2852, 2300, -2351, -796, -1429, -2084, 57, 39, 28, 30, 26, 26, 45, 84
671281821, 2853, 9216, 11072, 7262, 2852, 2300, -2351, -796, -1429, -2084, 57, 39, 28, 30, 26, 26, 45, 84
671282634, 2853, 9216, 11072, 7262, 2852, 2300, -2351, -796, -1429, -2084, 57, 39, 28, 30, 26, 26, 45, 84
671287653, 2853, 9216, 11072, 7262, 2852, 2300, -2351, -796, -1429, -2084, 57, 39, 28, 30, 26, 26, 45, 84
671288451, 2853, 9216, 11072, 7262, 2852, 2300, -2351, -796, -1429, -2084, 57, 39, 28, 30, 26, 26, 45, 84
671289313, 2853, 9216, 11072, 7262, 2852, 2300, -2351, -796, -1429, -2084, 57, 39, 28, 30, 26, 26, 45, 84
671290090, 2853, 9216, 11072, 7262, 2852, 2300, -2351, -796, -1429, -2084, 57, 39, 28, 30, 26, 26, 45, 84
671292586, 3234, 9080, 11138, 7173, 2762, 2287, -2291, -916, -1456, -1990, 57, 39, 28, 30, 26, 26, 45, 84
671301298, 3234, 9080, 11138, 7173, 2762, 2287, -2291, -916, -1456, -1990, 68, 37, 28, 31, 25, 28, 48, 96
671302113, 3234, 9080, 11138, 7173, 2762, 2287, -2291, -916, -1456, -1990, 68, 37, 28, 31, 25, 28, 48, 96
671303049, 3612, 8956, 11173, 7093, 2680, 2299, -2245, -1006, -1482, -1847, 68, 37, 28, 31, 25, 28, 48, 96
671331323, 3612, 8956, 11173, 7093, 2680, 2299, -2245, -1006, -1482, -1847, 70, 40, 29, 32, 26, 27, 51, 99
671332103, 3612, 8956, 11173, 7093, 2680, 2299, -2245, -1006, -1482, -1847, 70, 40, 29, 32, 26, 27, 51, 99
671333055, 3987, 8839, 11183, 7024, 2591, 2316, -2176, -1093, -1490, -1727, 70, 40, 29, 32, 26, 27, 51, 99
671346386, 3987, 8839, 11183, 7024, 2591, 2316, -2176, -1093, -1490, -1727, 68, 39, 30, 29, 27, 27, 57, 110
671347049, 3987, 8839, 11183, 7024, 2591, 2316, -2176, -1093, -1490, -1727, 68, 39, 30, 29, 27, 27, 57, 110
671348049, 4221, 8806, 11125, 7020, 2490, 2336, -2097, -1221, -1482, -1572, 68, 39, 30, 29, 27, 27, 57, 110
671360659, 4221, 8806, 11125, 7020, 2490, 2336, -2097, -1221, -1482, -1572, 72, 48, 31, 31, 27, 30, 57, 179
671361440, 4221, 8806, 11125, 7020, 2490, 2336, -2097, -1221, -1482, -1572, 72, 48, 31, 31, 27, 30, 57, 179
671367604, 4454, 8782, 11044, 7033, 2396, 2399, -2079, -1335, -1453, -1422, 72, 48, 31, 31, 27, 30, 57, 179
671383847, 4454, 8782, 11044, 7033, 2396, 2399, -2079, -1335, -1453, -1422, 122, 65, 32, 29, 32, 35, 60, 258
671384654, 4454, 8782, 11044, 7033, 2396, 2399, -2079, -1335, -1453, -1422, 122, 65, 32, 29, 32, 35, 60, 258
671385591, 4671, 8770, 10939, 7072, 2384, 2312, -2000, -1444, -1371, -1261, 122, 65, 32, 29, 32, 35, 60, 258
671406397, 4671, 8770, 10939, 7072, 2384, 2312, -2000, -1444, -1371, -1261, 143, 76, 45, 35, 40, 42, 72, 422
671407055, 4671, 8770, 10939, 7072, 2384, 2312, -2000, -1444, -1371, -1261, 143, 76, 45, 35, 40, 42, 72, 422
671408050, 4853, 8757, 10824, 7143, 2424, 2227, -1957, -1524, -1154, -1140, 143, 76, 45, 35, 40, 42, 72, 422
671420653, 4853, 8757, 10824, 7143, 2424, 2227, -1957, -1524, -1154, -1140, 230, 130, 98, 65, 77, 85, 129, 619
671421437, 4853, 8757, 10824, 7143, 2424, 2227, -1957, -1524, -1154, -1140, 230, 130, 98, 65, 77, 85, 129, 619
671427657, 4968, 8746, 10731, 7215, 2436, 2183, -1723, -1194, -860, -1050, 230, 130, 98, 65, 77, 85, 129, 619
671443833, 4968, 8746, 10731, 7215, 2436, 2183, -1723, -1194, -860, -1050, 236, 136, 103, 71, 82, 94, 135, 806
671444611, 4968, 8746, 10731, 7215, 2436, 2183, -1723, -1194, -860, -1050, 236, 136, 103, 71, 82, 94, 135, 806
671445539, 5020, 8718, 10659, 7320, 2427, 2212, -1438, -981, -435, -965, 236, 136, 103, 71, 82, 94, 135, 806
671466421, 5020, 8718, 10659, 7320, 2427, 2212, -1438, -981, -435, -965, 240, 138, 108, 75, 92, 112, 156, 884
671467151, 5020, 8718, 10659, 7320, 2427, 2212, -1438, -981, -435, -965, 240, 138, 108, 75, 92, 112, 156, 884
671468067, 5012, 8678, 10623, 7425, 2182, 2341, -1429, -725, -48, -833, 240, 138, 108, 75, 92, 112, 156, 884
671480658, 5012, 8678, 10623, 7425, 2182, 2341, -1429, -725, -48, -833, 260, 155, 118, 83, 105, 131, 178, 946
671481467, 5012, 8678, 10623, 7425, 2182, 2341, -1429, -725, -48, -833, 260, 155, 118, 83, 105, 131, 178, 946
671487618, 4999, 8643, 10575, 7543, 1896, 2318, -1599, -888, 66, -595, 260, 155, 118, 83, 105, 131, 178, 946
671503832, 4999, 8643, 10575, 7543, 1896, 2318, -1599, -888, 66, -595, 400, 208, 144, 96, 123, 162, 224, 1077
671504614, 4999, 8643, 10575, 7543, 1896, 2318, -1599, -888, 66, -595, 400, 208, 144, 96, 123, 162, 224, 1077
671505544, 4991, 8647, 10494, 7655, 1883, 2163, -1713, -1006, -93, -367, 400, 208, 144, 96, 123, 162, 224, 1077
671533838, 4991, 8647, 10494, 7655, 1883, 2163, -1713, -1006, -93, -367, 374, 191, 124, 84, 109, 152, 213, 1087
671534608, 4991, 8647, 10494, 7655, 1883, 2163, -1713, -1006, -93, -367, 374, 191, 124, 84, 109, 152, 213, 1087
671535552, 4962, 8692, 10391, 7762, 2161, 2069, -1629, -901, -217, -245, 374, 191, 124, 84, 109, 152, 213, 1087
671541158, 4962, 8692, 10391, 7762, 2161, 2069, -1629, -901, -217, -245, 392, 195, 127, 88, 116, 161, 238, 1121
671541949, 4962, 8692, 10391, 7762, 2161, 2069, -1629, -901, -217, -245, 392, 195, 127, 88, 116, 161, 238, 1121
671549512, 4962, 8692, 10391, 7762, 2161, 2069, -1629, -901, -217, -245, 392, 195, 127, 88, 116, 161, 238, 1121
671550370, 4962, 8692, 10391, 7762, 2161, 2069, -1629, -901, -217, -245, 392, 195, 127, 88, 116, 161, 238, 1121
671551047, 4962, 8692, 10391, 7762, 2161, 2069, -1629, -901, -217, -245, 392, 195, 127, 88, 116, 161, 238, 1121
671552049, 4891, 8762, 10300, 7850, 2497, 2136, -1802, -714, -198, -262, 392, 195, 127, 88, 116, 161, 238, 1121
671563858, 4891, 8762, 10300, 7850, 2497, 2136, -1802, -714, -198, -262, 432, 232, 151, 104, 139, 198, 310, 1132
671564806, 4891, 8762, 10300, 7850, 2497, 2136, -1802, -714, -198, -262, 432, 232, 151, 104, 139, 198, 310, 1132
671565586, 4819, 8819, 10220, 7935, 2482, 2219, -1978, -779, -113, -309, 432, 232, 151, 104, 139, 198, 310, 1132
671586310, 4819, 8819, 10220, 7935, 2482, 2219, -1978, -779, -113, -309, 416, 218, 148, 101, 133, 194, 337, 1112
671587109, 4819, 8819, 10220, 7935, 2482, 2219, -1978, -779, -113, -309, 416, 218, 148, 101, 133, 194, 337, 1112
671588024, 4758, 8842, 10147, 8040, 2351, 2245, -1896, -876, 60, -352, 416, 218, 148, 101, 133, 194, 337, 1112
671600645, 4758, 8842, 10147, 8040, 2351, 2245, -1896, -876, 60, -352, 290, 170, 126, 93, 120, 172, 312, 993
671601443, 4758, 8842, 10147, 8040, 2351, 2245, -1896, -876, 60, -352, 290, 170, 126, 93, 120, 172, 312, 993
671607625, 4654, 8831, 10105, 8164, 2291, 2161, -1737, -735, 435, -374, 290, 170, 126, 93, 120, 172, 312, 993
671623848, 4654, 8831, 10105, 8164, 2291, 2161, -1737, -735, 435, -374, 272, 162, 122, 89, 120, 170, 311, 947
671624639, 4654, 8831, 10105, 8164, 2291, 2161, -1737, -735, 435, -374, 272, 162, 122, 89, 120, 170, 311, 947
671625565, 4474, 8811, 10105, 8285, 2229, 2022, -1646, -374, 805, -271, 272, 162, 122, 89, 120, 170, 311, 947
671646406, 4474, 8811, 10105, 8285, 2229, 2022, -1646, -374, 805, -271, 253, 162, 122, 88, 117, 166, 301, 791
671647052, 4474, 8811, 10105, 8285, 2229, 2022, -1646, -374, 805, -271, 253, 162, 122, 88, 117, 166, 301, 791
671648054, 4219, 8802, 10148, 8376, 2141, 2004, -1648, 99, 1051, -123, 253, 162, 122, 88, 117, 166, 301, 791
671660662, 4219, 8802, 10148, 8376, 2141, 2004, -1648, 99, 1051, -123, 177, 99, 94, 85, 86, 106, 215, 714
671661452, 4219, 8802, 10148, 8376, 2141, 2004, -1648, 99, 1051, -123, 177, 99, 94, 85, 86, 106, 215, 714
671667632, 3906, 8799, 10226, 8434, 2074, 2054, -1634, 541, 1202, -9, 177, 99, 94, 85, 86, 106, 215, 714
671683823, 3906, 8799, 10226, 8434, 2074, 2054, -1634, 541, 1202, -9, 167, 99, 108, 120, 109, 92, 150, 687
671684596, 3906, 8799, 10226, 8434, 2074, 2054, -1634, 541, 1202, -9, 167, 99, 108, 120, 109, 92, 150, 687
671685539, 3562, 8798, 10326, 8467, 2025, 2127, -1682, 802, 1288, 69, 167, 99, 108, 120, 109, 92, 150, 687
671705643, 3562, 8798, 10326, 8467, 2025, 2127, -1682, 802, 1288, 69, 152, 96, 107, 121, 104, 92, 161, 712
671706421, 3562, 8798, 10326, 8467, 2025, 2127, -1682, 802, 1288, 69, 152, 96, 107, 121, 104, 92, 161, 712
671735704, 3213, 8784, 10436, 8486, 2005, 2264, -1710, 936, 1326, 71, 152, 96, 107, 121, 104, 92, 161, 712
671736499, 2878, 8747, 10545, 8509, 1943, 2367, -1733, 891, 1378, 42, 152, 96, 107, 121, 104, 92, 161, 712
671751411, 2878, 8747, 10545, 8509, 1943, 2367, -1733, 891, 1378, 42, 149, 90, 112, 123, 102, 84, 143, 714
671752070, 2878, 8747, 10545, 8509, 1943, 2367, -1733, 891, 1378, 42, 149, 90, 112, 123, 102, 84, 143, 714
671753089, 2566, 8687, 10653, 8535, 1874, 2422, -1770, 803, 1404, -15, 149, 90, 112, 123, 102, 84, 143, 714
671760228, 2566, 8687, 10653, 8535, 1874, 2422, -1770, 803, 1404, -15, 139, 94, 168, 156, 103, 75, 123, 727
671761025, 2566, 8687, 10653, 8535, 1874, 2422, -1770, 803, 1404, -15, 139, 94, 168, 156, 103, 75, 123, 727
671761829, 2566, 8687, 10653, 8535, 1874, 2422, -1770, 803, 1404, -15, 139, 94, 168, 156, 103, 75, 123, 727
671762656, 2566, 8687, 10653, 8535, 1874, 2422, -1770, 803, 1404, -15, 139, 94, 168, 156, 103, 75, 123, 727
671766970, 2566, 8687, 10653, 8535, 1874, 2422, -1770, 803, 1404, -15, 139, 94, 168, 156, 103, 75, 123, 727
671767771, 2566, 8687, 10653, 8535, 1874, 2422, -1770, 803, 1404, -15, 139, 94, 168, 156, 103, 75, 123, 727
671768579, 2566, 8687, 10653, 8535, 1874, 2422, -1770, 803, 1404, -15, 139, 94, 168, 156, 103, 75, 123, 727
671769379, 2566, 8687, 10653, 8535, 1874, 2422, -1770, 803, 1404, -15, 139, 94, 168, 156, 103, 75, 123, 727
671773280, 2277, 8619, 10747, 8570, 1922, 2434, -1855, 638, 1374, -43, 139, 94, 168, 156, 103, 75, 123, 727
671774073, 2277, 8619, 10747, 8570, 1922, 2434, -1855, 638, 1374, -43, 135, 105, 207, 339, 177, 91, 133, 749
671780680, 2277, 8619, 10747, 8570, 1922, 2434, -1855, 638, 1374, -43, 135, 105, 207, 339, 177, 91, 133, 749
671781451, 2277, 8619, 10747, 8570, 1922, 2434, -1855, 638, 1374, -43, 135, 105, 207, 339, 177, 91, 133, 749
671790269, 2277, 8619, 10747, 8570, 1922, 2434, -1855, 638, 1374, -43, 129, 105, 207, 337, 177, 88, 133, 728
671791051, 2277, 8619, 10747, 8570, 1922, 2434, -1855, 638, 1374, -43, 129, 105, 207, 337, 177, 88, 133, 728
671791865, 2277, 8619, 10747, 8570, 1922, 2434, -1855, 638, 1374, -43, 129, 105, 207, 337, 177, 88, 133, 728
671792677, 2277, 8619, 10747, 8570, 1922, 2434, -1855, 638, 1374, -43, 129, 105, 207, 337, 177, 88, 133, 728
671797632, 2277, 8619, 10747, 8570, 1922, 2434, -1855, 638, 1374, -43, 129, 105, 207, 337, 177, 88, 133, 728
671798443, 2277, 8619, 10747, 8570, 1922, 2434, -1855, 638, 1374, -43, 129, 105, 207, 337, 177, 88, 133, 728
671799262, 2277, 8619, 10747, 8570, 1922, 2434, -1855, 638, 1374, -43, 129, 105, 207, 337, 177, 88, 133, 728
671800075, 2277, 8619, 10747, 8570, 1922, 2434, -1855, 638, 1374, -43, 129, 105, 207, 337, 177, 88, 133, 728
671805158, 2277, 8619, 10747, 8570, 1922, 2434, -1855, 638, 1374, -43, 129, 105, 207, 337, 177, 88, 133, 728
671806070, 2030, 8542, 10842, 8590, 1666, 2458, -1932, 555, 1287, -64, 129, 105, 207, 337, 177, 88, 133, 728
671806898, 2030, 8542, 10842, 8590, 1666, 2458, -1932, 555, 1287, -64, 116, 99, 223, 342, 179, 82, 107, 657
671807705, 2030, 8542, 10842, 8590, 1666, 2458, -1932, 555, 1287, -64, 116, 99, 223, 342, 179, 82, 107, 657
671812730, 2030, 8542, 10842, 8590, 1666, 2458, -1932, 555, 1287, -64, 116, 99, 223, 342, 179, 82, 107, 657
671813521, 2030, 8542, 10842, 8590, 1666, 2458, -1932, 555, 1287, -64, 116, 99, 223, 342, 179, 82, 107, 657
671814393, 2030, 8542, 10842, 8590, 1666, 2458, -1932, 555, 1287, -64, 116, 99, 223, 342, 179, 82, 107, 657
671815147, 2030, 8542, 10842, 8590, 1666, 2458, -1932, 555, 1287, -64, 116, 99, 223, 342, 179, 82, 107, 657
671820121, 2030, 8542, 10842, 8590, 1666, 2458, -1932, 555, 1287, -64, 116, 99, 223, 342, 179, 82, 107, 657
671820905, 2030, 8542, 10842, 8590, 1666, 2458, -1932, 555, 1287, -64, 116, 99, 223, 342, 179, 82, 107, 657
671821716, 2030, 8542, 10842, 8590, 1666, 2458, -1932, 555, 1287, -64, 116, 99, 223, 342, 179, 82, 107, 657
671822553, 2030, 8542, 10842, 8590, 1666, 2458, -1932, 555, 1287, -64, 116, 99, 223, 342, 179, 82, 107, 657
671827623, 2030, 8542, 10842, 8590, 1666, 2458, -1932, 555, 1287, -64, 116, 99, 223, 342, 179, 82, 107, 657
671828560, 1761, 8469, 10897, 8652, 2058, 2297, -1802, 379, 1357, -14, 116, 99, 223, 342, 179, 82, 107, 657
671829392, 1761, 8469, 10897, 8652, 2058, 2297, -1802, 379, 1357, -14, 105, 99, 227, 351, 185, 82, 105, 610
671830169, 1761, 8469, 10897, 8652, 2058, 2297, -1802, 379, 1357, -14, 105, 99, 227, 351, 185, 82, 105, 610
671835204, 1761, 8469, 10897, 8652, 2058, 2297, -1802, 379, 1357, -14, 105, 99, 227, 351, 185, 82, 105, 610
671835984, 1761, 8469, 10897, 8652, 2058, 2297, -1802, 379, 1357, -14, 105, 99, 227, 351, 185, 82, 105, 610
671836789, 1761, 8469, 10897, 8652, 2058, 2297, -1802, 379, 1357, -14, 105, 99, 227, 351, 185, 82, 105, 610
671837626, 1761, 8469, 10897, 8652, 2058, 2297, -1802, 379, 1357, -14, 105, 99, 227, 351, 185, 82, 105, 610
671842640, 1761, 8469, 10897, 8652, 2058, 2297, -1802, 379, 1357, -14, 105, 99, 227, 351, 185, 82, 105, 610
671843450, 1761, 8469, 10897, 8652, 2058, 2297, -1802, 379, 1357, -14, 105, 99, 227, 351, 185, 82, 105, 610
671844232, 1761, 8469, 10897, 8652, 2058, 2297, -1802, 379, 1357, -14, 105, 99, 227, 351, 185, 82, 105, 610
671845036, 1761, 8469, 10897, 8652, 2058, 2297, -1802, 379, 1357, -14, 105, 99, 227, 351, 185, 82, 105, 610
671850174, 1761, 8469, 10897, 8652, 2058, 2297, -1802, 379, 1357, -14, 105, 99, 227, 351, 185, 82, 105, 610
671851062, 1535, 8403, 10970, 8666, 1848, 2383, -2048, 415, 1159, -52, 105, 99, 227, 351, 185, 82, 105, 610
671851872, 1535, 8403, 10970, 8666, 1848, 2383, -2048, 415, 1159, -52, 101, 92, 202, 356, 189, 80, 105, 561
671852680, 1535, 8403, 10970, 8666, 1848, 2383, -2048, 415, 1159, -52, 101, 92, 202, 356, 189, 80, 105, 561
671857763, 1535, 8403, 10970, 8666, 1848, 2383, -2048, 415, 1159, -52, 101, 92, 202, 356, 189, 80, 105, 561
671858513, 1535, 8403, 10970, 8666, 1848, 2383, -2048, 415, 1159, -52, 101, 92, 202, 356, 189, 80, 105, 561
671859376, 1535, 8403, 10970, 8666, 1848, 2383, -2048, 415, 1159, -52, 101, 92, 202, 356, 189, 80, 105, 561
671860163, 1535, 8403, 10970, 8666, 1848, 2383, -2048, 415, 1159, -52, 101, 92, 202, 356, 189, 80, 105, 561
671865159, 1535, 8403, 10970, 8666, 1848, 2383, -2048, 415, 1159, -52, 101, 92, 202, 356, 189, 80, 105, 561
671865932, 1535, 8403, 10970, 8666, 1848, 2383, -2048, 415, 1159, -52, 101, 92, 202, 356, 189, 80, 105, 561
671866721, 1535, 8403, 10970, 8666, 1848, 2383, -2048, 415, 1159, -52, 101, 92, 202, 356, 189, 80, 105, 561
671867532, 1535, 8403, 10970, 8666, 1848, 2383, -2048, 415, 1159, -52, 101, 92, 202, 356, 189, 80, 105, 561
671872645, 1535, 8403, 10970, 8666, 1848, 2383, -2048, 415, 1159, -52, 101, 92, 202, 356, 189, 80, 105, 561
671873546, 1303, 8327, 11041, 8687, 1862, 2365, -2052, 404, 1247, -47, 101, 92, 202, 356, 189, 80, 105, 561
671874364, 1303, 8327, 11041, 8687, 1862, 2365, -2052, 404, 1247, -47, 117, 101, 226, 298, 170, 76, 94, 502
671875175, 1303, 8327, 11041, 8687, 1862, 2365, -2052, 404, 1247, -47, 117, 101, 226, 298, 170, 76, 94, 502
671880203, 1303, 8327, 11041, 8687, 1862, 2365, -2052, 404, 1247, -47, 117, 101, 226, 298, 170, 76, 94, 502
671881005, 1303, 8327, 11041, 8687, 1862, 2365, -2052, 404, 1247, -47, 117, 101, 226, 298, 170, 76, 94, 502
671881797, 1303, 8327, 11041, 8687, 1862, 2365, -2052, 404, 1247, -47, 117, 101, 226, 298, 170, 76, 94, 502
671882659, 1303, 8327, 11041, 8687, 1862, 2365, -2052, 404, 1247, -47, 117, 101, 226, 298, 170, 76, 94, 502
671887601, 1303, 8327, 11041, 8687, 1862, 2365, -2052, 404, 1247, -47, 117, 101, 226, 298, 170, 76, 94, 502
671888403, 1303, 8327, 11041, 8687, 1862, 2365, -2052, 404, 1247, -47, 117, 101, 226, 298, 170, 76, 94, 502
671889233, 1303, 8327, 11041, 8687, 1862, 2365, -2052, 404, 1247, -47, 117, 101, 226, 298, 170, 76, 94, 502
671890019, 1303, 8327, 11041, 8687, 1862, 2365, -2052, 404, 1247, -47, 117, 101, 226, 298, 170, 76, 94, 502
671895141, 1303, 8327, 11041, 8687, 1862, 2365, -2052, 404, 1247, -47, 117, 101, 226, 298, 170, 76, 94, 502
671896084, 1053, 8230, 11125, 8707, 1894, 2375, -1931, 553, 1355, -88, 117, 101, 226, 298, 170, 76, 94, 502
671896892, 1053, 8230, 11125, 8707, 1894, 2375, -1931, 553, 1355, -88, 119, 131, 288, 390, 218, 216, 99, 473
671897694, 1053, 8230, 11125, 8707, 1894, 2375, -1931, 553, 1355, -88, 119, 131, 288, 390, 218, 216, 99, 473
671902673, 1053, 8230, 11125, 8707, 1894, 2375, -1931, 553, 1355, -88, 119, 131, 288, 390, 218, 216, 99, 473
671903477, 1053, 8230, 11125, 8707, 1894, 2375, -1931, 553, 1355, -88, 119, 131, 288, 390, 218, 216, 99, 473
671904279, 1053, 8230, 11125, 8707, 1894, 2375, -1931, 553, 1355, -88, 119, 131, 288, 390, 218, 216, 99, 473
671905099, 1053, 8230, 11125, 8707, 1894, 2375, -1931, 553, 1355, -88, 119, 131, 288, 390, 218, 216, 99, 473
671910150, 1053, 8230, 11125, 8707, 1894, 2375, -1931, 553, 1355, -88, 119, 131, 288, 390, 218, 216, 99, 473
671910927, 1053, 8230, 11125, 8707, 1894, 2375, -1931, 553, 1355, -88, 119, 131, 288, 390, 218, 216, 99, 473
671911739, 1053, 8230, 11125, 8707, 1894, 2375, -1931, 553, 1355, -88, 119, 131, 288, 390, 218, 216, 99, 473
671912553, 1053, 8230, 11125, 8707, 1894, 2375, -1931, 553, 1355, -88, 119, 131, 288, 390, 218, 216, 99, 473
671917638, 1053, 8230, 11125, 8707, 1894, 2375, -1931, 553, 1355, -88, 119, 131, 288, 390, 218, 216, 99, 473
671918558, 817, 8121, 11223, 8708, 1874, 2379, -2037, 595, 1334, -189, 119, 131, 288, 390, 218, 216, 99, 473
671919374, 817, 8121, 11223, 8708, 1874, 2379, -2037, 595, 1334, -189, 114, 140, 290, 402, 247, 221, 111, 415
671920191, 817, 8121, 11223, 8708, 1874, 2379, -2037, 595, 1334, -189, 114, 140, 290, 402, 247, 221, 111, 415
671925193, 817, 8121, 11223, 8708, 1874, 2379, -2037, 595, 1334, -189, 114, 140, 290, 402, 247, 221, 111, 415
671926004, 817, 8121, 11223, 8708, 1874, 2379, -2037, 595, 1334, -189, 114, 140, 290, 402, 247, 221, 111, 415
671926817, 817, 8121, 11223, 8708, 1874, 2379, -2037, 595, 1334, -189, 114, 140, 290, 402, 247, 221, 111, 415
671927659, 817, 8121, 11223, 8708, 1874, 2379, -2037, 595, 1334, -189, 114, 140, 290, 402, 247, 221, 111, 415
671932606, 817, 8121, 11223, 8708, 1874, 2379, -2037, 595, 1334, -189, 114, 140, 290, 402, 247, 221, 111, 415
671933419, 817, 8121, 11223, 8708, 1874, 2379, -2037, 595, 1334, -189, 114, 140, 290, 402, 247, 221, 111, 415
671934223, 817, 8121, 11223, 8708, 1874, 2379, -2037, 595, 1334, -189, 114, 140, 290, 402, 247, 221, 111, 415
671935022, 817, 8121, 11223, 8708, 1874, 2379, -2037, 595, 1334, -189, 114, 140, 290, 402, 247, 221, 111, 415
671940133, 817, 8121, 11223, 8708, 1874, 2379, -2037, 595, 1334, -189, 114, 140, 290, 402, 247, 221, 111, 415
671941029, 638, 8039, 11315, 8680, 1762, 2376, -2256, 457, 1040, -180, 114, 140, 290, 402, 247, 221, 111, 415
671941853, 638, 8039, 11315, 8680, 1762, 2376, -2256, 457, 1040, -180, 123, 141, 288, 412, 254, 228, 113, 331
671942675, 638, 8039, 11315, 8680, 1762, 2376, -2256, 457, 1040, -180, 114, 140, 290, 402, 247, 221, 111, 415
671955181, 638, 8039, 11315, 8680, 1762, 2376, -2256, 457, 1040, -180, 123, 141, 288, 412, 254, 228, 113, 331
671955979, 638, 8039, 11315, 8680, 1762, 2376, -2256, 457, 1040, -180, 123, 141, 288, 412, 254, 228, 113, 331
671956787, 638, 8039, 11315, 8680, 1762, 2376, -2256, 457, 1040, -180, 123, 141, 288, 412, 254, 228, 113, 331
671957615, 638, 8039, 11315, 8680, 1762, 2376, -2256, 457, 1040, -180, 123, 141, 288, 412, 254, 228, 113, 331
671962565, 638, 8039, 11315, 8680, 1762, 2376, -2256, 457, 1040, -180, 123, 141, 288, 412, 254, 228, 113, 331
671963363, 638, 8039, 11315, 8680, 1762, 2376, -2256, 457, 1040, -180, 123, 141, 288, 412, 254, 228, 113, 331
671964200, 638, 8039, 11315, 8680, 1762, 2376, -2256, 457, 1040, -180, 123, 141, 288, 412, 254, 228, 113, 331
671965001, 638, 8039, 11315, 8680, 1762, 2376, -2256, 457, 1040, -180, 123, 141, 288, 412, 254, 228, 113, 331
671970230, 638, 8039, 11315, 8680, 1762, 2376, -2256, 457, 1040, -180, 122, 136, 279, 397, 271, 249, 110, 353
671971008, 638, 8039, 11315, 8680, 1762, 2376, -2256, 457, 1040, -180, 122, 136, 279, 397, 271, 249, 110, 353
671971816, 638, 8039, 11315, 8680, 1762, 2376, -2256, 457, 1040, -180, 122, 136, 279, 397, 271, 249, 110, 353
671972629, 638, 8039, 11315, 8680, 1762, 2376, -2256, 457, 1040, -180, 122, 136, 279, 397, 271, 249, 110, 353
671977590, 638, 8039, 11315, 8680, 1762, 2376, -2256, 457, 1040, -180, 122, 136, 279, 397, 271, 249, 110, 353
671978412, 638, 8039, 11315, 8680, 1762, 2376, -2256, 457, 1040, -180, 122, 136, 279, 397, 271, 249, 110, 353
671979196, 638, 8039, 11315, 8680, 1762, 2376, -2256, 457, 1040, -180, 122, 136, 279, 397, 271, 249, 110, 353
671980012, 638, 8039, 11315, 8680, 1762, 2376, -2256, 457, 1040, -180, 122, 136, 279, 397, 271, 249, 110, 353
671985092, 638, 8039, 11315, 8680, 1762, 2376, -2256, 457, 1040, -180, 122, 136, 279, 397, 271, 249, 110, 353
671986008, 312, 7884, 11477, 8627, 1985, 2412, -2035, 653, 1041, -274, 122, 136, 279, 397, 271, 249, 110, 353
671986834, 312, 7884, 11477, 8627, 1985, 2412, -2035, 653, 1041, -274, 105, 124, 232, 371, 270, 259, 109, 343
671987651, 312, 7884, 11477, 8627, 1985, 2412, -2035, 653, 1041, -274, 105, 124, 232, 371, 270, 259, 109, 343
671992660, 312, 7884, 11477, 8627, 1985, 2412, -2035, 653, 1041, -274, 105, 124, 232, 371, 270, 259, 109, 343
671993453, 312, 7884, 11477, 8627, 1985, 2412, -2035, 653, 1041, -274, 105, 124, 232, 371, 270, 259, 109, 343
671994357, 312, 7884, 11477, 8627, 1985, 2412, -2035, 653, 1041, -274, 105, 124, 232, 371, 270, 259, 109, 343
671995039, 312, 7884, 11477, 8627, 1985, 2412, -2035, 653, 1041, -274, 105, 124, 232, 371, 270, 259, 109, 343
672000105, 312, 7884, 11477, 8627, 1985, 2412, -2035, 653, 1041, -274, 105, 124, 232, 371, 270, 259, 109, 343
672000918, 312, 7884, 11477, 8627, 1985, 2412, -2035, 653, 1041, -274, 105, 124, 232, 371, 270, 259, 109, 343
672001739, 312, 7884, 11477, 8627, 1985, 2412, -2035, 653, 1041, -274, 105, 124, 232, 371, 270, 259, 109, 343
672002544, 312, 7884, 11477, 8627, 1985, 2412, -2035, 653, 1041, -274, 105, 124, 232, 371, 270, 259, 109, 343
672007652, 312, 7884, 11477, 8627, 1985, 2412, -2035, 653, 1041, -274, 105, 124, 232, 371, 270, 259, 109, 343
672008565, 60, 7677, 11619, 8629, 2082, 2421, -1957, 1014, 1618, -501, 105, 124, 232, 371, 270, 259, 109, 343
672009367, 60, 7677, 11619, 8629, 2082, 2421, -1957, 1014, 1618, -501, 111, 112, 228, 355, 235, 175, 102, 391
672010169, 60, 7677, 11619, 8629, 2082, 2421, -1957, 1014, 1618, -501, 111, 112, 228, 355, 235, 175, 102, 391
672015176, 60, 7677, 11619, 8629, 2082, 2421, -1957, 1014, 1618, -501, 111, 112, 228, 355, 235, 175, 102, 391
672015993, 60, 7677, 11619, 8629, 2082, 2421, -1957, 1014, 1618, -501, 111, 112, 228, 355, 235, 175, 102, 391
672016810, 60, 7677, 11619, 8629, 2082, 2421, -1957, 1014, 1618, -501, 111, 112, 228, 355, 235, 175, 102, 391
672017636, 60, 7677, 11619, 8629, 2082, 2421, -1957, 1014, 1618, -501, 111, 112, 228, 355, 235, 175, 102, 391
672022569, 60, 7677, 11619, 8629, 2082, 2421, -1957, 1014, 1618, -501, 111, 112, 228, 355, 235, 175, 102, 391
672023389, 60, 7677, 11619, 8629, 2082, 2421, -1957, 1014, 1618, -501, 111, 112, 228, 355, 235, 175, 102, 391
672024201, 60, 7677, 11619, 8629, 2082, 2421, -1957, 1014, 1618, -501, 111, 112, 228, 355, 235, 175, 102, 391
672025019, 60, 7677, 11619, 8629, 2082, 2421, -1957, 1014, 1618, -501, 111, 112, 228, 355, 235, 175, 102, 391
672030101, 60, 7677, 11619, 8629, 2082, 2421, -1957, 1014, 1618, -501, 111, 112, 228, 355, 235, 175, 102, 391
672031027, -219, 7459, 11750, 8640, 1795, 2337, -2279, 977, 1831, -405, 111, 112, 228, 355, 235, 175, 102, 391
672031834, -219, 7459, 11750, 8640, 1795, 2337, -2279, 977, 1831, -405, 112, 115, 227, 360, 241, 205, 86, 399
672032662, -219, 7459, 11750, 8640, 1795, 2337, -2279, 977, 1831, -405, 112, 115, 227, 360, 241, 205, 86, 399
672037687, -219, 7459, 11750, 8640, 1795, 2337, -2279, 977, 1831, -405, 112, 115, 227, 360, 241, 205, 86, 399
672038470, -219, 7459, 11750, 8640, 1795, 2337, -2279, 977, 1831, -405, 112, 115, 227, 360, 241, 205, 86, 399
672039358, -219, 7459, 11750, 8640, 1795, 2337, -2279, 977, 1831, -405, 112, 115, 227, 360, 241, 205, 86, 399
672040039, -219, 7459, 11750, 8640, 1795, 2337, -2279, 977, 1831, -405, 112, 115, 227, 360, 241, 205, 86, 399
672045060, -219, 7459, 11750, 8640, 1795, 2337, -2279, 977, 1831, -405, 112, 115, 227, 360, 241, 205, 86, 399
672045872, -219, 7459, 11750, 8640, 1795, 2337, -2279, 977, 1831, -405, 112, 115, 227, 360, 241, 205, 86, 399
672046675, -219, 7459, 11750, 8640, 1795, 2337, -2279, 977, 1831, -405, 112, 115, 227, 360, 241, 205, 86, 399
672047489, -219, 7459, 11750, 8640, 1795, 2337, -2279, 977, 1831, -405, 112, 115, 227, 360, 241, 205, 86, 399
672052598, -219, 7459, 11750, 8640, 1795, 2337, -2279, 977, 1831, -405, 112, 115, 227, 360, 241, 205, 86, 399
672053516, -459, 7317, 11877, 8579, 1634, 2331, -2448, 821, 1504, -179, 112, 115, 227, 360, 241, 205, 86, 399
672054359, -459, 7317, 11877, 8579, 1634, 2331, -2448, 821, 1504, -179, 118, 117, 229, 349, 237, 203, 86, 439
672055123, -459, 7317, 11877, 8579, 1634, 2331, -2448, 821, 1504, -179, 118, 117, 229, 349, 237, 203, 86, 439
672060171, -459, 7317, 11877, 8579, 1634, 2331, -2448, 821, 1504, -179, 118, 117, 229, 349, 237, 203, 86, 439
672060969, -459, 7317, 11877, 8579, 1634, 2331, -2448, 821, 1504, -179, 118, 117, 229, 349, 237, 203, 86, 439
672061800, -459, 7317, 11877, 8579, 1634, 2331, -2448, 821, 1504, -179, 118, 117, 229, 349, 237, 203, 86, 439
672062573, -459, 7317, 11877, 8579, 1634, 2331, -2448, 821, 1504, -179, 118, 117, 229, 349, 237, 203, 86, 439
672067640, -459, 7317, 11877, 8579, 1634, 2331, -2448, 821, 1504, -179, 118, 117, 229, 349, 237, 203, 86, 439
672068430, -459, 7317, 11877, 8579, 1634, 2331, -2448, 821, 1504, -179, 118, 117, 229, 349, 237, 203, 86, 439
672069233, -459, 7317, 11877, 8579, 1634, 2331, -2448, 821, 1504, -179, 118, 117, 229, 349, 237, 203, 86, 439
672070029, -459, 7317, 11877, 8579, 1634, 2331, -2448, 821, 1504, -179, 118, 117, 229, 349, 237, 203, 86, 439
672075118, -459, 7317, 11877, 8579, 1634, 2331, -2448, 821, 1504, -179, 118, 117, 229, 349, 237, 203, 86, 439
672076048, -674, 7185, 12005, 8497, 1766, 2365, -2353, 920, 1259, -244, 118, 117, 229, 349, 237, 203, 86, 439
672076859, -674, 7185, 12005, 8497, 1766, 2365, -2353, 920, 1259, -244, 112, 114, 229, 365, 233, 203, 99, 421
672077665, -674, 7185, 12005, 8497, 1766, 2365, -2353, 920, 1259, -244, 112, 114, 229, 365, 233, 203, 99, 421
672082704, -674, 7185, 12005, 8497, 1766, 2365, -2353, 920, 1259, -244, 112, 114, 229, 365, 233, 203, 99, 421
672083500, -674, 7185, 12005, 8497, 1766, 2365, -2353, 920, 1259, -244, 112, 114, 229, 365, 233, 203, 99, 421
672084358, -674, 7185, 12005, 8497, 1766, 2365, -2353, 920, 1259, -244, 112, 114, 229, 365, 233, 203, 99, 421
672085156, -674, 7185, 12005, 8497, 1766, 2365, -2353, 920, 1259, -244, 112, 114, 229, 365, 233, 203, 99, 421
672090098, -674, 7185, 12005, 8497, 1766, 2365, -2353, 920, 1259, -244, 112, 114, 229, 365, 233, 203, 99, 421
672090897, -674, 7185, 12005, 8497, 1766, 2365, -2353, 920, 1259, -244, 112, 114, 229, 365, 233, 203, 99, 421
672091704, -674, 7185, 12005, 8497, 1766, 2365, -2353, 920, 1259, -244, 112, 114, 229, 365, 233, 203, 99, 421
672092549, -674, 7185, 12005, 8497, 1766, 2365, -2353, 920, 1259, -244, 112, 114, 229, 365, 233, 203, 99, 421
672105157, -674, 7185, 12005, 8497, 1766, 2365, -2353, 920, 1259, -244, 112, 114, 229, 365, 233, 203, 99, 421
672106069, -899, 7020, 12139, 8425, 1931, 2419, -2303, 981, 1366, -396, 112, 114, 229, 365, 233, 203, 99, 421
672106879, -899, 7020, 12139, 8425, 1931, 2419, -2303, 981, 1366, -396, 104, 109, 235, 380, 245, 191, 97, 410
672107683, -899, 7020, 12139, 8425, 1931, 2419, -2303, 981, 1366, -396, 104, 109, 235, 380, 245, 191, 97, 410
672112713, -899, 7020, 12139, 8425, 1931, 2419, -2303, 981, 1366, -396, 104, 109, 235, 380, 245, 191, 97, 410
672113513, -899, 7020, 12139, 8425, 1931, 2419, -2303, 981, 1366, -396, 104, 109, 235, 380, 245, 191, 97, 410
672114387, -899, 7020, 12139, 8425, 1931, 2419, -2303, 981, 1366, -396, 104, 109, 235, 380, 245, 191, 97, 410
672115156, -899, 7020, 12139, 8425, 1931, 2419, -2303, 981, 1366, -396, 104, 109, 235, 380, 245, 191, 97, 410
672120108, -899, 7020, 12139, 8425, 1931, 2419, -2303, 981, 1366, -396, 104, 109, 235, 380, 245, 191, 97, 410
672120890, -899, 7020, 12139, 8425, 1931, 2419, -2303, 981, 1366, -396, 104, 109, 235, 380, 245, 191, 97, 410
672121704, -899, 7020, 12139, 8425, 1931, 2419, -2303, 981, 1366, -396, 104, 109, 235, 380, 245, 191, 97, 410
672122518, -899, 7020, 12139, 8425, 1931, 2419, -2303, 981, 1366, -396, 104, 109, 235, 380, 245, 191, 97, 410
672127639, -899, 7020, 12139, 8425, 1931, 2419, -2303, 981, 1366, -396, 104, 109, 235, 380, 245, 191, 97, 410
672128545, -1139, 6799, 12253, 8411, 1920, 2501, -2278, 966, 1606, -501, 104, 109, 235, 380, 245, 191, 97, 410
672129366, -1139, 6799, 12253, 8411, 1920, 2501, -2278, 966, 1606, -501, 85, 90, 161, 361, 263, 202, 105, 377
672130175, -1139, 6799, 12253, 8411, 1920, 2501, -2278, 966, 1606, -501, 85, 90, 161, 361, 263, 202, 105, 377
672135210, -1139, 6799, 12253, 8411, 1920, 2501, -2278, 966, 1606, -501, 85, 90, 161, 361, 263, 202, 105, 377
672136000, -1139, 6799, 12253, 8411, 1920, 2501, -2278, 966, 1606, -501, 85, 90, 161, 361, 263, 202, 105, 377
672136808, -1139, 6799, 12253, 8411, 1920, 2501, -2278, 966, 1606, -501, 85, 90, 161, 361, 263, 202, 105, 377
672137609, -1139, 6799, 12253, 8411, 1920, 2501, -2278, 966, 1606, -501, 85, 90, 161, 361, 263, 202, 105, 377
672142586, -1139, 6799, 12253, 8411, 1920, 2501, -2278, 966, 1606, -501, 85, 90, 161, 361, 263, 202, 105, 377
672143388, -1139, 6799, 12253, 8411, 1920, 2501, -2278, 966, 1606, -501, 85, 90, 161, 361, 263, 202, 105, 377
672144206, -1139, 6799, 12253, 8411, 1920, 2501, -2278, 966, 1606, -501, 85, 90, 161, 361, 263, 202, 105, 377
672145017, -1139, 6799, 12253, 8411, 1920, 2501, -2278, 966, 1606, -501, 85, 90, 161, 361, 263, 202, 105, 377
672150111, -1139, 6799, 12253, 8411, 1920, 2501, -2278, 966, 1606, -501, 85, 90, 161, 361, 263, 202, 105, 377
672151028, -1337, 6594, 12373, 8369, 1693, 2388, -2517, 689, 1584, -497, 85, 90, 161, 361, 263, 202, 105, 377
672151834, -1337, 6594, 12373, 8369, 1693, 2388, -2517, 689, 1584, -497, 90, 76, 133, 358, 252, 188, 117, 392
672152656, -1337, 6594, 12373, 8369, 1693, 2388, -2517, 689, 1584, -497, 90, 76, 133, 358, 252, 188, 117, 392
672157668, -1337, 6594, 12373, 8369, 1693, 2388, -2517, 689, 1584, -497, 90, 76, 133, 358, 252, 188, 117, 392
672158477, -1337, 6594, 12373, 8369, 1693, 2388, -2517, 689, 1584, -497, 90, 76, 133, 358, 252, 188, 117, 392
672159276, -1337, 6594, 12373, 8369, 1693, 2388, -2517, 689, 1584, -497, 90, 76, 133, 358, 252, 188, 117, 392
672160122, -1337, 6594, 12373, 8369, 1693, 2388, -2517, 689, 1584, -497, 90, 76, 133, 358, 252, 188, 117, 392
672165123, -1337, 6594, 12373, 8369, 1693, 2388, -2517, 689, 1584, -497, 90, 76, 133, 358, 252, 188, 117, 392
672165924, -1337, 6594, 12373, 8369, 1693, 2388, -2517, 689, 1584, -497, 90, 76, 133, 358, 252, 188, 117, 392
672166739, -1337, 6594, 12373, 8369, 1693, 2388, -2517, 689, 1584, -497, 90, 76, 133, 358, 252, 188, 117, 392
672167548, -1337, 6594, 12373, 8369, 1693, 2388, -2517, 689, 1584, -497, 90, 76, 133, 358, 252, 188, 117, 392
672172628, -1337, 6594, 12373, 8369, 1693, 2388, -2517, 689, 1584, -497, 90, 76, 133, 358, 252, 188, 117, 392
672173570, -1477, 6456, 12463, 8320, 1589, 2239, -2632, 394, 1216, -305, 90, 76, 133, 358, 252, 188, 117, 392
672174359, -1477, 6456, 12463, 8320, 1589, 2239, -2632, 394, 1216, -305, 81, 71, 127, 359, 257, 197, 123, 339
672175175, -1477, 6456, 12463, 8320, 1589, 2239, -2632, 394, 1216, -305, 81, 71, 127, 359, 257, 197, 123, 339
672180190, -1477, 6456, 12463, 8320, 1589, 2239, -2632, 394, 1216, -305, 81, 71, 127, 359, 257, 197, 123, 339
672180996, -1477, 6456, 12463, 8320, 1589, 2239, -2632, 394, 1216, -305, 81, 71, 127, 359, 257, 197, 123, 339
672181806, -1477, 6456, 12463, 8320, 1589, 2239, -2632, 394, 1216, -305, 81, 71, 127, 359, 257, 197, 123, 339
672182624, -1477, 6456, 12463, 8320, 1589, 2239, -2632, 394, 1216, -305, 81, 71, 127, 359, 257, 197, 123, 339
672187605, -1477, 6456, 12463, 8320, 1589, 2239, -2632, 394, 1216, -305, 81, 71, 127, 359, 257, 197, 123, 339
672188401, -1477, 6456, 12463, 8320, 1589, 2239, -2632, 394, 1216, -305, 81, 71, 127, 359, 257, 197, 123, 339
672189229, -1477, 6456, 12463, 8320, 1589, 2239, -2632, 394, 1216, -305, 81, 71, 127, 359, 257, 197, 123, 339
672190027, -1477, 6456, 12463, 8320, 1589, 2239, -2632, 394, 1216, -305, 81, 71, 127, 359, 257, 197, 123, 339
672195112, -1477, 6456, 12463, 8320, 1589, 2239, -2632, 394, 1216, -305, 81, 71, 127, 359, 257, 197, 123, 339
672196034, -1599, 6367, 12528, 8269, 1711, 2238, -2672, 266, 984, -130, 81, 71, 127, 359, 257, 197, 123, 339
672196846, -1599, 6367, 12528, 8269, 1711, 2238, -2672, 266, 984, -130, 79, 71, 123, 368, 250, 186, 120, 309
672197665, -1599, 6367, 12528, 8269, 1711, 2238, -2672, 266, 984, -130, 79, 71, 123, 368, 250, 186, 120, 309
672202670, -1599, 6367, 12528, 8269, 1711, 2238, -2672, 266, 984, -130, 79, 71, 123, 368, 250, 186, 120, 309
672203468, -1599, 6367, 12528, 8269, 1711, 2238, -2672, 266, 984, -130, 79, 71, 123, 368, 250, 186, 120, 309
672204358, -1599, 6367, 12528, 8269, 1711, 2238, -2672, 266, 984, -130, 79, 71, 123, 368, 250, 186, 120, 309
672205040, -1599, 6367, 12528, 8269, 1711, 2238, -2672, 266, 984, -130, 79, 71, 123, 368, 250, 186, 120, 309
672210083, -1599, 6367, 12528, 8269, 1711, 2238, -2672, 266, 984, -130, 79, 71, 123, 368, 250, 186, 120, 309
672210869, -1599, 6367, 12528, 8269, 1711, 2238, -2672, 266, 984, -130, 79, 71, 123, 368, 250, 186, 120, 309
672211677, -1599, 6367, 12528, 8269, 1711, 2238, -2672, 266, 984, -130, 79, 71, 123, 368, 250, 186, 120, 309
672212492, -1599, 6367, 12528, 8269, 1711, 2238, -2672, 266, 984, -130, 79, 71, 123, 368, 250, 186, 120, 309
672217582, -1599, 6367, 12528, 8269, 1711, 2238, -2672, 266, 984, -130, 79, 71, 123, 368, 250, 186, 120, 309
672218514, -1770, 6245, 12597, 8221, 2058, 2319, -2374, 534, 1122, -241, 79, 71, 123, 368, 250, 186, 120, 309
672219363, -1770, 6245, 12597, 8221, 2058, 2319, -2374, 534, 1122, -241, 80, 73, 115, 345, 222, 191, 124, 307
672220122, -1770, 6245, 12597, 8221, 2058, 2319, -2374, 534, 1122, -241, 80, 73, 115, 345, 222, 191, 124, 307
672225204, -1770, 6245, 12597, 8221, 2058, 2319, -2374, 534, 1122, -241, 80, 73, 115, 345, 222, 191, 124, 307
672225985, -1770, 6245, 12597, 8221, 2058, 2319, -2374, 534, 1122, -241, 80, 73, 115, 345, 222, 191, 124, 307
672226795, -1770, 6245, 12597, 8221, 2058, 2319, -2374, 534, 1122, -241, 80, 73, 115, 345, 222, 191, 124, 307
672227640, -1770, 6245, 12597, 8221, 2058, 2319, -2374, 534, 1122, -241, 80, 73, 115, 345, 222, 191, 124, 307
672232623, -1770, 6245, 12597, 8221, 2058, 2319, -2374, 534, 1122, -241, 80, 73, 115, 345, 222, 191, 124, 307
672233407, -1770, 6245, 12597, 8221, 2058, 2319, -2374, 534, 1122, -241, 80, 73, 115, 345, 222, 191, 124, 307
672234220, -1770, 6245, 12597, 8221, 2058, 2319, -2374, 534, 1122, -241, 80, 73, 115, 345, 222, 191, 124, 307
672235063, -1770, 6245, 12597, 8221, 2058, 2319, -2374, 534, 1122, -241, 80, 73, 115, 345, 222, 191, 124, 307
672240137, -1770, 6245, 12597, 8221, 2058, 2319, -2374, 534, 1122, -241, 80, 73, 115, 345, 222, 191, 124, 307
672241047, -2001, 6018, 12716, 8154, 2145, 2406, -2315, 1007, 1571, -612, 80, 73, 115, 345, 222, 191, 124, 307
672241860, -2001, 6018, 12716, 8154, 2145, 2406, -2315, 1007, 1571, -612, 82, 71, 119, 341, 201, 186, 123, 285
672242679, -2001, 6018, 12716, 8154, 2145, 2406, -2315, 1007, 1571, -612, 82, 71, 119, 341, 201, 186, 123, 285
672247699, -2001, 6018, 12716, 8154, 2145, 2406, -2315, 1007, 1571, -612, 82, 71, 119, 341, 201, 186, 123, 285
672248502, -2001, 6018, 12716, 8154, 2145, 2406, -2315, 1007, 1571, -612, 82, 71, 119, 341, 201, 186, 123, 285
672249364, -2001, 6018, 12716, 8154, 2145, 2406, -2315, 1007, 1571, -612, 82, 71, 119, 341, 201, 186, 123, 285
672250148, -2001, 6018, 12716, 8154, 2145, 2406, -2315, 1007, 1571, -612, 82, 71, 119, 341, 201, 186, 123, 285
672255103, -2001, 6018, 12716, 8154, 2145, 2406, -2315, 1007, 1571, -612, 82, 71, 119, 341, 201, 186, 123, 285
672255895, -2001, 6018, 12716, 8154, 2145, 2406, -2315, 1007, 1571, -612, 82, 71, 119, 341, 201, 186, 123, 285
672256712, -2001, 6018, 12716, 8154, 2145, 2406, -2315, 1007, 1571, -612, 82, 71, 119, 341, 201, 186, 123, 285
672257510, -2001, 6018, 12716, 8154, 2145, 2406, -2315, 1007, 1571, -612, 82, 71, 119, 341, 201, 186, 123, 285
672262602, -2001, 6018, 12716, 8154, 2145, 2406, -2315, 1007, 1571, -612, 82, 71, 119, 341, 201, 186, 123, 285
672263533, -2232, 5771, 12800, 8142, 1700, 2198, -2706, 816, 1704, -578, 82, 71, 119, 341, 201, 186, 123, 285
672264359, -2232, 5771, 12800, 8142, 1700, 2198, -2706, 816, 1704, -578, 76, 66, 124, 394, 234, 183, 119, 289
672265144, -2232, 5771, 12800, 8142, 1700, 2198, -2706, 816, 1704, -578, 76, 66, 124, 394, 234, 183, 119, 289
672270179, -2232, 5771, 12800, 8142, 1700, 2198, -2706, 816, 1704, -578, 76, 66, 124, 394, 234, 183, 119, 289
672270974, -2232, 5771, 12800, 8142, 1700, 2198, -2706, 816, 1704, -578, 76, 66, 124, 394, 234, 183, 119, 289
672271786, -2232, 5771, 12800, 8142, 1700, 2198, -2706, 816, 1704, -578, 76, 66, 124, 394, 234, 183, 119, 289
672272618, -2232, 5771, 12800, 8142, 1700, 2198, -2706, 816, 1704, -578, 76, 66, 124, 394, 234, 183, 119, 289
672277568, -2232, 5771, 12800, 8142, 1700, 2198, -2706, 816, 1704, -578, 76, 66, 124, 394, 234, 183, 119, 289
672278372, -2232, 5771, 12800, 8142, 1700, 2198, -2706, 816, 1704, -578, 76, 66, 124, 394, 234, 183, 119, 289
672279179, -2232, 5771, 12800, 8142, 1700, 2198, -2706, 816, 1704, -578, 76, 66, 124, 394, 234, 183, 119, 289
672279987, -2232, 5771, 12800, 8142, 1700, 2198, -2706, 816, 1704, -578, 76, 66, 124, 394, 234, 183, 119, 289
672285141, -2232, 5771, 12800, 8142, 1700, 2198, -2706, 816, 1704, -578, 76, 66, 124, 394, 234, 183, 119, 289
672286044, -2370, 5630, 12881, 8073, 1436, 2129, -2868, 390, 1330, -202, 76, 66, 124, 394, 234, 183, 119, 289
672286870, -2370, 5630, 12881, 8073, 1436, 2129, -2868, 390, 1330, -202, 65, 64, 133, 406, 271, 189, 142, 343
672287679, -2370, 5630, 12881, 8073, 1436, 2129, -2868, 390, 1330, -202, 65, 64, 133, 406, 271, 189, 142, 343
672292688, -2370, 5630, 12881, 8073, 1436, 2129, -2868, 390, 1330, -202, 65, 64, 133, 406, 271, 189, 142, 343
672293507, -2370, 5630, 12881, 8073, 1436, 2129, -2868, 390, 1330, -202, 65, 64, 133, 406, 271, 189, 142, 343
672294366, -2370, 5630, 12881, 8073, 1436, 2129, -2868, 390, 1330, -202, 65, 64, 133, 406, 271, 189, 142, 343
672295120, -2370, 5630, 12881, 8073, 1436, 2129, -2868, 390, 1330, -202, 65, 64, 133, 406, 271, 189, 142, 343
672300091, -2370, 5630, 12881, 8073, 1436, 2129, -2868, 390, 1330, -202, 65, 64, 133, 406, 271, 189, 142, 343
672300896, -2370, 5630, 12881, 8073, 1436, 2129, -2868, 390, 1330, -202, 65, 64, 133, 406, 271, 189, 142, 343
672301718, -2370, 5630, 12881, 8073, 1436, 2129, -2868, 390, 1330, -202, 65, 64, 133, 406, 271, 189, 142, 343
672302523, -2370, 5630, 12881, 8073, 1436, 2129, -2868, 390, 1330, -202, 65, 64, 133, 406, 271, 189, 142, 343
672307631, -2370, 5630, 12881, 8073, 1436, 2129, -2868, 390, 1330, -202, 65, 64, 133, 406, 271, 189, 142, 343
672308536, -2472, 5561, 12918, 8032, 1643, 2219, -2826, 61, 996, 36, 65, 64, 133, 406, 271, 189, 142, 343
672309363, -2472, 5561, 12918, 8032, 1643, 2219, -2826, 61, 996, 36, 66, 65, 139, 443, 287, 197, 146, 335
672310167, -2472, 5561, 12918, 8032, 1643, 2219, -2826, 61, 996, 36, 66, 65, 139, 443, 287, 197, 146, 335
672315187, -2472, 5561, 12918, 8032, 1643, 2219, -2826, 61, 996, 36, 66, 65, 139, 443, 287, 197, 146, 335
672315990, -2472, 5561, 12918, 8032, 1643, 2219, -2826, 61, 996, 36, 66, 65, 139, 443, 287, 197, 146, 335
672316787, -2472, 5561, 12918, 8032, 1643, 2219, -2826, 61, 996, 36, 66, 65, 139, 443, 287, 197, 146, 335
672317637, -2472, 5561, 12918, 8032, 1643, 2219, -2826, 61, 996, 36, 66, 65, 139, 443, 287, 197, 146, 335
672322579, -2472, 5561, 12918, 8032, 1643, 2219, -2826, 61, 996, 36, 66, 65, 139, 443, 287, 197, 146, 335
672323403, -2472, 5561, 12918, 8032, 1643, 2219, -2826, 61, 996, 36, 66, 65, 139, 443, 287, 197, 146, 335
672324233, -2472, 5561, 12918, 8032, 1643, 2219, -2826, 61, 996, 36, 66, 65, 139, 443, 287, 197, 146, 335
672325027, -2472, 5561, 12918, 8032, 1643, 2219, -2826, 61, 996, 36, 66, 65, 139, 443, 287, 197, 146, 335
672330153, -2472, 5561, 12918, 8032, 1643, 2219, -2826, 61, 996, 36, 66, 65, 139, 443, 287, 197, 146, 335
672331075, -2616, 5477, 12949, 7995, 2092, 2346, -2548, 263, 1041, -18, 66, 65, 139, 443, 287, 197, 146, 335
672331892, -2796, 5317, 13002, 7954, 2245, 2290, -2480, 489, 1333, -354, 66, 65, 139, 443, 287, 197, 146, 335
672332701, -2796, 5317, 13002, 7954, 2245, 2290, -2480, 489, 1333, -354, 66, 63, 135, 444, 315, 212, 150, 319
672345189, -2796, 5317, 13002, 7954, 2245, 2290, -2480, 489, 1333, -354, 66, 63, 135, 444, 315, 212, 150, 319
672345988, -2796, 5317, 13002, 7954, 2245, 2290, -2480, 489, 1333, -354, 66, 63, 135, 444, 315, 212, 150, 319
672346787, -2796, 5317, 13002, 7954, 2245, 2290, -2480, 489, 1333, -354, 66, 63, 135, 444, 315, 212, 150, 319
672347630, -2796, 5317, 13002, 7954, 2245, 2290, -2480, 489, 1333, -354, 66, 63, 135, 444, 315, 212, 150, 319
672352570, -2796, 5317, 13002, 7954, 2245, 2290, -2480, 489, 1333, -354, 66, 63, 135, 444, 315, 212, 150, 319
672353371, -2796, 5317, 13002, 7954, 2245, 2290, -2480, 489, 1333, -354, 66, 63, 135, 444, 315, 212, 150, 319
672354228, -2796, 5317, 13002, 7954, 2245, 2290, -2480, 489, 1333, -354, 66, 63, 135, 444, 315, 212, 150, 319
672355003, -2796, 5317, 13002, 7954, 2245, 2290, -2480, 489, 1333, -354, 66, 63, 135, 444, 315, 212, 150, 319
672360202, -2796, 5317, 13002, 7954, 2245, 2290, -2480, 489, 1333, -354, 66, 59, 118, 420, 316, 207, 156, 320
672360993, -2796, 5317, 13002, 7954, 2245, 2290, -2480, 489, 1333, -354, 66, 59, 118, 420, 316, 207, 156, 320
672361807, -2796, 5317, 13002, 7954, 2245, 2290, -2480, 489, 1333, -354, 66, 59, 118, 420, 316, 207, 156, 320
672362622, -2796, 5317, 13002, 7954, 2245, 2290, -2480, 489, 1333, -354, 66, 59, 118, 420, 316, 207, 156, 320
672367610, -2796, 5317, 13002, 7954, 2245, 2290, -2480, 489, 1333, -354, 66, 59, 118, 420, 316, 207, 156, 320
672368413, -2796, 5317, 13002, 7954, 2245, 2290, -2480, 489, 1333, -354, 66, 59, 118, 420, 316, 207, 156, 320
672369220, -2796, 5317, 13002, 7954, 2245, 2290, -2480, 489, 1333, -354, 66, 59, 118, 420, 316, 207, 156, 320
672370013, -2796, 5317, 13002, 7954, 2245, 2290, -2480, 489, 1333, -354, 66, 59, 118, 420, 316, 207, 156, 320
672375085, -2796, 5317, 13002, 7954, 2245, 2290, -2480, 489, 1333, -354, 66, 59, 118, 420, 316, 207, 156, 320
672376023, -3118, 4945, 13157, 7818, 1725, 2049, -2916, 471, 1425, -327, 66, 59, 118, 420, 316, 207, 156, 320
672376854, -3118, 4945, 13157, 7818, 1725, 2049, -2916, 471, 1425, -327, 68, 58, 110, 361, 300, 199, 156, 264
672377655, -3118, 4945, 13157, 7818, 1725, 2049, -2916, 471, 1425, -327, 68, 58, 110, 361, 300, 199, 156, 264
672382664, -3118, 4945, 13157, 7818, 1725, 2049, -2916, 471, 1425, -327, 68, 58, 110, 361, 300, 199, 156, 264
672383478, -3118, 4945, 13157, 7818, 1725, 2049, -2916, 471, 1425, -327, 68, 58, 110, 361, 300, 199, 156, 264
672384279, -3118, 4945, 13157, 7818, 1725, 2049, -2916, 471, 1425, -327, 68, 58, 110, 361, 300, 199, 156, 264
672385103, -3118, 4945, 13157, 7818, 1725, 2049, -2916, 471, 1425, -327, 68, 58, 110, 361, 300, 199, 156, 264
672390075, -3118, 4945, 13157, 7818, 1725, 2049, -2916, 471, 1425, -327, 68, 58, 110, 361, 300, 199, 156, 264
672390866, -3118, 4945, 13157, 7818, 1725, 2049, -2916, 471, 1425, -327, 68, 58, 110, 361, 300, 199, 156, 264
672391675, -3118, 4945, 13157, 7818, 1725, 2049, -2916, 471, 1425, -327, 68, 58, 110, 361, 300, 199, 156, 264
672392496, -3118, 4945, 13157, 7818, 1725, 2049, -2916, 471, 1425, -327, 68, 58, 110, 361, 300, 199, 156, 264
672397582, -3118, 4945, 13157, 7818, 1725, 2049, -2916, 471, 1425, -327, 68, 58, 110, 361, 300, 199, 156, 264
672398501, -3256, 4816, 13213, 7748, 1748, 2146, -2811, 388, 1269, -140, 68, 58, 110, 361, 300, 199, 156, 264
672399382, -3256, 4816, 13213, 7748, 1748, 2146, -2811, 388, 1269, -140, 69, 52, 101, 398, 292, 186, 136, 155
672400146, -3256, 4816, 13213, 7748, 1748, 2146, -2811, 388, 1269, -140, 69, 52, 101, 398, 292, 186, 136, 155
672405216, -3256, 4816, 13213, 7748, 1748, 2146, -2811, 388, 1269, -140, 69, 52, 101, 398, 292, 186, 136, 155
672406011, -3256, 4816, 13213, 7748, 1748, 2146, -2811, 388, 1269, -140, 69, 52, 101, 398, 292, 186, 136, 155
672406821, -3256, 4816, 13213, 7748, 1748, 2146, -2811, 388, 1269, -140, 69, 52, 101, 398, 292, 186, 136, 155
672407633, -3256, 4816, 13213, 7748, 1748, 2146, -2811, 388, 1269, -140, 69, 52, 101, 398, 292, 186, 136, 155
672412602, -3256, 4816, 13213, 7748, 1748, 2146, -2811, 388, 1269, -140, 69, 52, 101, 398, 292, 186, 136, 155
672413412, -3256, 4816, 13213, 7748, 1748, 2146, -2811, 388, 1269, -140, 69, 52, 101, 398, 292, 186, 136, 155
672414216, -3256, 4816, 13213, 7748, 1748, 2146, -2811, 388, 1269, -140, 69, 52, 101, 398, 292, 186, 136, 155
672415050, -3256, 4816, 13213, 7748, 1748, 2146, -2811, 388, 1269, -140, 69, 52, 101, 398, 292, 186, 136, 155
672420122, -3256, 4816, 13213, 7748, 1748, 2146, -2811, 388, 1269, -140, 69, 52, 101, 398, 292, 186, 136, 155
672421033, -3393, 4708, 13250, 7692, 1913, 2242, -2740, 310, 1191, -42, 69, 52, 101, 398, 292, 186, 136, 155
672421838, -3393, 4708, 13250, 7692, 1913, 2242, -2740, 310, 1191, -42, 70, 57, 98, 349, 294, 173, 128, 163
672422655, -3393, 4708, 13250, 7692, 1913, 2242, -2740, 310, 1191, -42, 70, 57, 98, 349, 294, 173, 128, 163
672427733, -3393, 4708, 13250, 7692, 1913, 2242, -2740, 310, 1191, -42, 70, 57, 98, 349, 294, 173, 128, 163
672428520, -3393, 4708, 13250, 7692, 1913, 2242, -2740, 310, 1191, -42, 70, 57, 98, 349, 294, 173, 128, 163
672429397, -3393, 4708, 13250, 7692, 1913, 2242, -2740, 310, 1191, -42, 70, 57, 98, 349, 294, 173, 128, 163
672430096, -3393, 4708, 13250, 7692, 1913, 2242, -2740, 310, 1191, -42, 70, 57, 98, 349, 294, 173, 128, 163
672435124, -3393, 4708, 13250, 7692, 1913, 2242, -2740, 310, 1191, -42, 70, 57, 98, 349, 294, 173, 128, 163
672435883, -3393, 4708, 13250, 7692, 1913, 2242, -2740, 310, 1191, -42, 70, 57, 98, 349, 294, 173, 128, 163
672436722, -3393, 4708, 13250, 7692, 1913, 2242, -2740, 310, 1191, -42, 70, 57, 98, 349, 294, 173, 128, 163
672437581, -3393, 4708, 13250, 7692, 1913, 2242, -2740, 310, 1191, -42, 70, 57, 98, 349, 294, 173, 128, 163
672442613, -3393, 4708, 13250, 7692, 1913, 2242, -2740, 310, 1191, -42, 70, 57, 98, 349, 294, 173, 128, 163
672443508, -3525, 4595, 13288, 7636, 2082, 2209, -2761, 295, 1151, -140, 70, 57, 98, 349, 294, 173, 128, 163
672444364, -3525, 4595, 13288, 7636, 2082, 2209, -2761, 295, 1151, -140, 70, 63, 91, 324, 265, 170, 115, 155
672445182, -3525, 4595, 13288, 7636, 2082, 2209, -2761, 295, 1151, -140, 70, 63, 91, 324, 265, 170, 115, 155
672450169, -3525, 4595, 13288, 7636, 2082, 2209, -2761, 295, 1151, -140, 70, 63, 91, 324, 265, 170, 115, 155
672450976, -3525, 4595, 13288, 7636, 2082, 2209, -2761, 295, 1151, -140, 70, 63, 91, 324, 265, 170, 115, 155
672451798, -3525, 4595, 13288, 7636, 2082, 2209, -2761, 295, 1151, -140, 70, 63, 91, 324, 265, 170, 115, 155
672452613, -3525, 4595, 13288, 7636, 2082, 2209, -2761, 295, 1151, -140, 70, 63, 91, 324, 265, 170, 115, 155
672457576, -3525, 4595, 13288, 7636, 2082, 2209, -2761, 295, 1151, -140, 70, 63, 91, 324, 265, 170, 115, 155
672458372, -3525, 4595, 13288, 7636, 2082, 2209, -2761, 295, 1151, -140, 70, 63, 91, 324, 265, 170, 115, 155
672459177, -3525, 4595, 13288, 7636, 2082, 2209, -2761, 295, 1151, -140, 70, 63, 91, 324, 265, 170, 115, 155
672460028, -3525, 4595, 13288, 7636, 2082, 2209, -2761, 295, 1151, -140, 70, 63, 91, 324, 265, 170, 115, 155
672465117, -3525, 4595, 13288, 7636, 2082, 2209, -2761, 295, 1151, -140, 70, 63, 91, 324, 265, 170, 115, 155
672466068, -3651, 4455, 13344, 7561, 2079, 2134, -2788, 434, 1166, -300, 70, 63, 91, 324, 265, 170, 115, 155
672466897, -3651, 4455, 13344, 7561, 2079, 2134, -2788, 434, 1166, -300, 70, 66, 104, 368, 282, 187, 101, 144
672467688, -3651, 4455, 13344, 7561, 2079, 2134, -2788, 434, 1166, -300, 70, 66, 104, 368, 282, 187, 101, 144
672472717, -3651, 4455, 13344, 7561, 2079, 2134, -2788, 434, 1166, -300, 70, 66, 104, 368, 282, 187, 101, 144
672473485, -3651, 4455, 13344, 7561, 2079, 2134, -2788, 434, 1166, -300, 70, 66, 104, 368, 282, 187, 101, 144
672474369, -3651, 4455, 13344, 7561, 2079, 2134, -2788, 434, 1166, -300, 70, 66, 104, 368, 282, 187, 101, 144
672475153, -3651, 4455, 13344, 7561, 2079, 2134, -2788, 434, 1166, -300, 70, 66, 104, 368, 282, 187, 101, 144
672480094, -3651, 4455, 13344, 7561, 2079, 2134, -2788, 434, 1166, -300, 70, 66, 104, 368, 282, 187, 101, 144
672480910, -3651, 4455, 13344, 7561, 2079, 2134, -2788, 434, 1166, -300, 70, 66, 104, 368, 282, 187, 101, 144
672481730, -3651, 4455, 13344, 7561, 2079, 2134, -2788, 434, 1166, -300, 70, 66, 104, 368, 282, 187, 101, 144
672482524, -3651, 4455, 13344, 7561, 2079, 2134, -2788, 434, 1166, -300, 70, 66, 104, 368, 282, 187, 101, 144
672487602, -3651, 4455, 13344, 7561, 2079, 2134, -2788, 434, 1166, -300, 70, 66, 104, 368, 282, 187, 101, 144
672488532, -3776, 4312, 13406, 7473, 2003, 2088, -2884, 479, 1189, -286, 70, 66, 104, 368, 282, 187, 101, 144
672489365, -3776, 4312, 13406, 7473, 2003, 2088, -2884, 479, 1189, -286, 67, 67, 104, 410, 272, 188, 88, 145
672490148, -3776, 4312, 13406, 7473, 2003, 2088, -2884, 479, 1189, -286, 67, 67, 104, 410, 272, 188, 88, 145
672495165, -3776, 4312, 13406, 7473, 2003, 2088, -2884, 479, 1189, -286, 67, 67, 104, 410, 272, 188, 88, 145
672495971, -3776, 4312, 13406, 7473, 2003, 2088, -2884, 479, 1189, -286, 67, 67, 104, 410, 272, 188, 88, 145
672496811, -3776, 4312, 13406, 7473, 2003, 2088, -2884, 479, 1189, -286, 67, 67, 104, 410, 272, 188, 88, 145
672497629, -3776, 4312, 13406, 7473, 2003, 2088, -2884, 479, 1189, -286, 67, 67, 104, 410, 272, 188, 88, 145
672502567, -3776, 4312, 13406, 7473, 2003, 2088, -2884, 479, 1189, -286, 67, 67, 104, 410, 272, 188, 88, 145
672503372, -3776, 4312, 13406, 7473, 2003, 2088, -2884, 479, 1189, -286, 67, 67, 104, 410, 272, 188, 88, 145
672504206, -3776, 4312, 13406, 7473, 2003, 2088, -2884, 479, 1189, -286, 67, 67, 104, 410, 272, 188, 88, 145
672505006, -3776, 4312, 13406, 7473, 2003, 2088, -2884, 479, 1189, -286, 67, 67, 104, 410, 272, 188, 88, 145
672510078, -3776, 4312, 13406, 7473, 2003, 2088, -2884, 479, 1189, -286, 67, 67, 104, 410, 272, 188, 88, 145
672511002, -3896, 4186, 13457, 7391, 1910, 2079, -2907, 393, 1186, -171, 67, 67, 104, 410, 272, 188, 88, 145
672511812, -3896, 4186, 13457, 7391, 1910, 2079, -2907, 393, 1186, -171, 63, 70, 105, 376, 247, 191, 81, 153
672512626, -3896, 4186, 13457, 7391, 1910, 2079, -2907, 393, 1186, -171, 63, 70, 105, 376, 247, 191, 81, 153
672517667, -3896, 4186, 13457, 7391, 1910, 2079, -2907, 393, 1186, -171, 63, 70, 105, 376, 247, 191, 81, 153
672518466, -3896, 4186, 13457, 7391, 1910, 2079, -2907, 393, 1186, -171, 63, 70, 105, 376, 247, 191, 81, 153
672519286, -3896, 4186, 13457, 7391, 1910, 2079, -2907, 393, 1186, -171, 63, 70, 105, 376, 247, 191, 81, 153
672520084, -3896, 4186, 13457, 7391, 1910, 2079, -2907, 393, 1186, -171, 63, 70, 105, 376, 247, 191, 81, 153
672525054, -3896, 4186, 13457, 7391, 1910, 2079, -2907, 393, 1186, -171, 63, 70, 105, 376, 247, 191, 81, 153
672525859, -3896, 4186, 13457, 7391, 1910, 2079, -2907, 393, 1186, -171, 63, 70, 105, 376, 247, 191, 81, 153
672526655, -3896, 4186, 13457, 7391, 1910, 2079, -2907, 393, 1186, -171, 63, 70, 105, 376, 247, 191, 81, 153
672527468, -3896, 4186, 13457, 7391, 1910, 2079, -2907, 393, 1186, -171, 63, 70, 105, 376, 247, 191, 81, 153
672532643, -3896, 4186, 13457, 7391, 1910, 2079, -2907, 393, 1186, -171, 63, 70, 105, 376, 247, 191, 81, 153
672533550, -4012, 4093, 13488, 7323, 1968, 2118, -2911, 249, 1124, -18, 63, 70, 105, 376, 247, 191, 81, 153
672534360, -4012, 4093, 13488, 7323, 1968, 2118, -2911, 249, 1124, -18, 59, 68, 106, 415, 248, 189, 71, 130
672535185, -4012, 4093, 13488, 7323, 1968, 2118, -2911, 249, 1124, -18, 59, 68, 106, 415, 248, 189, 71, 130
672539969, -4012, 4093, 13488, 7323, 1968, 2118, -2911, 249, 1124, -18, 59, 68, 106, 415, 248, 189, 71, 130
672540770, -4012, 4093, 13488, 7323, 1968, 2118, -2911, 249, 1124, -18, 59, 68, 106, 415, 248, 189, 71, 130
672541563, -4012, 4093, 13488, 7323, 1968, 2118, -2911, 249, 1124, -18, 59, 68, 106, 415, 248, 189, 71, 130
672542421, -4012, 4093, 13488, 7323, 1968, 2118, -2911, 249, 1124, -18, 59, 68, 106, 415, 248, 189, 71, 130
672547601, -4012, 4093, 13488, 7323, 1968, 2118, -2911, 249, 1124, -18, 59, 68, 106, 415, 248, 189, 71, 130
672548404, -4012, 4093, 13488, 7323, 1968, 2118, -2911, 249, 1124, -18, 59, 68, 106, 415, 248, 189, 71, 130
672549201, -4012, 4093, 13488, 7323, 1968, 2118, -2911, 249, 1124, -18, 59, 68, 106, 415, 248, 189, 71, 130
672550023, -4012, 4093, 13488, 7323, 1968, 2118, -2911, 249, 1124, -18, 59, 68, 106, 415, 248, 189, 71, 130
672555100, -4012, 4093, 13488, 7323, 1968, 2118, -2911, 249, 1124, -18, 59, 68, 106, 415, 248, 189, 71, 130
672556032, -4133, 4009, 13515, 7253, 2103, 2105, -2864, 268, 1082, 16, 59, 68, 106, 415, 248, 189, 71, 130
672556839, -4133, 4009, 13515, 7253, 2103, 2105, -2864, 268, 1082, 16, 56, 62, 105, 418, 257, 172, 72, 127
672557667, -4133, 4009, 13515, 7253, 2103, 2105, -2864, 268, 1082, 16, 56, 62, 105, 418, 257, 172, 72, 127
672562683, -4133, 4009, 13515, 7253, 2103, 2105, -2864, 268, 1082, 16, 56, 62, 105, 418, 257, 172, 72, 127
672563480, -4133, 4009, 13515, 7253, 2103, 2105, -2864, 268, 1082, 16, 56, 62, 105, 418, 257, 172, 72, 127
672564283, -4133, 4009, 13515, 7253, 2103, 2105, -2864, 268, 1082, 16, 56, 62, 105, 418, 257, 172, 72, 127
672565129, -4133, 4009, 13515, 7253, 2103, 2105, -2864, 268, 1082, 16, 56, 62, 105, 418, 257, 172, 72, 127
672570088, -4133, 4009, 13515, 7253, 2103, 2105, -2864, 268, 1082, 16, 56, 62, 105, 418, 257, 172, 72, 127
672570866, -4133, 4009, 13515, 7253, 2103, 2105, -2864, 268, 1082, 16, 56, 62, 105, 418, 257, 172, 72, 127
672571689, -4133, 4009, 13515, 7253, 2103, 2105, -2864, 268, 1082, 16, 56, 62, 105, 418, 257, 172, 72, 127
672572527, -4133, 4009, 13515, 7253, 2103, 2105, -2864, 268, 1082, 16, 56, 62, 105, 418, 257, 172, 72, 127
672577588, -4133, 4009, 13515, 7253, 2103, 2105, -2864, 268, 1082, 16, 56, 62, 105, 418, 257, 172, 72, 127
672578507, -4260, 3905, 13556, 7159, 2185, 2057, -2868, 449, 1095, -84, 56, 62, 105, 418, 257, 172, 72, 127
672579368, -4260, 3905, 13556, 7159, 2185, 2057, -2868, 449, 1095, -84, 56, 61, 97, 378, 247, 145, 78, 130
672580154, -4260, 3905, 13556, 7159, 2185, 2057, -2868, 449, 1095, -84, 56, 61, 97, 378, 247, 145, 78, 130
672585153, -4260, 3905, 13556, 7159, 2185, 2057, -2868, 449, 1095, -84, 56, 61, 97, 378, 247, 145, 78, 130
672585950, -4260, 3905, 13556, 7159, 2185, 2057, -2868, 449, 1095, -84, 56, 61, 97, 378, 247, 145, 78, 130
672586761, -4260, 3905, 13556, 7159, 2185, 2057, -2868, 449, 1095, -84, 56, 61, 97, 378, 247, 145, 78, 130
672587582, -4260, 3905, 13556, 7159, 2185, 2057, -2868, 449, 1095, -84, 56, 61, 97, 378, 247, 145, 78, 130
672592594, -4260, 3905, 13556, 7159, 2185, 2057, -2868, 449, 1095, -84, 56, 61, 97, 378, 247, 145, 78, 130
672593412, -4260, 3905, 13556, 7159, 2185, 2057, -2868, 449, 1095, -84, 56, 61, 97, 378, 247, 145, 78, 130
672594264, -4260, 3905, 13556, 7159, 2185, 2057, -2868, 449, 1095, -84, 56, 61, 97, 378, 247, 145, 78, 130
672595048, -4260, 3905, 13556, 7159, 2185, 2057, -2868, 449, 1095, -84, 56, 61, 97, 378, 247, 145, 78, 130
672600131, -4260, 3905, 13556, 7159, 2185, 2057, -2868, 449, 1095, -84, 56, 61, 97, 378, 247, 145, 78, 130
672601028, -4385, 3780, 13608, 7052, 2148, 2030, -2896, 561, 1123, -160, 56, 61, 97, 378, 247, 145, 78, 130
672601843, -4385, 3780, 13608, 7052, 2148, 2030, -2896, 561, 1123, -160, 53, 65, 99, 355, 283, 143, 80, 132
672602652, -4385, 3780, 13608, 7052, 2148, 2030, -2896, 561, 1123, -160, 53, 65, 99, 355, 283, 143, 80, 132
672607685, -4385, 3780, 13608, 7052, 2148, 2030, -2896, 561, 1123, -160, 53, 65, 99, 355, 283, 143, 80, 132
672608503, -4385, 3780, 13608, 7052, 2148, 2030, -2896, 561, 1123, -160, 53, 65, 99, 355, 283, 143, 80, 132
672609374, -4385, 3780, 13608, 7052, 2148, 2030, -2896, 561, 1123, -160, 53, 65, 99, 355, 283, 143, 80, 132
672610040, -4385, 3780, 13608, 7052, 2148, 2030, -2896, 561, 1123, -160, 53, 65, 99, 355, 283, 143, 80, 132
672615072, -4385, 3780, 13608, 7052, 2148, 2030, -2896, 561, 1123, -160, 53, 65, 99, 355, 283, 143, 80, 132
672615874, -4385, 3780, 13608, 7052, 2148, 2030, -2896, 561, 1123, -160, 53, 65, 99, 355, 283, 143, 80, 132
672616679, -4385, 3780, 13608, 7052, 2148, 2030, -2896, 561, 1123, -160, 53, 65, 99, 355, 283, 143, 80, 132
672617542, -4385, 3780, 13608, 7052, 2148, 2030, -2896, 561, 1123, -160, 53, 65, 99, 355, 283, 143, 80, 132
672622593, -4385, 3780, 13608, 7052, 2148, 2030, -2896, 561, 1123, -160, 53, 65, 99, 355, 283, 143, 80, 132
672623509, -4494, 3662, 13660, 6944, 2039, 2072, -2981, 537, 1097, -97, 53, 65, 99, 355, 283, 143, 80, 132
672624393, -4494, 3662, 13660, 6944, 2039, 2072, -2981, 537, 1097, -97, 53, 61, 91, 347, 289, 136, 87, 124
672625135, -4494, 3662, 13660, 6944, 2039, 2072, -2981, 537, 1097, -97, 53, 61, 91, 347, 289, 136, 87, 124
672630150, -4494, 3662, 13660, 6944, 2039, 2072, -2981, 537, 1097, -97, 53, 61, 91, 347, 289, 136, 87, 124
672630976, -4494, 3662, 13660, 6944, 2039, 2072, -2981, 537, 1097, -97, 53, 61, 91, 347, 289, 136, 87, 124
672631761, -4494, 3662, 13660, 6944, 2039, 2072, -2981, 537, 1097, -97, 53, 61, 91, 347, 289, 136, 87, 124
672632605, -4494, 3662, 13660, 6944, 2039, 2072, -2981, 537, 1097, -97, 53, 61, 91, 347, 289, 136, 87, 124
672645152, -4494, 3662, 13660, 6944, 2039, 2072, -2981, 537, 1097, -97, 53, 61, 91, 347, 289, 136, 87, 124
672645888, -4494, 3662, 13660, 6944, 2039, 2072, -2981, 537, 1097, -97, 53, 61, 91, 347, 289, 136, 87, 124
672646709, -4494, 3662, 13660, 6944, 2039, 2072, -2981, 537, 1097, -97, 53, 61, 91, 347, 289, 136, 87, 124
672647521, -4494, 3662, 13660, 6944, 2039, 2072, -2981, 537, 1097, -97, 53, 61, 91, 347, 289, 136, 87, 124
672652589, -4494, 3662, 13660, 6944, 2039, 2072, -2981, 537, 1097, -97, 53, 61, 91, 347, 289, 136, 87, 124
672653516, -4592, 3567, 13699, 6852, 2067, 2095, -2986, 401, 1029, -15, 53, 61, 91, 347, 289, 136, 87, 124
672654364, -4592, 3567, 13699, 6852, 2067, 2095, -2986, 401, 1029, -15, 52, 58, 91, 301, 284, 136, 94, 109
672655184, -4592, 3567, 13699, 6852, 2067, 2095, -2986, 401, 1029, -15, 52, 58, 91, 301, 284, 136, 94, 109
672660175, -4592, 3567, 13699, 6852, 2067, 2095, -2986, 401, 1029, -15, 52, 58, 91, 301, 284, 136, 94, 109
672660976, -4592, 3567, 13699, 6852, 2067, 2095, -2986, 401, 1029, -15, 52, 58, 91, 301, 284, 136, 94, 109
672661802, -4592, 3567, 13699, 6852, 2067, 2095, -2986, 401, 1029, -15, 52, 58, 91, 301, 284, 136, 94, 109
672662612, -4592, 3567, 13699, 6852, 2067, 2095, -2986, 401, 1029, -15, 52, 58, 91, 301, 284, 136, 94, 109
672667586, -4592, 3567, 13699, 6852, 2067, 2095, -2986, 401, 1029, -15, 52, 58, 91, 301, 284, 136, 94, 109
672668390, -4592, 3567, 13699, 6852, 2067, 2095, -2986, 401, 1029, -15, 52, 58, 91, 301, 284, 136, 94, 109
672669187, -4592, 3567, 13699, 6852, 2067, 2095, -2986, 401, 1029, -15, 52, 58, 91, 301, 284, 136, 94, 109
672669995, -4592, 3567, 13699, 6852, 2067, 2095, -2986, 401, 1029, -15, 52, 58, 91, 301, 284, 136, 94, 109
672675074, -4592, 3567, 13699, 6852, 2067, 2095, -2986, 401, 1029, -15, 52, 58, 91, 301, 284, 136, 94, 109
672676015, -4679, 3484, 13729, 6775, 2143, 2100, -2941, 302, 947, -16, 52, 58, 91, 301, 284, 136, 94, 109
672676823, -4679, 3484, 13729, 6775, 2143, 2100, -2941, 302, 947, -16, 53, 58, 88, 294, 268, 126, 93, 110
672677614, -4679, 3484, 13729, 6775, 2143, 2100, -2941, 302, 947, -16, 53, 58, 88, 294, 268, 126, 93, 110
672682651, -4679, 3484, 13729, 6775, 2143, 2100, -2941, 302, 947, -16, 53, 58, 88, 294, 268, 126, 93, 110
672683447, -4679, 3484, 13729, 6775, 2143, 2100, -2941, 302, 947, -16, 53, 58, 88, 294, 268, 126, 93, 110
672684253, -4679, 3484, 13729, 6775, 2143, 2100, -2941, 302, 947, -16, 53, 58, 88, 294, 268, 126, 93, 110
672685210, -4679, 3484, 13729, 6775, 2143, 2100, -2941, 302, 947, -16, 53, 58, 88, 294, 268, 126, 93, 110
672690042, -4679, 3484, 13729, 6775, 2143, 2100, -2941, 302, 947, -16, 53, 58, 88, 294, 268, 126, 93, 110
672690838, -4679, 3484, 13729, 6775, 2143, 2100, -2941, 302, 947, -16, 53, 58, 88, 294, 268, 126, 93, 110
672691654, -4679, 3484, 13729, 6775, 2143, 2100, -2941, 302, 947, -16, 53, 58, 88, 294, 268, 126, 93, 110
672692469, -4679, 3484, 13729, 6775, 2143, 2100, -2941, 302, 947, -16, 53, 58, 88, 294, 268, 126, 93, 110
672697615, -4679, 3484, 13729, 6775, 2143, 2100, -2941, 302, 947, -16, 53, 58, 88, 294, 268, 126, 93, 110
672698536, -4757, 3394, 13762, 6699, 2215, 2095, -2949, 315, 901, -88, 53, 58, 88, 294, 268, 126, 93, 110
672699396, -4757, 3394, 13762, 6699, 2215, 2095, -2949, 315, 901, -88, 49, 53, 83, 298, 275, 141, 92, 112
672700186, -4757, 3394, 13762, 6699, 2215, 2095, -2949, 315, 901, -88, 49, 53, 83, 298, 275, 141, 92, 112
672705193, -4757, 3394, 13762, 6699, 2215, 2095, -2949, 315, 901, -88, 49, 53, 83, 298, 275, 141, 92, 112
672705988, -4757, 3394, 13762, 6699, 2215, 2095, -2949, 315, 901, -88, 49, 53, 83, 298, 275, 141, 92, 112
672706828, -4757, 3394, 13762, 6699, 2215, 2095, -2949, 315, 901, -88, 49, 53, 83, 298, 275, 141, 92, 112
672707634, -4757, 3394, 13762, 6699, 2215, 2095, -2949, 315, 901, -88, 49, 53, 83, 298, 275, 141, 92, 112
672712596, -4757, 3394, 13762, 6699, 2215, 2095, -2949, 315, 901, -88, 49, 53, 83, 298, 275, 141, 92, 112
672713408, -4757, 3394, 13762, 6699, 2215, 2095, -2949, 315, 901, -88, 49, 53, 83, 298, 275, 141, 92, 112
672714217, -4757, 3394, 13762, 6699, 2215, 2095, -2949, 315, 901, -88, 49, 53, 83, 298, 275, 141, 92, 112
672715033, -4757, 3394, 13762, 6699, 2215, 2095, -2949, 315, 901, -88, 49, 53, 83, 298, 275, 141, 92, 112
672720099, -4757, 3394, 13762, 6699, 2215, 2095, -2949, 315, 901, -88, 49, 53, 83, 298, 275, 141, 92, 112
672721036, -4824, 3296, 13809, 6603, 2168, 2016, -3012, 418, 856, -137, 49, 53, 83, 298, 275, 141, 92, 112
672721840, -4824, 3296, 13809, 6603, 2168, 2016, -3012, 418, 856, -137, 53, 51, 78, 298, 283, 224, 96, 116
672722654, -4824, 3296, 13809, 6603, 2168, 2016, -3012, 418, 856, -137, 53, 51, 78, 298, 283, 224, 96, 116
672727786, -4824, 3296, 13809, 6603, 2168, 2016, -3012, 418, 856, -137, 53, 51, 78, 298, 283, 224, 96, 116
672728494, -4824, 3296, 13809, 6603, 2168, 2016, -3012, 418, 856, -137, 53, 51, 78, 298, 283, 224, 96, 116
672729285, -4824, 3296, 13809, 6603, 2168, 2016, -3012, 418, 856, -137, 53, 51, 78, 298, 283, 224, 96, 116
672730113, -4824, 3296, 13809, 6603, 2168, 2016, -3012, 418, 856, -137, 53, 51, 78, 298, 283, 224, 96, 116
672742607, -4824, 3296, 13809, 6603, 2168, 2016, -3012, 418, 856, -137, 53, 51, 78, 298, 283, 224, 96, 116
672743398, -4824, 3296, 13809, 6603, 2168, 2016, -3012, 418, 856, -137, 53, 51, 78, 298, 283, 224, 96, 116
672744202, -4824, 3296, 13809, 6603, 2168, 2016, -3012, 418, 856, -137, 53, 51, 78, 298, 283, 224, 96, 116
672745021, -4824, 3296, 13809, 6603, 2168, 2016, -3012, 418, 856, -137, 53, 51, 78, 298, 283, 224, 96, 116
672750095, -4824, 3296, 13809, 6603, 2168, 2016, -3012, 418, 856, -137, 53, 51, 78, 298, 283, 224, 96, 116
672751033, -4878, 3205, 13855, 6512, 2096, 2032, -3053, 366, 816, -105, 53, 51, 78, 298, 283, 224, 96, 116
672751839, -4878, 3205, 13855, 6512, 2096, 2032, -3053, 366, 816, -105, 57, 54, 91, 366, 306, 228, 90, 109
672752672, -4878, 3205, 13855, 6512, 2096, 2032, -3053, 366, 816, -105, 57, 54, 91, 366, 306, 228, 90, 109
672757681, -4878, 3205, 13855, 6512, 2096, 2032, -3053, 366, 816, -105, 57, 54, 91, 366, 306, 228, 90, 109
672758478, -4878, 3205, 13855, 6512, 2096, 2032, -3053, 366, 816, -105, 57, 54, 91, 366, 306, 228, 90, 109
672759363, -4878, 3205, 13855, 6512, 2096, 2032, -3053, 366, 816, -105, 57, 54, 91, 366, 306, 228, 90, 109
672760076, -4878, 3205, 13855, 6512, 2096, 2032, -3053, 366, 816, -105, 57, 54, 91, 366, 306, 228, 90, 109
672765066, -4878, 3205, 13855, 6512, 2096, 2032, -3053, 366, 816, -105, 57, 54, 91, 366, 306, 228, 90, 109
672765883, -4878, 3205, 13855, 6512, 2096, 2032, -3053, 366, 816, -105, 57, 54, 91, 366, 306, 228, 90, 109
672766707, -4878, 3205, 13855, 6512, 2096, 2032, -3053, 366, 816, -105, 57, 54, 91, 366, 306, 228, 90, 109
672767515, -4878, 3205, 13855, 6512, 2096, 2032, -3053, 366, 816, -105, 57, 54, 91, 366, 306, 228, 90, 109
672772605, -4878, 3205, 13855, 6512, 2096, 2032, -3053, 366, 816, -105, 57, 54, 91, 366, 306, 228, 90, 109
672773525, -4915, 3140, 13889, 6442, 2079, 2121, -3071, 210, 734, -2, 57, 54, 91, 366, 306, 228, 90, 109
672774363, -4915, 3140, 13889, 6442, 2079, 2121, -3071, 210, 734, -2, 56, 51, 90, 380, 302, 230, 99, 119
672775127, -4915, 3140, 13889, 6442, 2079, 2121, -3071, 210, 734, -2, 56, 51, 90, 380, 302, 230, 99, 119
672780174, -4915, 3140, 13889, 6442, 2079, 2121, -3071, 210, 734, -2, 56, 51, 90, 380, 302, 230, 99, 119
672780953, -4915, 3140, 13889, 6442, 2079, 2121, -3071, 210, 734, -2, 56, 51, 90, 380, 302, 230, 99, 119
672781772, -4915, 3140, 13889, 6442, 2079, 2121, -3071, 210, 734, -2, 56, 51, 90, 380, 302, 230, 99, 119
672782605, -4915, 3140, 13889, 6442, 2079, 2121, -3071, 210, 734, -2, 56, 51, 90, 380, 302, 230, 99, 119
672787543, -4915, 3140, 13889, 6442, 2079, 2121, -3071, 210, 734, -2, 56, 51, 90, 380, 302, 230, 99, 119
672788371, -4915, 3140, 13889, 6442, 2079, 2121, -3071, 210, 734, -2, 56, 51, 90, 380, 302, 230, 99, 119
672789178, -4915, 3140, 13889, 6442, 2079, 2121, -3071, 210, 734, -2, 56, 51, 90, 380, 302, 230, 99, 119
672790010, -4915, 3140, 13889, 6442, 2079, 2121, -3071, 210, 734, -2, 56, 51, 90, 380, 302, 230, 99, 119
672795064, -4915, 3140, 13889, 6442, 2079, 2121, -3071, 210, 734, -2, 56, 51, 90, 380, 302, 230, 99, 119
672795981, -4939, 3097, 13917, 6384, 2134, 2098, -3053, 101, 614, 41, 56, 51, 90, 380, 302, 230, 99, 119
672796788, -4939, 3097, 13917, 6384, 2134, 2098, -3053, 101, 614, 41, 52, 53, 89, 374, 301, 236, 101, 118
672797633, -4939, 3097, 13917, 6384, 2134, 2098, -3053, 101, 614, 41, 52, 53, 89, 374, 301, 236, 101, 118
672802642, -4939, 3097, 13917, 6384, 2134, 2098, -3053, 101, 614, 41, 52, 53, 89, 374, 301, 236, 101, 118
672803447, -4939, 3097, 13917, 6384, 2134, 2098, -3053, 101, 614, 41, 52, 53, 89, 374, 301, 236, 101, 118
672804258, -4939, 3097, 13917, 6384, 2134, 2098, -3053, 101, 614, 41, 52, 53, 89, 374, 301, 236, 101, 118
672805073, -4939, 3097, 13917, 6384, 2134, 2098, -3053, 101, 614, 41, 52, 53, 89, 374, 301, 236, 101, 118
672810111, -4939, 3097, 13917, 6384, 2134, 2098, -3053, 101, 614, 41, 52, 53, 89, 374, 301, 236, 101, 118
672810892, -4939, 3097, 13917, 6384, 2134, 2098, -3053, 101, 614, 41, 52, 53, 89, 374, 301, 236, 101, 118
672811708, -4939, 3097, 13917, 6384, 2134, 2098, -3053, 101, 614, 41, 52, 53, 89, 374, 301, 236, 101, 118
672812531, -4939, 3097, 13917, 6384, 2134, 2098, -3053, 101, 614, 41, 52, 53, 89, 374, 301, 236, 101, 118
672817690, -4939, 3097, 13917, 6384, 2134, 2098, -3053, 101, 614, 41, 52, 53, 89, 374, 301, 236, 101, 118
672818539, -4958, 3063, 13943, 6329, 2210, 2060, -3022, 72, 537, 34, 52, 53, 89, 374, 301, 236, 101, 118
672819368, -4958, 3063, 13943, 6329, 2210, 2060, -3022, 72, 537, 34, 53, 57, 90, 363, 292, 236, 99, 112
672820149, -4958, 3063, 13943, 6329, 2210, 2060, -3022, 72, 537, 34, 53, 57, 90, 363, 292, 236, 99, 112
672825162, -4958, 3063, 13943, 6329, 2210, 2060, -3022, 72, 537, 34, 53, 57, 90, 363, 292, 236, 99, 112
672825973, -4958, 3063, 13943, 6329, 2210, 2060, -3022, 72, 537, 34, 53, 57, 90, 363, 292, 236, 99, 112
672826778, -4958, 3063, 13943, 6329, 2210, 2060, -3022, 72, 537, 34, 53, 57, 90, 363, 292, 236, 99, 112
672827593, -4958, 3063, 13943, 6329, 2210, 2060, -3022, 72, 537, 34, 53, 57, 90, 363, 292, 236, 99, 112
672832571, -4958, 3063, 13943, 6329, 2210, 2060, -3022, 72, 537, 34, 53, 57, 90, 363, 292, 236, 99, 112
672833366, -4958, 3063, 13943, 6329, 2210, 2060, -3022, 72, 537, 34, 53, 57, 90, 363, 292, 236, 99, 112
672834171, -4958, 3063, 13943, 6329, 2210, 2060, -3022, 72, 537, 34, 53, 57, 90, 363, 292, 236, 99, 112
672834998, -4958, 3063, 13943, 6329, 2210, 2060, -3022, 72, 537, 34, 53, 57, 90, 363, 292, 236, 99, 112
672840064, -4958, 3063, 13943, 6329, 2210, 2060, -3022, 72, 537, 34, 53, 57, 90, 363, 292, 236, 99, 112
672841006, -4976, 3023, 13974, 6264, 2253, 2058, -3020, 149, 509, 5, 53, 57, 90, 363, 292, 236, 99, 112
672841813, -4976, 3023, 13974, 6264, 2253, 2058, -3020, 149, 509, 5, 49, 54, 89, 354, 241, 177, 97, 101
672842646, -4976, 3023, 13974, 6264, 2253, 2058, -3020, 149, 509, 5, 49, 54, 89, 354, 241, 177, 97, 101
672847672, -4976, 3023, 13974, 6264, 2253, 2058, -3020, 149, 509, 5, 49, 54, 89, 354, 241, 177, 97, 101
672848485, -4976, 3023, 13974, 6264, 2253, 2058, -3020, 149, 509, 5, 49, 54, 89, 354, 241, 177, 97, 101
672849294, -4976, 3023, 13974, 6264, 2253, 2058, -3020, 149, 509, 5, 49, 54, 89, 354, 241, 177, 97, 101
