Timestamp, Orientation x, Orientation y, Orientation z, Orientation w, Acceleration x, Acceleration y, Acceleration z, Rotation x, Rotation y, Rotation z, EMG 0, EMG 1, EMG 2, EMG 3, EMG 4, EMG 5, EMG 6, EMG 7
583215822, -5866, 13869, 3415, 5478, 3937, 994, -2286, 93, 93, 45, 0, 0, 0, 0, 0, 0, 0, 0
583223210, -5885, 13859, 3412, 5485, 3920, 994, -2302, 90, 81, 22, 0, 0, 0, 0, 0, 0, 0, 0
583245659, -5896, 13851, 3410, 5493, 3906, 1018, -2285, 60, 71, 4, 0, 0, 0, 0, 0, 0, 0, 0
583260675, -5907, 13844, 3410, 5499, 3904, 1022, -2281, 56, 50, -3, 0, 0, 0, 0, 0, 0, 0, 0
583284566, -5917, 13837, 3413, 5504, 3915, 1013, -2295, 59, 41, -10, 0, 0, 0, 0, 0, 0, 0, 0
583285291, -5917, 13837, 3413, 5504, 3915, 1013, -2295, 59, 41, -10, 43, 73, 47, 65, 99, 121, 139, 147
583286100, -5917, 13837, 3413, 5504, 3915, 1013, -2295, 59, 41, -10, 43, 73, 47, 65, 99, 121, 139, 147
583306990, -5924, 13832, 3416, 5507, 3921, 1007, -2300, 47, 28, -13, 43, 73, 47, 65, 99, 121, 139, 147
583307769, -5924, 13832, 3416, 5507, 3921, 1007, -2300, 47, 28, -13, 43, 67, 44, 61, 104, 125, 159, 137
583308579, -5924, 13832, 3416, 5507, 3921, 1007, -2300, 47, 28, -13, 43, 67, 44, 61, 104, 125, 159, 137
583320764, -5928, 13826, 3421, 5515, 3942, 1020, -2290, 30, 44, -42, 43, 67, 44, 61, 104, 125, 159, 137
583328772, -5928, 13826, 3421, 5515, 3942, 1020, -2290, 30, 44, -42, 42, 61, 39, 56, 149, 136, 160, 123
583329550, -5928, 13826, 3421, 5515, 3942, 1020, -2290, 30, 44, -42, 42, 61, 39, 56, 149, 136, 160, 123
583344475, -5935, 13813, 3432, 5533, 4001, 1091, -2287, 63, 95, -91, 42, 61, 39, 56, 149, 136, 160, 123
583345266, -5935, 13813, 3432, 5533, 4001, 1091, -2287, 63, 95, -91, 39, 51, 35, 52, 135, 129, 153, 110
583346082, -5935, 13813, 3432, 5533, 4001, 1091, -2287, 63, 95, -91, 39, 51, 35, 52, 135, 129, 153, 110
583367012, -5946, 13784, 3456, 5579, 3911, 1130, -2381, 102, 232, -220, 39, 51, 35, 52, 135, 129, 153, 110
583367805, -5946, 13784, 3456, 5579, 3911, 1130, -2381, 102, 232, -220, 39, 43, 34, 45, 138, 129, 157, 98
583368605, -5946, 13784, 3456, 5579, 3911, 1130, -2381, 102, 232, -220, 39, 43, 34, 45, 138, 129, 157, 98
583380664, -5959, 13750, 3481, 5633, 3762, 1151, -2422, 112, 282, -241, 39, 43, 34, 45, 138, 129, 157, 98
583388772, -5959, 13750, 3481, 5633, 3762, 1151, -2422, 112, 282, -241, 36, 41, 30, 32, 129, 106, 162, 99
583389551, -5959, 13750, 3481, 5633, 3762, 1151, -2422, 112, 282, -241, 36, 41, 30, 32, 129, 106, 162, 99
583404485, -5991, 13707, 3519, 5680, 3831, 1205, -2360, 251, 263, -265, 36, 41, 30, 32, 129, 106, 162, 99
583405268, -5991, 13707, 3519, 5680, 3831, 1205, -2360, 251, 263, -265, 30, 36, 31, 31, 128, 110, 154, 109
583406110, -5991, 13707, 3519, 5680, 3831, 1205, -2360, 251, 263, -265, 30, 36, 31, 31, 128, 110, 154, 109
583427030, -6042, 13653, 3583, 5716, 3830, 1392, -2278, 429, 207, -339, 30, 36, 31, 31, 128, 110, 154, 109
583427821, -6042, 13653, 3583, 5716, 3830, 1392, -2278, 429, 207, -339, 30, 47, 38, 29, 71, 93, 139, 121
583428646, -6042, 13653, 3583, 5716, 3830, 1392, -2278, 429, 207, -339, 30, 47, 38, 29, 71, 93, 139, 121
583440655, -6087, 13593, 3677, 5751, 3790, 1562, -2338, 474, 138, -495, 30, 47, 38, 29, 71, 93, 139, 121
583448816, -6087, 13593, 3677, 5751, 3790, 1562, -2338, 474, 138, -495, 33, 59, 41, 30, 66, 89, 139, 131
583449693, -6087, 13593, 3677, 5751, 3790, 1562, -2338, 474, 138, -495, 33, 59, 41, 30, 66, 89, 139, 131
583464518, -6105, 13535, 3802, 5788, 3742, 1648, -2429, 406, 48, -697, 33, 59, 41, 30, 66, 89, 139, 131
583465282, -6105, 13535, 3802, 5788, 3742, 1648, -2429, 406, 48, -697, 35, 67, 46, 30, 63, 90, 132, 136
583466129, -6105, 13535, 3802, 5788, 3742, 1648, -2429, 406, 48, -697, 35, 67, 46, 30, 63, 90, 132, 136
583487013, -6097, 13479, 3962, 5819, 3755, 1626, -2413, 356, -89, -896, 35, 67, 46, 30, 63, 90, 132, 136
583487744, -6097, 13479, 3962, 5819, 3755, 1626, -2413, 356, -89, -896, 35, 71, 48, 32, 60, 80, 137, 129
583488578, -6097, 13479, 3962, 5819, 3755, 1626, -2413, 356, -89, -896, 35, 71, 48, 32, 60, 80, 137, 129
583500634, -6042, 13428, 4157, 5858, 3756, 1706, -2394, 186, -199, -1157, 35, 71, 48, 32, 60, 80, 137, 129
583508797, -6042, 13428, 4157, 5858, 3756, 1706, -2394, 186, -199, -1157, 37, 72, 51, 30, 53, 64, 124, 128
583509595, -6042, 13428, 4157, 5858, 3756, 1706, -2394, 186, -199, -1157, 37, 72, 51, 30, 53, 64, 124, 128
583524503, -5956, 13372, 4381, 5910, 3821, 1782, -2428, 95, -235, -1387, 37, 72, 51, 30, 53, 64, 124, 128
583525293, -5956, 13372, 4381, 5910, 3821, 1782, -2428, 95, -235, -1387, 37, 65, 45, 29, 55, 80, 133, 125
583526112, -5956, 13372, 4381, 5910, 3821, 1782, -2428, 95, -235, -1387, 37, 65, 45, 29, 55, 80, 133, 125
583547027, -5862, 13299, 4636, 5975, 3808, 1818, -2435, 138, -217, -1592, 37, 65, 45, 29, 55, 80, 133, 125
583547768, -5862, 13299, 4636, 5975, 3808, 1818, -2435, 138, -217, -1592, 37, 57, 45, 31, 58, 80, 135, 114
583548581, -5862, 13299, 4636, 5975, 3808, 1818, -2435, 138, -217, -1592, 37, 57, 45, 31, 58, 80, 135, 114
583560646, -5763, 13208, 4925, 6042, 3807, 1885, -2370, 218, -245, -1799, 37, 57, 45, 31, 58, 80, 135, 114
583568748, -5763, 13208, 4925, 6042, 3807, 1885, -2370, 218, -245, -1799, 38, 51, 42, 32, 74, 87, 145, 108
583569546, -5763, 13208, 4925, 6042, 3807, 1885, -2370, 218, -245, -1799, 38, 51, 42, 32, 74, 87, 145, 108
583584443, -5657, 13097, 5249, 6110, 3790, 1978, -2321, 290, -282, -2000, 38, 51, 42, 32, 74, 87, 145, 108
583585231, -5657, 13097, 5249, 6110, 3790, 1978, -2321, 290, -282, -2000, 39, 48, 42, 34, 82, 103, 163, 110
583586099, -5657, 13097, 5249, 6110, 3790, 1978, -2321, 290, -282, -2000, 39, 48, 42, 34, 82, 103, 163, 110
583606977, -5542, 12965, 5605, 6180, 3781, 2021, -2352, 356, -304, -2205, 39, 48, 42, 34, 82, 103, 163, 110
583607894, -5542, 12965, 5605, 6180, 3781, 2021, -2352, 356, -304, -2205, 39, 43, 35, 33, 81, 104, 154, 103
583608589, -5542, 12965, 5605, 6180, 3781, 2021, -2352, 356, -304, -2205, 39, 43, 35, 33, 81, 104, 154, 103
583620662, -5406, 12821, 5978, 6250, 3787, 2046, -2365, 326, -352, -2345, 39, 43, 35, 33, 81, 104, 154, 103
583628760, -5406, 12821, 5978, 6250, 3787, 2046, -2365, 326, -352, -2345, 38, 57, 42, 33, 79, 95, 155, 96
583629558, -5406, 12821, 5978, 6250, 3787, 2046, -2365, 326, -352, -2345, 38, 57, 42, 33, 79, 95, 155, 96
583644468, -5235, 12676, 6351, 6323, 3730, 2056, -2375, 161, -410, -2434, 38, 57, 42, 33, 79, 95, 155, 96
583645257, -5235, 12676, 6351, 6323, 3730, 2056, -2375, 161, -410, -2434, 38, 61, 42, 35, 80, 101, 173, 94
583646057, -5235, 12676, 6351, 6323, 3730, 2056, -2375, 161, -410, -2434, 38, 61, 42, 35, 80, 101, 173, 94
583667018, -5020, 12532, 6722, 6401, 3777, 2048, -2344, -37, -480, -2525, 38, 61, 42, 35, 80, 101, 173, 94
583667826, -5020, 12532, 6722, 6401, 3777, 2048, -2344, -37, -480, -2525, 37, 60, 40, 33, 60, 92, 176, 98
583668621, -5020, 12532, 6722, 6401, 3777, 2048, -2344, -37, -480, -2525, 37, 60, 40, 33, 60, 92, 176, 98
583680658, -4778, 12378, 7094, 6484, 3801, 2024, -2305, -149, -502, -2617, 37, 60, 40, 33, 60, 92, 176, 98
583688768, -4778, 12378, 7094, 6484, 3801, 2024, -2305, -149, -502, -2617, 38, 65, 43, 30, 51, 92, 155, 92
583689579, -4778, 12378, 7094, 6484, 3801, 2024, -2305, -149, -502, -2617, 38, 65, 43, 30, 51, 92, 155, 92
583704486, -4523, 12207, 7464, 6575, 3771, 1998, -2306, -203, -460, -2694, 38, 65, 43, 30, 51, 92, 155, 92
583705266, -4523, 12207, 7464, 6575, 3771, 1998, -2306, -203, -460, -2694, 50, 77, 44, 38, 66, 116, 162, 89
583706084, -4523, 12207, 7464, 6575, 3771, 1998, -2306, -203, -460, -2694, 50, 77, 44, 38, 66, 116, 162, 89
583726965, -4269, 12011, 7834, 6674, 3720, 2029, -2339, -175, -367, -2767, 50, 77, 44, 38, 66, 116, 162, 89
583727747, -4269, 12011, 7834, 6674, 3720, 2029, -2339, -175, -367, -2767, 50, 70, 42, 42, 66, 122, 165, 86
583728568, -4269, 12011, 7834, 6674, 3720, 2029, -2339, -175, -367, -2767, 50, 70, 42, 42, 66, 122, 165, 86
583740617, -3970, 11787, 8220, 6793, 3627, 1944, -2353, -222, -363, -2852, 50, 70, 42, 42, 66, 122, 165, 86
583748753, -3970, 11787, 8220, 6793, 3627, 1944, -2353, -222, -363, -2852, 49, 74, 44, 45, 65, 129, 168, 90
583749563, -3970, 11787, 8220, 6793, 3627, 1944, -2353, -222, -363, -2852, 49, 74, 44, 45, 65, 129, 168, 90
583764489, -3662, 11556, 8586, 6910, 3542, 1951, -2398, -301, -350, -2835, 49, 74, 44, 45, 65, 129, 168, 90
583765293, -3662, 11556, 8586, 6910, 3542, 1951, -2398, -301, -350, -2835, 50, 75, 45, 49, 67, 133, 173, 88
583766085, -3662, 11556, 8586, 6910, 3542, 1951, -2398, -301, -350, -2835, 50, 75, 45, 49, 67, 133, 173, 88
583786958, -3364, 11307, 8941, 7023, 3438, 1949, -2327, -275, -287, -2848, 50, 75, 45, 49, 67, 133, 173, 88
583787746, -3364, 11307, 8941, 7023, 3438, 1949, -2327, -275, -287, -2848, 56, 87, 62, 73, 98, 135, 194, 95
583788549, -3364, 11307, 8941, 7023, 3438, 1949, -2327, -275, -287, -2848, 56, 87, 62, 73, 98, 135, 194, 95
583800630, -3082, 11028, 9283, 7149, 3259, 2046, -2198, -254, -106, -2881, 56, 87, 62, 73, 98, 135, 194, 95
583808787, -3082, 11028, 9283, 7149, 3259, 2046, -2198, -254, -106, -2881, 59, 83, 72, 117, 218, 198, 207, 108
583809595, -3082, 11028, 9283, 7149, 3259, 2046, -2198, -254, -106, -2881, 59, 83, 72, 117, 218, 198, 207, 108
583824511, -2839, 10720, 9637, 7249, 3160, 2034, -2246, 18, -12, -2919, 59, 83, 72, 117, 218, 198, 207, 108
583825285, -2839, 10720, 9637, 7249, 3160, 2034, -2246, 18, -12, -2919, 74, 91, 85, 148, 289, 358, 232, 123
583826109, -2839, 10720, 9637, 7249, 3160, 2034, -2246, 18, -12, -2919, 74, 91, 85, 148, 289, 358, 232, 123
583846984, -2607, 10413, 9990, 7306, 3075, 1886, -2320, 169, -133, -2884, 74, 91, 85, 148, 289, 358, 232, 123
583847770, -2607, 10413, 9990, 7306, 3075, 1886, -2320, 169, -133, -2884, 87, 90, 93, 157, 300, 426, 276, 147
583848579, -2607, 10413, 9990, 7306, 3075, 1886, -2320, 169, -133, -2884, 87, 90, 93, 157, 300, 426, 276, 147
583860632, -2366, 10110, 10319, 7357, 2907, 1860, -2416, 73, -155, -2820, 87, 90, 93, 157, 300, 426, 276, 147
583868740, -2366, 10110, 10319, 7357, 2907, 1860, -2416, 73, -155, -2820, 107, 102, 105, 176, 340, 512, 279, 158
583869545, -2366, 10110, 10319, 7357, 2907, 1860, -2416, 73, -155, -2820, 107, 102, 105, 176, 340, 512, 279, 158
583883799, -2129, 9801, 10633, 7399, 2727, 1991, -2329, 89, -148, -2771, 107, 102, 105, 176, 340, 512, 279, 158
583884588, -2129, 9801, 10633, 7399, 2727, 1991, -2329, 89, -148, -2771, 143, 103, 112, 200, 377, 552, 303, 179
583890564, -2129, 9801, 10633, 7399, 2727, 1991, -2329, 89, -148, -2771, 143, 103, 112, 200, 377, 552, 303, 179
583907004, -1893, 9497, 10939, 7415, 2567, 2145, -2407, 154, -235, -2702, 143, 103, 112, 200, 377, 552, 303, 179
583907745, -1893, 9497, 10939, 7415, 2567, 2145, -2407, 154, -235, -2702, 154, 103, 109, 182, 336, 649, 391, 192
583908564, -1893, 9497, 10939, 7415, 2567, 2145, -2407, 154, -235, -2702, 154, 103, 109, 182, 336, 649, 391, 192
583920613, -1630, 9203, 11218, 7431, 2583, 2141, -2417, -19, -351, -2671, 154, 103, 109, 182, 336, 649, 391, 192
583928774, -1630, 9203, 11218, 7431, 2583, 2141, -2417, -19, -351, -2671, 155, 97, 101, 164, 302, 584, 379, 194
583929554, -1630, 9203, 11218, 7431, 2583, 2141, -2417, -19, -351, -2671, 155, 97, 101, 164, 302, 584, 379, 194
583943833, -1332, 8910, 11467, 7467, 2458, 2148, -2381, -291, -419, -2693, 155, 97, 101, 164, 302, 584, 379, 194
583944618, -1332, 8910, 11467, 7467, 2458, 2148, -2381, -291, -419, -2693, 167, 112, 113, 177, 319, 594, 381, 203
583950595, -1332, 8910, 11467, 7467, 2458, 2148, -2381, -291, -419, -2693, 167, 112, 113, 177, 319, 594, 381, 203
583966981, -1024, 8634, 11674, 7518, 2288, 2089, -2409, -514, -430, -2541, 167, 112, 113, 177, 319, 594, 381, 203
583967789, -1024, 8634, 11674, 7518, 2288, 2089, -2409, -514, -430, -2541, 158, 105, 106, 164, 280, 545, 385, 206
583968585, -1024, 8634, 11674, 7518, 2288, 2089, -2409, -514, -430, -2541, 158, 105, 106, 164, 280, 545, 385, 206
583980646, -755, 8368, 11854, 7569, 2272, 1985, -2251, -482, -315, -2348, 158, 105, 106, 164, 280, 545, 385, 206
583988731, -755, 8368, 11854, 7569, 2272, 1985, -2251, -482, -315, -2348, 148, 97, 94, 131, 247, 539, 399, 248
583989555, -755, 8368, 11854, 7569, 2272, 1985, -2251, -482, -315, -2348, 148, 97, 94, 131, 247, 539, 399, 248
584003125, -527, 8109, 12032, 7589, 2001, 1887, -2270, -257, -236, -2199, 148, 97, 94, 131, 247, 539, 399, 248
584011246, -527, 8109, 12032, 7589, 2001, 1887, -2270, -257, -236, -2199, 146, 98, 95, 136, 247, 465, 327, 248
584012021, -527, 8109, 12032, 7589, 2001, 1887, -2270, -257, -236, -2199, 146, 98, 95, 136, 247, 465, 327, 248
584026072, -320, 7867, 12209, 7573, 1814, 1966, -2261, -58, -301, -2058, 146, 98, 95, 136, 247, 465, 327, 248
584033791, -320, 7867, 12209, 7573, 1814, 1966, -2261, -58, -301, -2058, 143, 104, 98, 138, 236, 511, 420, 251
584034593, -320, 7867, 12209, 7573, 1814, 1966, -2261, -58, -301, -2058, 143, 104, 98, 138, 236, 511, 420, 251
584040774, -137, 7653, 12371, 7535, 1729, 1986, -2287, 47, -324, -1838, 143, 104, 98, 138, 236, 511, 420, 251
584048766, -137, 7653, 12371, 7535, 1729, 1986, -2287, 47, -324, -1838, 148, 100, 91, 131, 223, 492, 426, 252
584049531, -137, 7653, 12371, 7535, 1729, 1986, -2287, 47, -324, -1838, 148, 100, 91, 131, 223, 492, 426, 252
584063138, -2, 7484, 12511, 7475, 1614, 2002, -2338, 16, -280, -1590, 148, 100, 91, 131, 223, 492, 426, 252
584071304, -2, 7484, 12511, 7475, 1614, 2002, -2338, 16, -280, -1590, 164, 100, 91, 133, 227, 492, 441, 280
584072095, -2, 7484, 12511, 7475, 1614, 2002, -2338, 16, -280, -1590, 164, 100, 91, 133, 227, 492, 441, 280
584086934, 106, 7351, 12627, 7411, 1465, 2000, -2340, 35, -247, -1273, 164, 100, 91, 133, 227, 492, 441, 280
584087735, 106, 7351, 12627, 7411, 1465, 2000, -2340, 35, -247, -1273, 157, 98, 86, 130, 214, 492, 459, 252
584088559, 106, 7351, 12627, 7411, 1465, 2000, -2340, 35, -247, -1273, 157, 98, 86, 130, 214, 492, 459, 252
584100625, 181, 7257, 12712, 7357, 1362, 1951, -2383, -35, -159, -937, 157, 98, 86, 130, 214, 492, 459, 252
584108787, 181, 7257, 12712, 7357, 1362, 1951, -2383, -35, -159, -937, 156, 103, 91, 125, 204, 501, 466, 249
584109580, 181, 7257, 12712, 7357, 1362, 1951, -2383, -35, -159, -937, 156, 103, 91, 125, 204, 501, 466, 249
584139566, 215, 7206, 12758, 7326, 1250, 1915, -2342, -122, -28, -518, 156, 103, 91, 125, 204, 501, 466, 249
584140233, 215, 7206, 12758, 7326, 1250, 1915, -2342, -122, -28, -518, 161, 97, 89, 123, 197, 525, 389, 244
584141039, 215, 7206, 12758, 7326, 1250, 1915, -2342, -122, -28, -518, 161, 97, 89, 123, 197, 525, 389, 244
584155870, 206, 7200, 12780, 7294, 1187, 1903, -2346, -71, 65, -137, 161, 97, 89, 123, 197, 525, 389, 244
584156696, -2607, 10413, 9990, 7306, 3075, 1886, -2320, 169, -133, -2884, 161, 97, 89, 123, 197, 525, 389, 244
584157483, -2607, 10413, 9990, 7306, 3075, 1886, -2320, 169, -133, -2884, 87, 90, 93, 157, 300, 426, 276, 147
584158291, -2607, 10413, 9990, 7306, 3075, 1886, -2320, 169, -133, -2884, 87, 90, 93, 157, 300, 426, 276, 147
584163409, -2366, 10110, 10319, 7357, 2907, 1860, -2416, 73, -155, -2820, 87, 90, 93, 157, 300, 426, 276, 147
584164175, -2366, 10110, 10319, 7357, 2907, 1860, -2416, 73, -155, -2820, 107, 102, 105, 176, 340, 512, 279, 158
584164985, -2366, 10110, 10319, 7357, 2907, 1860, -2416, 73, -155, -2820, 107, 102, 105, 176, 340, 512, 279, 158
584165820, -2366, 10110, 10319, 7357, 2907, 1860, -2416, 73, -155, -2820, 107, 102, 105, 176, 340, 512, 279, 158
584169420, -2366, 10110, 10319, 7357, 2907, 1860, -2416, 73, -155, -2820, 107, 102, 105, 176, 340, 512, 279, 158
584170222, -2366, 10110, 10319, 7357, 2907, 1860, -2416, 73, -155, -2820, 107, 102, 105, 176, 340, 512, 279, 158
584171018, -2366, 10110, 10319, 7357, 2907, 1860, -2416, 73, -155, -2820, 107, 102, 105, 176, 340, 512, 279, 158
584183154, 87, 7290, 12797, 7176, 1127, 2023, -2350, 241, 110, 416, 107, 102, 105, 176, 340, 512, 279, 158
584191242, 87, 7290, 12797, 7176, 1127, 2023, -2350, 241, 110, 416, 114, 85, 87, 115, 206, 495, 236, 144
584192053, 87, 7290, 12797, 7176, 1127, 2023, -2350, 241, 110, 416, 114, 85, 87, 115, 206, 495, 236, 144
584205642, -32, 7354, 12771, 7157, 1403, 2071, -2182, 202, 312, 561, 114, 85, 87, 115, 206, 495, 236, 144
584213736, -32, 7354, 12771, 7157, 1403, 2071, -2182, 202, 312, 561, 135, 80, 82, 112, 220, 453, 215, 146
584214534, -32, 7354, 12771, 7157, 1403, 2071, -2182, 202, 312, 561, 135, 80, 82, 112, 220, 453, 215, 146
584220759, -148, 7440, 12719, 7160, 1504, 2088, -1969, 135, 235, 703, 135, 80, 82, 112, 220, 453, 215, 146
584228759, -148, 7440, 12719, 7160, 1504, 2088, -1969, 135, 235, 703, 128, 82, 86, 108, 212, 380, 218, 139
584229588, -148, 7440, 12719, 7160, 1504, 2088, -1969, 135, 235, 703, 128, 82, 86, 108, 212, 380, 218, 139
584243152, -232, 7505, 12696, 7131, 1106, 2296, -2346, 204, 304, 678, 128, 82, 86, 108, 212, 380, 218, 139
584251239, -232, 7505, 12696, 7131, 1106, 2296, -2346, 204, 304, 678, 128, 83, 82, 110, 204, 453, 206, 154
584252025, -232, 7505, 12696, 7131, 1106, 2296, -2346, 204, 304, 678, 128, 83, 82, 110, 204, 453, 206, 154
584265633, -302, 7571, 12680, 7087, 1160, 2304, -2468, 231, 210, 631, 128, 83, 82, 110, 204, 453, 206, 154
584273730, -302, 7571, 12680, 7087, 1160, 2304, -2468, 231, 210, 631, 141, 88, 73, 97, 160, 445, 218, 149
584274493, -302, 7571, 12680, 7087, 1160, 2304, -2468, 231, 210, 631, 141, 88, 73, 97, 160, 445, 218, 149
584280677, -384, 7634, 12663, 7045, 1415, 2222, -2347, 283, 175, 552, 141, 88, 73, 97, 160, 445, 218, 149
584288713, -384, 7634, 12663, 7045, 1415, 2222, -2347, 283, 175, 552, 142, 83, 69, 84, 156, 436, 216, 146
584289509, -384, 7634, 12663, 7045, 1415, 2222, -2347, 283, 175, 552, 142, 83, 69, 84, 156, 436, 216, 146
584303132, -443, 7678, 12653, 7011, 1411, 2359, -2352, 267, 139, 447, 142, 83, 69, 84, 156, 436, 216, 146
584311220, -443, 7678, 12653, 7011, 1411, 2359, -2352, 267, 139, 447, 123, 79, 65, 79, 111, 403, 187, 122
584312025, -443, 7678, 12653, 7011, 1411, 2359, -2352, 267, 139, 447, 123, 79, 65, 79, 111, 403, 187, 122
584328322, -471, 7709, 12645, 6989, 1403, 2401, -2402, 149, 96, 328, 123, 79, 65, 79, 111, 403, 187, 122
584329107, -320, 7867, 12209, 7573, 1814, 1966, -2261, -58, -301, -2058, 123, 79, 65, 79, 111, 403, 187, 122
584329912, -320, 7867, 12209, 7573, 1814, 1966, -2261, -58, -301, -2058, 143, 104, 98, 138, 236, 511, 420, 251
584330758, -320, 7867, 12209, 7573, 1814, 1966, -2261, -58, -301, -2058, 143, 104, 98, 138, 236, 511, 420, 251
584335872, -137, 7653, 12371, 7535, 1729, 1986, -2287, 47, -324, -1838, 143, 104, 98, 138, 236, 511, 420, 251
584336680, -137, 7653, 12371, 7535, 1729, 1986, -2287, 47, -324, -1838, 148, 100, 91, 131, 223, 492, 426, 252
584337480, -137, 7653, 12371, 7535, 1729, 1986, -2287, 47, -324, -1838, 148, 100, 91, 131, 223, 492, 426, 252
584338362, -137, 7653, 12371, 7535, 1729, 1986, -2287, 47, -324, -1838, 148, 100, 91, 131, 223, 492, 426, 252
584343242, -137, 7653, 12371, 7535, 1729, 1986, -2287, 47, -324, -1838, 148, 100, 91, 131, 223, 492, 426, 252
584344006, -137, 7653, 12371, 7535, 1729, 1986, -2287, 47, -324, -1838, 148, 100, 91, 131, 223, 492, 426, 252
584344813, -137, 7653, 12371, 7535, 1729, 1986, -2287, 47, -324, -1838, 148, 100, 91, 131, 223, 492, 426, 252
584345636, -137, 7653, 12371, 7535, 1729, 1986, -2287, 47, -324, -1838, 148, 100, 91, 131, 223, 492, 426, 252
584350707, -137, 7653, 12371, 7535, 1729, 1986, -2287, 47, -324, -1838, 148, 100, 91, 131, 223, 492, 426, 252
584351627, -2, 7484, 12511, 7475, 1614, 2002, -2338, 16, -280, -1590, 148, 100, 91, 131, 223, 492, 426, 252
584352439, -2, 7484, 12511, 7475, 1614, 2002, -2338, 16, -280, -1590, 164, 100, 91, 133, 227, 492, 441, 280
584353273, -2, 7484, 12511, 7475, 1614, 2002, -2338, 16, -280, -1590, 164, 100, 91, 133, 227, 492, 441, 280
584358271, -2, 7484, 12511, 7475, 1614, 2002, -2338, 16, -280, -1590, 164, 100, 91, 133, 227, 492, 441, 280
584359099, -2, 7484, 12511, 7475, 1614, 2002, -2338, 16, -280, -1590, 164, 100, 91, 133, 227, 492, 441, 280
584359912, -2, 7484, 12511, 7475, 1614, 2002, -2338, 16, -280, -1590, 164, 100, 91, 133, 227, 492, 441, 280
584360727, -2, 7484, 12511, 7475, 1614, 2002, -2338, 16, -280, -1590, 164, 100, 91, 133, 227, 492, 441, 280
584365719, -2, 7484, 12511, 7475, 1614, 2002, -2338, 16, -280, -1590, 164, 100, 91, 133, 227, 492, 441, 280
584366549, -2, 7484, 12511, 7475, 1614, 2002, -2338, 16, -280, -1590, 164, 100, 91, 133, 227, 492, 441, 280
584367357, -2, 7484, 12511, 7475, 1614, 2002, -2338, 16, -280, -1590, 164, 100, 91, 133, 227, 492, 441, 280
584368186, -2, 7484, 12511, 7475, 1614, 2002, -2338, 16, -280, -1590, 164, 100, 91, 133, 227, 492, 441, 280
584373233, -2, 7484, 12511, 7475, 1614, 2002, -2338, 16, -280, -1590, 164, 100, 91, 133, 227, 492, 441, 280
584374187, 106, 7351, 12627, 7411, 1465, 2000, -2340, 35, -247, -1273, 164, 100, 91, 133, 227, 492, 441, 280
584375031, 106, 7351, 12627, 7411, 1465, 2000, -2340, 35, -247, -1273, 157, 98, 86, 130, 214, 492, 459, 252
584375817, 106, 7351, 12627, 7411, 1465, 2000, -2340, 35, -247, -1273, 157, 98, 86, 130, 214, 492, 459, 252
584380813, 106, 7351, 12627, 7411, 1465, 2000, -2340, 35, -247, -1273, 157, 98, 86, 130, 214, 492, 459, 252
584381616, 106, 7351, 12627, 7411, 1465, 2000, -2340, 35, -247, -1273, 157, 98, 86, 130, 214, 492, 459, 252
584382440, 106, 7351, 12627, 7411, 1465, 2000, -2340, 35, -247, -1273, 157, 98, 86, 130, 214, 492, 459, 252
584383276, 106, 7351, 12627, 7411, 1465, 2000, -2340, 35, -247, -1273, 157, 98, 86, 130, 214, 492, 459, 252
584388231, 106, 7351, 12627, 7411, 1465, 2000, -2340, 35, -247, -1273, 157, 98, 86, 130, 214, 492, 459, 252
584389024, 106, 7351, 12627, 7411, 1465, 2000, -2340, 35, -247, -1273, 157, 98, 86, 130, 214, 492, 459, 252
584389820, 106, 7351, 12627, 7411, 1465, 2000, -2340, 35, -247, -1273, 157, 98, 86, 130, 214, 492, 459, 252
584390648, 106, 7351, 12627, 7411, 1465, 2000, -2340, 35, -247, -1273, 157, 98, 86, 130, 214, 492, 459, 252
584395709, 106, 7351, 12627, 7411, 1465, 2000, -2340, 35, -247, -1273, 157, 98, 86, 130, 214, 492, 459, 252
584396650, 181, 7257, 12712, 7357, 1362, 1951, -2383, -35, -159, -937, 157, 98, 86, 130, 214, 492, 459, 252
584397451, 181, 7257, 12712, 7357, 1362, 1951, -2383, -35, -159, -937, 156, 103, 91, 125, 204, 501, 466, 249
584398365, 181, 7257, 12712, 7357, 1362, 1951, -2383, -35, -159, -937, 156, 103, 91, 125, 204, 501, 466, 249
584403288, 181, 7257, 12712, 7357, 1362, 1951, -2383, -35, -159, -937, 156, 103, 91, 125, 204, 501, 466, 249
584404101, 181, 7257, 12712, 7357, 1362, 1951, -2383, -35, -159, -937, 156, 103, 91, 125, 204, 501, 466, 249
584404911, 181, 7257, 12712, 7357, 1362, 1951, -2383, -35, -159, -937, 156, 103, 91, 125, 204, 501, 466, 249
584405744, 181, 7257, 12712, 7357, 1362, 1951, -2383, -35, -159, -937, 156, 103, 91, 125, 204, 501, 466, 249
584410713, 181, 7257, 12712, 7357, 1362, 1951, -2383, -35, -159, -937, 156, 103, 91, 125, 204, 501, 466, 249
584411503, 181, 7257, 12712, 7357, 1362, 1951, -2383, -35, -159, -937, 156, 103, 91, 125, 204, 501, 466, 249
584412360, 181, 7257, 12712, 7357, 1362, 1951, -2383, -35, -159, -937, 156, 103, 91, 125, 204, 501, 466, 249
584413124, 181, 7257, 12712, 7357, 1362, 1951, -2383, -35, -159, -937, 156, 103, 91, 125, 204, 501, 466, 249
584418243, 181, 7257, 12712, 7357, 1362, 1951, -2383, -35, -159, -937, 156, 103, 91, 125, 204, 501, 466, 249
584419185, 215, 7206, 12758, 7326, 1250, 1915, -2342, -122, -28, -518, 156, 103, 91, 125, 204, 501, 466, 249
584419997, 215, 7206, 12758, 7326, 1250, 1915, -2342, -122, -28, -518, 161, 97, 89, 123, 197, 525, 389, 244
584420809, 215, 7206, 12758, 7326, 1250, 1915, -2342, -122, -28, -518, 161, 97, 89, 123, 197, 525, 389, 244
584425836, 215, 7206, 12758, 7326, 1250, 1915, -2342, -122, -28, -518, 161, 97, 89, 123, 197, 525, 389, 244
584426700, 215, 7206, 12758, 7326, 1250, 1915, -2342, -122, -28, -518, 161, 97, 89, 123, 197, 525, 389, 244
584427474, 215, 7206, 12758, 7326, 1250, 1915, -2342, -122, -28, -518, 161, 97, 89, 123, 197, 525, 389, 244
584428320, 215, 7206, 12758, 7326, 1250, 1915, -2342, -122, -28, -518, 161, 97, 89, 123, 197, 525, 389, 244
584433293, 215, 7206, 12758, 7326, 1250, 1915, -2342, -122, -28, -518, 161, 97, 89, 123, 197, 525, 389, 244
584434093, 215, 7206, 12758, 7326, 1250, 1915, -2342, -122, -28, -518, 161, 97, 89, 123, 197, 525, 389, 244
584434872, 215, 7206, 12758, 7326, 1250, 1915, -2342, -122, -28, -518, 161, 97, 89, 123, 197, 525, 389, 244
584435681, 215, 7206, 12758, 7326, 1250, 1915, -2342, -122, -28, -518, 161, 97, 89, 123, 197, 525, 389, 244
584440779, 215, 7206, 12758, 7326, 1250, 1915, -2342, -122, -28, -518, 161, 97, 89, 123, 197, 525, 389, 244
584441695, 206, 7200, 12780, 7294, 1187, 1903, -2346, -71, 65, -137, 161, 97, 89, 123, 197, 525, 389, 244
584442469, 206, 7200, 12780, 7294, 1187, 1903, -2346, -71, 65, -137, 145, 81, 77, 102, 191, 507, 355, 224
584443359, 206, 7200, 12780, 7294, 1187, 1903, -2346, -71, 65, -137, 145, 81, 77, 102, 191, 507, 355, 224
584448370, 206, 7200, 12780, 7294, 1187, 1903, -2346, -71, 65, -137, 145, 81, 77, 102, 191, 507, 355, 224
584449123, 206, 7200, 12780, 7294, 1187, 1903, -2346, -71, 65, -137, 145, 81, 77, 102, 191, 507, 355, 224
584449928, 206, 7200, 12780, 7294, 1187, 1903, -2346, -71, 65, -137, 145, 81, 77, 102, 191, 507, 355, 224
584450779, 206, 7200, 12780, 7294, 1187, 1903, -2346, -71, 65, -137, 145, 81, 77, 102, 191, 507, 355, 224
584454435, 206, 7200, 12780, 7294, 1187, 1903, -2346, -71, 65, -137, 145, 81, 77, 102, 191, 507, 355, 224
584455224, 206, 7200, 12780, 7294, 1187, 1903, -2346, -71, 65, -137, 145, 81, 77, 102, 191, 507, 355, 224
584456022, 206, 7200, 12780, 7294, 1187, 1903, -2346, -71, 65, -137, 145, 81, 77, 102, 191, 507, 355, 224
584460589, -190, 7807, 12588, 6998, 1365, 2384, -2366, -242, -273, -215, 145, 81, 77, 102, 191, 507, 355, 224
584476312, -190, 7807, 12588, 6998, 1365, 2384, -2366, -242, -273, -215, 479, 412, 176, 74, 106, 128, 141, 310
584477062, -190, 7807, 12588, 6998, 1365, 2384, -2366, -242, -273, -215, 479, 412, 176, 74, 106, 128, 141, 310
584483230, -51, 7803, 12550, 7073, 1277, 2419, -2285, -775, -298, -161, 479, 412, 176, 74, 106, 128, 141, 310
584491198, -51, 7803, 12550, 7073, 1277, 2419, -2285, -775, -298, -161, 536, 422, 176, 77, 126, 203, 143, 349
584491995, -51, 7803, 12550, 7073, 1277, 2419, -2285, -775, -298, -161, 536, 422, 176, 77, 126, 203, 143, 349
584505604, 44, 7778, 12538, 7122, 1484, 2155, -2139, -541, -246, -372, 536, 422, 176, 77, 126, 203, 143, 349
584513782, 44, 7778, 12538, 7122, 1484, 2155, -2139, -541, -246, -372, 683, 432, 181, 80, 126, 209, 167, 375
584514550, 44, 7778, 12538, 7122, 1484, 2155, -2139, -541, -246, -372, 683, 432, 181, 80, 126, 209, 167, 375
584520722, 106, 7728, 12573, 7113, 1541, 1963, -2326, -232, -185, -600, 683, 432, 181, 80, 126, 209, 167, 375
584536306, 106, 7728, 12573, 7113, 1541, 1963, -2326, -232, -185, -600, 744, 424, 185, 78, 120, 216, 161, 381
584537049, 106, 7728, 12573, 7113, 1541, 1963, -2326, -232, -185, -600, 744, 424, 185, 78, 120, 216, 161, 381
584543219, 108, 7685, 12640, 7040, 1659, 2144, -2335, 349, -163, -516, 744, 424, 185, 78, 120, 216, 161, 381
584551259, 108, 7685, 12640, 7040, 1659, 2144, -2335, 349, -163, -516, 802, 391, 168, 77, 129, 239, 233, 373
584552046, 108, 7685, 12640, 7040, 1659, 2144, -2335, 349, -163, -516, 802, 391, 168, 77, 129, 239, 233, 373
584565596, 84, 7605, 12709, 7003, 1646, 2482, -2189, 451, 91, -549, 802, 391, 168, 77, 129, 239, 233, 373
584573757, 84, 7605, 12709, 7003, 1646, 2482, -2189, 451, 91, -549, 786, 299, 131, 80, 138, 235, 231, 364
584574556, 84, 7605, 12709, 7003, 1646, 2482, -2189, 451, 91, -549, 786, 299, 131, 80, 138, 235, 231, 364
584580712, 109, 7483, 12775, 7013, 1343, 2553, -2243, 104, 212, -723, 786, 299, 131, 80, 138, 235, 231, 364
584596252, 109, 7483, 12775, 7013, 1343, 2553, -2243, 104, 212, -723, 770, 341, 137, 79, 115, 202, 313, 363
584597030, 109, 7483, 12775, 7013, 1343, 2553, -2243, 104, 212, -723, 770, 341, 137, 79, 115, 202, 313, 363
584603193, 207, 7378, 12820, 7042, 1123, 2278, -2338, -365, -18, -770, 770, 341, 137, 79, 115, 202, 313, 363
584611251, 207, 7378, 12820, 7042, 1123, 2278, -2338, -365, -18, -770, 662, 330, 136, 114, 167, 215, 349, 339
584612050, 207, 7378, 12820, 7042, 1123, 2278, -2338, -365, -18, -770, 662, 330, 136, 114, 167, 215, 349, 339
584625573, 319, 7319, 12860, 7026, 1172, 1969, -2390, -346, -324, -696, 662, 330, 136, 114, 167, 215, 349, 339
584633750, 319, 7319, 12860, 7026, 1172, 1969, -2390, -346, -324, -696, 676, 336, 129, 113, 165, 216, 348, 336
584634534, 319, 7319, 12860, 7026, 1172, 1969, -2390, -346, -324, -696, 676, 336, 129, 113, 165, 216, 348, 336
584640707, 385, 7264, 12921, 6968, 1267, 2096, -2367, 59, -300, -652, 676, 336, 129, 113, 165, 216, 348, 336
584656236, 385, 7264, 12921, 6968, 1267, 2096, -2367, 59, -300, -652, 631, 403, 157, 118, 158, 201, 317, 328
584657018, 385, 7264, 12921, 6968, 1267, 2096, -2367, 59, -300, -652, 631, 403, 157, 118, 158, 201, 317, 328
584663212, 416, 7190, 12998, 6899, 1269, 2345, -2336, 342, -146, -662, 631, 403, 157, 118, 158, 201, 317, 328
584671252, 416, 7190, 12998, 6899, 1269, 2345, -2336, 342, -146, -662, 599, 396, 156, 125, 184, 242, 329, 300
584672036, 416, 7190, 12998, 6899, 1269, 2345, -2336, 342, -146, -662, 599, 396, 156, 125, 184, 242, 329, 300
584701330, 470, 7099, 13066, 6861, 1055, 2465, -2379, 158, -70, -677, 599, 396, 156, 125, 184, 242, 329, 300
584702128, 564, 7017, 13113, 6849, 896, 2330, -2450, -194, -159, -656, 599, 396, 156, 125, 184, 242, 329, 300
584708705, 564, 7017, 13113, 6849, 896, 2330, -2450, -194, -159, -656, 557, 369, 153, 129, 192, 263, 255, 269
584709489, 564, 7017, 13113, 6849, 896, 2330, -2450, -194, -159, -656, 557, 369, 153, 129, 192, 263, 255, 269
584723731, 564, 7017, 13113, 6849, 896, 2330, -2450, -194, -159, -656, 514, 358, 147, 100, 158, 260, 199, 266
584724529, 564, 7017, 13113, 6849, 896, 2330, -2450, -194, -159, -656, 514, 358, 147, 100, 158, 260, 199, 266
584738128, 659, 6964, 13139, 6845, 929, 2074, -2419, -362, -250, -555, 514, 358, 147, 100, 158, 260, 199, 266
584746207, 659, 6964, 13139, 6845, 929, 2074, -2419, -362, -250, -555, 427, 354, 153, 114, 172, 275, 205, 276
584747020, 659, 6964, 13139, 6845, 929, 2074, -2419, -362, -250, -555, 427, 354, 153, 114, 172, 275, 205, 276
584753209, 705, 6937, 13154, 6839, 1150, 1920, -2281, -257, -210, -415, 427, 354, 153, 114, 172, 275, 205, 276
584761230, 705, 6937, 13154, 6839, 1150, 1920, -2281, -257, -210, -415, 377, 264, 131, 128, 201, 311, 214, 273
584762031, 705, 6937, 13154, 6839, 1150, 1920, -2281, -257, -210, -415, 377, 264, 131, 128, 201, 311, 214, 273
584768233, 754, 6927, 13203, 6749, 855, 2075, -2525, 169, -321, -316, 377, 264, 131, 128, 201, 311, 214, 273
584776263, 754, 6927, 13203, 6749, 855, 2075, -2525, 169, -321, -316, 346, 245, 127, 123, 195, 288, 214, 272
584777047, 754, 6927, 13203, 6749, 855, 2075, -2525, 169, -321, -316, 346, 245, 127, 123, 195, 288, 214, 272
584790586, 773, 6915, 13254, 6658, 926, 2357, -2628, 330, -214, -253, 346, 245, 127, 123, 195, 288, 214, 272
584798724, 773, 6915, 13254, 6658, 926, 2357, -2628, 330, -214, -253, 394, 219, 118, 119, 191, 282, 220, 270
584799520, 773, 6915, 13254, 6658, 926, 2357, -2628, 330, -214, -253, 394, 219, 118, 119, 191, 282, 220, 270
584805698, 774, 6915, 13259, 6648, 1334, 2311, -2185, 67, -200, -194, 394, 219, 118, 119, 191, 282, 220, 270
584813754, 774, 6915, 13259, 6648, 1334, 2311, -2185, 67, -200, -194, 404, 220, 116, 117, 185, 297, 230, 278
584814552, 774, 6915, 13259, 6648, 1334, 2311, -2185, 67, -200, -194, 404, 220, 116, 117, 185, 297, 230, 278
584820706, 814, 6887, 13260, 6670, 695, 1940, -2053, -282, -24, -199, 404, 220, 116, 117, 185, 297, 230, 278
584836232, 814, 6887, 13260, 6670, 695, 1940, -2053, -282, -24, -199, 376, 195, 100, 124, 195, 292, 235, 271
584837027, 814, 6887, 13260, 6670, 695, 1940, -2053, -282, -24, -199, 376, 195, 100, 124, 195, 292, 235, 271
584843202, 799, 6921, 13241, 6675, 1478, 2162, -2516, -207, -183, -26, 376, 195, 100, 124, 195, 292, 235, 271
584851259, 799, 6921, 13241, 6675, 1478, 2162, -2516, -207, -183, -26, 371, 183, 90, 127, 165, 274, 234, 253
584852049, 799, 6921, 13241, 6675, 1478, 2162, -2516, -207, -183, -26, 371, 183, 90, 127, 165, 274, 234, 253
584865590, 802, 6924, 13256, 6640, 571, 1789, -2237, -19, 24, -2, 371, 183, 90, 127, 165, 274, 234, 253
584873757, 802, 6924, 13256, 6640, 571, 1789, -2237, -19, 24, -2, 369, 191, 83, 121, 139, 282, 223, 249
584874529, 802, 6924, 13256, 6640, 571, 1789, -2237, -19, 24, -2, 369, 191, 83, 121, 139, 282, 223, 249
584880716, 756, 6959, 13234, 6654, 1285, 1996, -1632, 109, -79, 123, 369, 191, 83, 121, 139, 282, 223, 249
584896238, 756, 6959, 13234, 6654, 1285, 1996, -1632, 109, -79, 123, 300, 177, 81, 120, 133, 252, 218, 245
584897034, 756, 6959, 13234, 6654, 1285, 1996, -1632, 109, -79, 123, 300, 177, 81, 120, 133, 252, 218, 245
584903193, 673, 7016, 13210, 6651, 1838, 2482, -2582, 106, -50, 183, 300, 177, 81, 120, 133, 252, 218, 245
584911241, 673, 7016, 13210, 6651, 1838, 2482, -2582, 106, -50, 183, 275, 176, 87, 126, 140, 239, 204, 229
584912033, 673, 7016, 13210, 6651, 1838, 2482, -2582, 106, -50, 183, 275, 176, 87, 126, 140, 239, 204, 229
584928312, 646, 7045, 13211, 6620, 1081, 2320, -2874, -22, 35, 135, 275, 176, 87, 126, 140, 239, 204, 229
584929132, 646, 7045, 13211, 6620, 1081, 2320, -2874, -22, 35, 135, 275, 176, 87, 126, 140, 239, 204, 229
584929941, 646, 7045, 13211, 6620, 1081, 2320, -2874, -22, 35, 135, 676, 336, 129, 113, 165, 216, 348, 336
584930734, 646, 7045, 13211, 6620, 1081, 2320, -2874, -22, 35, 135, 676, 336, 129, 113, 165, 216, 348, 336
584935841, 385, 7264, 12921, 6968, 1267, 2096, -2367, 59, -300, -652, 676, 336, 129, 113, 165, 216, 348, 336
584936637, 385, 7264, 12921, 6968, 1267, 2096, -2367, 59, -300, -652, 631, 403, 157, 118, 158, 201, 317, 328
584937470, 385, 7264, 12921, 6968, 1267, 2096, -2367, 59, -300, -652, 631, 403, 157, 118, 158, 201, 317, 328
584938285, 385, 7264, 12921, 6968, 1267, 2096, -2367, 59, -300, -652, 631, 403, 157, 118, 158, 201, 317, 328
584943233, 385, 7264, 12921, 6968, 1267, 2096, -2367, 59, -300, -652, 631, 403, 157, 118, 158, 201, 317, 328
584944027, 385, 7264, 12921, 6968, 1267, 2096, -2367, 59, -300, -652, 631, 403, 157, 118, 158, 201, 317, 328
584944845, 385, 7264, 12921, 6968, 1267, 2096, -2367, 59, -300, -652, 631, 403, 157, 118, 158, 201, 317, 328
584945667, 385, 7264, 12921, 6968, 1267, 2096, -2367, 59, -300, -652, 631, 403, 157, 118, 158, 201, 317, 328
584950746, 385, 7264, 12921, 6968, 1267, 2096, -2367, 59, -300, -652, 631, 403, 157, 118, 158, 201, 317, 328
584951660, 416, 7190, 12998, 6899, 1269, 2345, -2336, 342, -146, -662, 631, 403, 157, 118, 158, 201, 317, 328
584952503, 416, 7190, 12998, 6899, 1269, 2345, -2336, 342, -146, -662, 599, 396, 156, 125, 184, 242, 329, 300
584953291, 416, 7190, 12998, 6899, 1269, 2345, -2336, 342, -146, -662, 599, 396, 156, 125, 184, 242, 329, 300
584958376, 416, 7190, 12998, 6899, 1269, 2345, -2336, 342, -146, -662, 599, 396, 156, 125, 184, 242, 329, 300
584959057, 416, 7190, 12998, 6899, 1269, 2345, -2336, 342, -146, -662, 599, 396, 156, 125, 184, 242, 329, 300
584959916, 416, 7190, 12998, 6899, 1269, 2345, -2336, 342, -146, -662, 599, 396, 156, 125, 184, 242, 329, 300
584960760, 416, 7190, 12998, 6899, 1269, 2345, -2336, 342, -146, -662, 599, 396, 156, 125, 184, 242, 329, 300
584965730, 416, 7190, 12998, 6899, 1269, 2345, -2336, 342, -146, -662, 599, 396, 156, 125, 184, 242, 329, 300
584966553, 416, 7190, 12998, 6899, 1269, 2345, -2336, 342, -146, -662, 599, 396, 156, 125, 184, 242, 329, 300
584967423, 416, 7190, 12998, 6899, 1269, 2345, -2336, 342, -146, -662, 599, 396, 156, 125, 184, 242, 329, 300
584968164, 416, 7190, 12998, 6899, 1269, 2345, -2336, 342, -146, -662, 599, 396, 156, 125, 184, 242, 329, 300
584973308, 416, 7190, 12998, 6899, 1269, 2345, -2336, 342, -146, -662, 599, 396, 156, 125, 184, 242, 329, 300
584974200, 470, 7099, 13066, 6861, 1055, 2465, -2379, 158, -70, -677, 599, 396, 156, 125, 184, 242, 329, 300
584975038, 564, 7017, 13113, 6849, 896, 2330, -2450, -194, -159, -656, 599, 396, 156, 125, 184, 242, 329, 300
584975860, 564, 7017, 13113, 6849, 896, 2330, -2450, -194, -159, -656, 557, 369, 153, 129, 192, 263, 255, 269
584980844, 564, 7017, 13113, 6849, 896, 2330, -2450, -194, -159, -656, 557, 369, 153, 129, 192, 263, 255, 269
584981629, 564, 7017, 13113, 6849, 896, 2330, -2450, -194, -159, -656, 557, 369, 153, 129, 192, 263, 255, 269
584982442, 564, 7017, 13113, 6849, 896, 2330, -2450, -194, -159, -656, 557, 369, 153, 129, 192, 263, 255, 269
584983255, 564, 7017, 13113, 6849, 896, 2330, -2450, -194, -159, -656, 557, 369, 153, 129, 192, 263, 255, 269
584988233, 564, 7017, 13113, 6849, 896, 2330, -2450, -194, -159, -656, 557, 369, 153, 129, 192, 263, 255, 269
584989018, 564, 7017, 13113, 6849, 896, 2330, -2450, -194, -159, -656, 557, 369, 153, 129, 192, 263, 255, 269
584989832, 564, 7017, 13113, 6849, 896, 2330, -2450, -194, -159, -656, 557, 369, 153, 129, 192, 263, 255, 269
584990662, 564, 7017, 13113, 6849, 896, 2330, -2450, -194, -159, -656, 557, 369, 153, 129, 192, 263, 255, 269
584995741, 564, 7017, 13113, 6849, 896, 2330, -2450, -194, -159, -656, 557, 369, 153, 129, 192, 263, 255, 269
584996633, 564, 7017, 13113, 6849, 896, 2330, -2450, -194, -159, -656, 514, 358, 147, 100, 158, 260, 199, 266
584997462, 564, 7017, 13113, 6849, 896, 2330, -2450, -194, -159, -656, 514, 358, 147, 100, 158, 260, 199, 266
584998258, 564, 7017, 13113, 6849, 896, 2330, -2450, -194, -159, -656, 514, 358, 147, 100, 158, 260, 199, 266
585003298, 564, 7017, 13113, 6849, 896, 2330, -2450, -194, -159, -656, 514, 358, 147, 100, 158, 260, 199, 266
585004104, 564, 7017, 13113, 6849, 896, 2330, -2450, -194, -159, -656, 514, 358, 147, 100, 158, 260, 199, 266
585004920, 564, 7017, 13113, 6849, 896, 2330, -2450, -194, -159, -656, 514, 358, 147, 100, 158, 260, 199, 266
585005715, 564, 7017, 13113, 6849, 896, 2330, -2450, -194, -159, -656, 514, 358, 147, 100, 158, 260, 199, 266
585010791, 564, 7017, 13113, 6849, 896, 2330, -2450, -194, -159, -656, 514, 358, 147, 100, 158, 260, 199, 266
585011532, 564, 7017, 13113, 6849, 896, 2330, -2450, -194, -159, -656, 514, 358, 147, 100, 158, 260, 199, 266
585012366, 564, 7017, 13113, 6849, 896, 2330, -2450, -194, -159, -656, 514, 358, 147, 100, 158, 260, 199, 266
585013150, 564, 7017, 13113, 6849, 896, 2330, -2450, -194, -159, -656, 514, 358, 147, 100, 158, 260, 199, 266
585018247, 564, 7017, 13113, 6849, 896, 2330, -2450, -194, -159, -656, 514, 358, 147, 100, 158, 260, 199, 266
585019163, 659, 6964, 13139, 6845, 929, 2074, -2419, -362, -250, -555, 514, 358, 147, 100, 158, 260, 199, 266
585019967, 659, 6964, 13139, 6845, 929, 2074, -2419, -362, -250, -555, 427, 354, 153, 114, 172, 275, 205, 276
585020789, 659, 6964, 13139, 6845, 929, 2074, -2419, -362, -250, -555, 514, 358, 147, 100, 158, 260, 199, 266
585025811, 659, 6964, 13139, 6845, 929, 2074, -2419, -362, -250, -555, 427, 354, 153, 114, 172, 275, 205, 276
585026604, 659, 6964, 13139, 6845, 929, 2074, -2419, -362, -250, -555, 427, 354, 153, 114, 172, 275, 205, 276
585027424, 659, 6964, 13139, 6845, 929, 2074, -2419, -362, -250, -555, 427, 354, 153, 114, 172, 275, 205, 276
585028228, 659, 6964, 13139, 6845, 929, 2074, -2419, -362, -250, -555, 427, 354, 153, 114, 172, 275, 205, 276
585033196, 659, 6964, 13139, 6845, 929, 2074, -2419, -362, -250, -555, 427, 354, 153, 114, 172, 275, 205, 276
585034013, 659, 6964, 13139, 6845, 929, 2074, -2419, -362, -250, -555, 427, 354, 153, 114, 172, 275, 205, 276
585034814, 659, 6964, 13139, 6845, 929, 2074, -2419, -362, -250, -555, 427, 354, 153, 114, 172, 275, 205, 276
585035626, 659, 6964, 13139, 6845, 929, 2074, -2419, -362, -250, -555, 427, 354, 153, 114, 172, 275, 205, 276
585040689, 659, 6964, 13139, 6845, 929, 2074, -2419, -362, -250, -555, 427, 354, 153, 114, 172, 275, 205, 276
585041646, 705, 6937, 13154, 6839, 1150, 1920, -2281, -257, -210, -415, 427, 354, 153, 114, 172, 275, 205, 276
585042446, 705, 6937, 13154, 6839, 1150, 1920, -2281, -257, -210, -415, 377, 264, 131, 128, 201, 311, 214, 273
585043255, 705, 6937, 13154, 6839, 1150, 1920, -2281, -257, -210, -415, 377, 264, 131, 128, 201, 311, 214, 273
585048271, 705, 6937, 13154, 6839, 1150, 1920, -2281, -257, -210, -415, 377, 264, 131, 128, 201, 311, 214, 273
585049083, 705, 6937, 13154, 6839, 1150, 1920, -2281, -257, -210, -415, 377, 264, 131, 128, 201, 311, 214, 273
585049933, 705, 6937, 13154, 6839, 1150, 1920, -2281, -257, -210, -415, 377, 264, 131, 128, 201, 311, 214, 273
585050716, 705, 6937, 13154, 6839, 1150, 1920, -2281, -257, -210, -415, 377, 264, 131, 128, 201, 311, 214, 273
585055671, 705, 6937, 13154, 6839, 1150, 1920, -2281, -257, -210, -415, 377, 264, 131, 128, 201, 311, 214, 273
585056476, 705, 6937, 13154, 6839, 1150, 1920, -2281, -257, -210, -415, 377, 264, 131, 128, 201, 311, 214, 273
585057280, 705, 6937, 13154, 6839, 1150, 1920, -2281, -257, -210, -415, 377, 264, 131, 128, 201, 311, 214, 273
585058117, 705, 6937, 13154, 6839, 1150, 1920, -2281, -257, -210, -415, 377, 264, 131, 128, 201, 311, 214, 273
585063252, 705, 6937, 13154, 6839, 1150, 1920, -2281, -257, -210, -415, 377, 264, 131, 128, 201, 311, 214, 273
585064189, 754, 6927, 13203, 6749, 855, 2075, -2525, 169, -321, -316, 377, 264, 131, 128, 201, 311, 214, 273
585064971, 754, 6927, 13203, 6749, 855, 2075, -2525, 169, -321, -316, 346, 245, 127, 123, 195, 288, 214, 272
585065808, 754, 6927, 13203, 6749, 855, 2075, -2525, 169, -321, -316, 346, 245, 127, 123, 195, 288, 214, 272
585070836, 754, 6927, 13203, 6749, 855, 2075, -2525, 169, -321, -316, 346, 245, 127, 123, 195, 288, 214, 272
585071651, 754, 6927, 13203, 6749, 855, 2075, -2525, 169, -321, -316, 346, 245, 127, 123, 195, 288, 214, 272
585072425, 754, 6927, 13203, 6749, 855, 2075, -2525, 169, -321, -316, 346, 245, 127, 123, 195, 288, 214, 272
585073254, 754, 6927, 13203, 6749, 855, 2075, -2525, 169, -321, -316, 346, 245, 127, 123, 195, 288, 214, 272
585078201, 754, 6927, 13203, 6749, 855, 2075, -2525, 169, -321, -316, 346, 245, 127, 123, 195, 288, 214, 272
585079050, 754, 6927, 13203, 6749, 855, 2075, -2525, 169, -321, -316, 346, 245, 127, 123, 195, 288, 214, 272
585079848, 754, 6927, 13203, 6749, 855, 2075, -2525, 169, -321, -316, 346, 245, 127, 123, 195, 288, 214, 272
585080710, 754, 6927, 13203, 6749, 855, 2075, -2525, 169, -321, -316, 346, 245, 127, 123, 195, 288, 214, 272
