Timestamp, Orientation x, Orientation y, Orientation z, Orientation w, Acceleration x, Acceleration y, Acceleration z, Rotation x, Rotation y, Rotation z, EMG 0, EMG 1, EMG 2, EMG 3, EMG 4, EMG 5, EMG 6, EMG 7
229413049, 762, -10756, 11965, -2998, 281, -896, -2615, 634, 86, 26, 0, 0, 0, 0, 0, 0, 0, 0
229420540, 833, -10741, 11964, -3039, 138, -1073, -2557, 361, 46, 50, 0, 0, 0, 0, 0, 0, 0, 0
229428035, 874, -10728, 11968, -3059, 294, -992, -2577, 213, 0, 67, 0, 0, 0, 0, 0, 0, 0, 0
229450530, 897, -10717, 11969, -3086, 558, -866, -2585, 250, -26, 89, 0, 0, 0, 0, 0, 0, 0, 0
229465502, 920, -10707, 11965, -3128, 627, -828, -2591, 345, -14, 88, 0, 0, 0, 0, 0, 0, 0, 0
229481121, 920, -10707, 11965, -3128, 627, -828, -2591, 345, -14, 88, 33, 75, 41, 34, 36, 45, 40, 42
229481983, 920, -10707, 11965, -3128, 627, -828, -2591, 345, -14, 88, 33, 75, 41, 34, 36, 45, 40, 42
229488132, 924, -10698, 11968, -3149, 553, -771, -2565, 210, 26, 78, 33, 75, 41, 34, 36, 45, 40, 42
229503438, 924, -10698, 11968, -3149, 553, -771, -2565, 210, 26, 78, 33, 58, 37, 31, 32, 44, 47, 47
229511204, 924, -10698, 11968, -3149, 553, -771, -2565, 210, 26, 78, 33, 58, 37, 31, 32, 44, 47, 47
229512127, 898, -10697, 11976, -3126, 492, -795, -2535, -111, 12, 34, 33, 58, 37, 31, 32, 44, 47, 47
229525936, 898, -10697, 11976, -3126, 492, -795, -2535, -111, 12, 34, 36, 44, 38, 31, 31, 47, 64, 45
229533715, 898, -10697, 11976, -3126, 492, -795, -2535, -111, 12, 34, 36, 44, 38, 31, 31, 47, 64, 45
229534596, 855, -10701, 11988, -3080, 467, -892, -2504, -341, 2, -2, 36, 44, 38, 31, 31, 47, 64, 45
229543201, 855, -10701, 11988, -3080, 467, -892, -2504, -341, 2, -2, 35, 41, 38, 56, 30, 44, 73, 45
229544024, 855, -10701, 11988, -3080, 467, -892, -2504, -341, 2, -2, 35, 41, 38, 56, 30, 44, 73, 45
229544841, 855, -10701, 11988, -3080, 467, -892, -2504, -341, 2, -2, 35, 41, 38, 56, 30, 44, 73, 45
229545640, 855, -10701, 11988, -3080, 467, -892, -2504, -341, 2, -2, 35, 41, 38, 56, 30, 44, 73, 45
229549686, 855, -10701, 11988, -3080, 467, -892, -2504, -341, 2, -2, 35, 41, 38, 56, 30, 44, 73, 45
229550483, 855, -10701, 11988, -3080, 467, -892, -2504, -341, 2, -2, 35, 41, 38, 56, 30, 44, 73, 45
229556789, 855, -10701, 11988, -3080, 467, -892, -2504, -341, 2, -2, 35, 41, 38, 56, 30, 44, 73, 45
229557611, 855, -10701, 11988, -3080, 467, -892, -2504, -341, 2, -2, 35, 41, 38, 56, 30, 44, 73, 45
229558537, 811, -10708, 11996, -3038, 437, -929, -2483, -355, 33, -35, 35, 41, 38, 56, 30, 44, 73, 45
229565488, 811, -10708, 11996, -3038, 437, -929, -2483, -355, 33, -35, 36, 40, 36, 58, 31, 40, 77, 45
229566364, 811, -10708, 11996, -3038, 437, -929, -2483, -355, 33, -35, 36, 40, 36, 58, 31, 40, 77, 45
229567116, 811, -10708, 11996, -3038, 437, -929, -2483, -355, 33, -35, 36, 40, 36, 58, 31, 40, 77, 45
229567944, 811, -10708, 11996, -3038, 437, -929, -2483, -355, 33, -35, 36, 40, 36, 58, 31, 40, 77, 45
229573121, 811, -10708, 11996, -3038, 437, -929, -2483, -355, 33, -35, 36, 40, 36, 58, 31, 40, 77, 45
229573938, 811, -10708, 11996, -3038, 437, -929, -2483, -355, 33, -35, 36, 40, 36, 58, 31, 40, 77, 45
229574736, 811, -10708, 11996, -3038, 437, -929, -2483, -355, 33, -35, 36, 40, 36, 58, 31, 40, 77, 45
229575566, 811, -10708, 11996, -3038, 437, -929, -2483, -355, 33, -35, 36, 40, 36, 58, 31, 40, 77, 45
229578061, 780, -10711, 12001, -3013, 376, -915, -2468, -242, 68, -38, 36, 40, 36, 58, 31, 40, 77, 45
229586840, 780, -10711, 12001, -3013, 376, -915, -2468, -242, 68, -38, 33, 34, 39, 63, 28, 37, 79, 43
229587645, 780, -10711, 12001, -3013, 376, -915, -2468, -242, 68, -38, 33, 34, 39, 63, 28, 37, 79, 43
229588606, 754, -10716, 12003, -2990, 323, -832, -2451, -173, 84, -54, 33, 34, 39, 63, 28, 37, 79, 43
229601097, 754, -10716, 12003, -2990, 323, -832, -2451, -173, 84, -54, 32, 30, 37, 64, 28, 37, 76, 41
229601915, 754, -10716, 12003, -2990, 323, -832, -2451, -173, 84, -54, 32, 30, 37, 64, 28, 37, 76, 41
229608067, 727, -10723, 12004, -2970, 333, -809, -2446, -165, 90, -63, 32, 30, 37, 64, 28, 37, 76, 41
229623599, 727, -10723, 12004, -2970, 333, -809, -2446, -165, 90, -63, 29, 29, 39, 64, 25, 35, 64, 42
229624411, 727, -10723, 12004, -2970, 333, -809, -2446, -165, 90, -63, 29, 29, 39, 64, 25, 35, 64, 42
229630561, 692, -10733, 12003, -2947, 377, -770, -2425, -193, 86, -86, 29, 29, 39, 64, 25, 35, 64, 42
229646809, 692, -10733, 12003, -2947, 377, -770, -2425, -193, 86, -86, 30, 28, 41, 65, 30, 35, 55, 40
229647623, 692, -10733, 12003, -2947, 377, -770, -2425, -193, 86, -86, 30, 28, 41, 65, 30, 35, 55, 40
229648537, 664, -10741, 12001, -2932, 408, -776, -2464, -133, 78, -70, 30, 28, 41, 65, 30, 35, 55, 40
229661143, 664, -10741, 12001, -2932, 408, -776, -2464, -133, 78, -70, 33, 26, 41, 97, 52, 41, 49, 52
229661943, 664, -10741, 12001, -2932, 408, -776, -2464, -133, 78, -70, 33, 26, 41, 97, 52, 41, 49, 52
229668112, 650, -10741, 12004, -2920, 420, -738, -2446, -59, 35, 3, 33, 26, 41, 97, 52, 41, 49, 52
229683622, 650, -10741, 12004, -2920, 420, -738, -2446, -59, 35, 3, 39, 26, 40, 97, 54, 40, 41, 58
229684440, 650, -10741, 12004, -2920, 420, -738, -2446, -59, 35, 3, 39, 26, 40, 97, 54, 40, 41, 58
229690595, 642, -10733, 12014, -2911, 407, -791, -2434, -65, 37, 57, 39, 26, 40, 97, 54, 40, 41, 58
229706854, 642, -10733, 12014, -2911, 407, -791, -2434, -65, 37, 57, 39, 28, 44, 180, 65, 44, 56, 57
229707643, 642, -10733, 12014, -2911, 407, -791, -2434, -65, 37, 57, 39, 28, 44, 180, 65, 44, 56, 57
229708591, 629, -10723, 12029, -2892, 433, -869, -2405, -177, 2, 75, 39, 28, 44, 180, 65, 44, 56, 57
229721091, 629, -10723, 12029, -2892, 433, -869, -2405, -177, 2, 75, 45, 31, 52, 360, 106, 49, 92, 68
229721914, 629, -10723, 12029, -2892, 433, -869, -2405, -177, 2, 75, 45, 31, 52, 360, 106, 49, 92, 68
229728063, 637, -10711, 12045, -2869, 440, -852, -2392, -112, -102, 116, 45, 31, 52, 360, 106, 49, 92, 68
229743601, 637, -10711, 12045, -2869, 440, -852, -2392, -112, -102, 116, 49, 33, 61, 494, 127, 68, 98, 77
229744410, 637, -10711, 12045, -2869, 440, -852, -2392, -112, -102, 116, 49, 33, 61, 494, 127, 68, 98, 77
229750568, 658, -10682, 12069, -2870, 444, -802, -2481, 77, -48, 231, 49, 33, 61, 494, 127, 68, 98, 77
229766571, 658, -10682, 12069, -2870, 444, -802, -2481, 77, -48, 231, 47, 33, 64, 505, 131, 69, 102, 71
229767367, 658, -10682, 12069, -2870, 444, -802, -2481, 77, -48, 231, 47, 33, 64, 505, 131, 69, 102, 71
229773520, 651, -10657, 12095, -2856, 480, -858, -2527, -115, -9, 195, 47, 33, 64, 505, 131, 69, 102, 71
229789290, 651, -10657, 12095, -2856, 480, -858, -2527, -115, -9, 195, 44, 31, 63, 514, 143, 70, 105, 67
229790109, 651, -10657, 12095, -2856, 480, -858, -2527, -115, -9, 195, 44, 31, 63, 514, 143, 70, 105, 67
229791036, 619, -10649, 12111, -2821, 478, -852, -2487, -302, -1, 67, 44, 31, 63, 514, 143, 70, 105, 67
229804287, 619, -10649, 12111, -2821, 478, -852, -2487, -302, -1, 67, 45, 29, 61, 493, 138, 68, 97, 69
229805084, 619, -10649, 12111, -2821, 478, -852, -2487, -302, -1, 67, 45, 29, 61, 493, 138, 68, 97, 69
229806036, 605, -10637, 12124, -2818, 450, -874, -2451, -115, 54, 81, 45, 29, 61, 493, 138, 68, 97, 69
229826818, 605, -10637, 12124, -2818, 450, -874, -2451, -115, 54, 81, 44, 29, 53, 386, 112, 64, 64, 61
229827635, 605, -10637, 12124, -2818, 450, -874, -2451, -115, 54, 81, 44, 29, 53, 386, 112, 64, 64, 61
229828561, 602, -10627, 12134, -2810, 403, -720, -2448, -17, 14, 75, 44, 29, 53, 386, 112, 64, 64, 61
229841093, 602, -10627, 12134, -2810, 403, -720, -2448, -17, 14, 75, 42, 30, 41, 186, 86, 44, 53, 57
229841885, 602, -10627, 12134, -2810, 403, -720, -2448, -17, 14, 75, 42, 30, 41, 186, 86, 44, 53, 57
229855624, 591, -10619, 12149, -2781, 338, -681, -2426, -131, -2, 73, 42, 30, 41, 186, 86, 44, 53, 57
229864360, 591, -10619, 12149, -2781, 338, -681, -2426, -131, -2, 73, 45, 31, 54, 399, 114, 41, 46, 56
229865148, 591, -10619, 12149, -2781, 338, -681, -2426, -131, -2, 73, 45, 31, 54, 399, 114, 41, 46, 56
229866091, 582, -10612, 12164, -2744, 391, -829, -2384, -240, -73, 71, 45, 31, 54, 399, 114, 41, 46, 56
229886791, 582, -10612, 12164, -2744, 391, -829, -2384, -240, -73, 71, 43, 29, 58, 412, 104, 39, 40, 54
229887587, 582, -10612, 12164, -2744, 391, -829, -2384, -240, -73, 71, 43, 29, 58, 412, 104, 39, 40, 54
229888544, 585, -10604, 12174, -2728, 410, -835, -2512, -90, -54, 72, 43, 29, 58, 412, 104, 39, 40, 54
229901118, 585, -10604, 12174, -2728, 410, -835, -2512, -90, -54, 72, 46, 34, 99, 510, 138, 47, 39, 56
229901936, 585, -10604, 12174, -2728, 410, -835, -2512, -90, -54, 72, 46, 34, 99, 510, 138, 47, 39, 56
229908088, 589, -10592, 12185, -2723, 402, -823, -2526, -37, -5, 83, 46, 34, 99, 510, 138, 47, 39, 56
229924370, 589, -10592, 12185, -2723, 402, -823, -2526, -37, -5, 83, 44, 35, 101, 548, 142, 48, 37, 57
229925137, 589, -10592, 12185, -2723, 402, -823, -2526, -37, -5, 83, 44, 35, 101, 548, 142, 48, 37, 57
229926059, 583, -10590, 12191, -2706, 414, -758, -2534, -78, -26, 27, 44, 35, 101, 548, 142, 48, 37, 57
229946795, 583, -10590, 12191, -2706, 414, -758, -2534, -78, -26, 27, 42, 35, 107, 568, 144, 49, 36, 50
229947626, 583, -10590, 12191, -2706, 414, -758, -2534, -78, -26, 27, 42, 35, 107, 568, 144, 49, 36, 50
229948543, 582, -10590, 12191, -2707, 435, -841, -2519, -35, 6, -5, 42, 35, 107, 568, 144, 49, 36, 50
229961117, 582, -10590, 12191, -2707, 435, -841, -2519, -35, 6, -5, 49, 35, 101, 492, 132, 49, 41, 47
229961939, 582, -10590, 12191, -2707, 435, -841, -2519, -35, 6, -5, 49, 35, 101, 492, 132, 49, 41, 47
229968095, 573, -10594, 12195, -2677, 373, -775, -2495, -167, -52, -16, 49, 35, 101, 492, 132, 49, 41, 47
229984269, 573, -10594, 12195, -2677, 373, -775, -2495, -167, -52, -16, 58, 41, 114, 764, 230, 57, 45, 49
229985085, 573, -10594, 12195, -2677, 373, -775, -2495, -167, -52, -16, 58, 41, 114, 764, 230, 57, 45, 49
229986010, 573, -10586, 12206, -2659, 501, -728, -2576, -57, -99, 92, 58, 41, 114, 764, 230, 57, 45, 49
230005931, 573, -10586, 12206, -2659, 501, -728, -2576, -57, -99, 92, 54, 38, 84, 718, 221, 61, 57, 45
230013671, 573, -10586, 12206, -2659, 501, -728, -2576, -57, -99, 92, 54, 38, 84, 718, 221, 61, 57, 45
230014589, 539, -10571, 12221, -2653, 476, -756, -2716, -128, 128, 94, 54, 38, 84, 718, 221, 61, 57, 45
230021241, 539, -10571, 12221, -2653, 476, -756, -2716, -128, 128, 94, 54, 38, 84, 692, 222, 69, 90, 37
230022017, 539, -10571, 12221, -2653, 476, -756, -2716, -128, 128, 94, 54, 38, 84, 692, 222, 69, 90, 37
230029364, 539, -10571, 12221, -2653, 476, -756, -2716, -128, 128, 94, 54, 38, 84, 692, 222, 69, 90, 37
230030137, 539, -10571, 12221, -2653, 476, -756, -2716, -128, 128, 94, 54, 38, 84, 692, 222, 69, 90, 37
230031061, 521, -10580, 12215, -2651, 351, -769, -2592, -67, 107, -88, 54, 38, 84, 692, 222, 69, 90, 37
230044401, 521, -10580, 12215, -2651, 351, -769, -2592, -67, 107, -88, 57, 37, 79, 683, 223, 79, 153, 54
230045116, 521, -10580, 12215, -2651, 351, -769, -2592, -67, 107, -88, 57, 37, 79, 683, 223, 79, 153, 54
230046063, 545, -10602, 12187, -2685, 372, -846, -2555, 216, 31, -195, 57, 37, 79, 683, 223, 79, 153, 54
230066849, 545, -10602, 12187, -2685, 372, -846, -2555, 216, 31, -195, 58, 38, 79, 650, 218, 100, 170, 56
230067659, 545, -10602, 12187, -2685, 372, -846, -2555, 216, 31, -195, 58, 38, 79, 650, 218, 100, 170, 56
230068563, 569, -10644, 12135, -2751, 443, -819, -2575, 391, 101, -356, 58, 38, 79, 650, 218, 100, 170, 56
230080439, 569, -10644, 12135, -2751, 443, -819, -2575, 391, 101, -356, 56, 34, 58, 273, 107, 121, 185, 62
230088653, 569, -10644, 12135, -2751, 443, -819, -2575, 391, 101, -356, 56, 34, 58, 273, 107, 121, 185, 62
230089549, 613, -10697, 12066, -2839, 334, -762, -2559, 616, 142, -463, 56, 34, 58, 273, 107, 121, 185, 62
230103626, 613, -10697, 12066, -2839, 334, -762, -2559, 616, 142, -463, 72, 42, 59, 343, 93, 149, 192, 69
230104410, 613, -10697, 12066, -2839, 334, -762, -2559, 616, 142, -463, 72, 42, 59, 343, 93, 149, 192, 69
230110559, 663, -10769, 11977, -2930, 364, -724, -2516, 689, 92, -597, 72, 42, 59, 343, 93, 149, 192, 69
230126852, 663, -10769, 11977, -2930, 364, -724, -2516, 689, 92, -597, 75, 44, 58, 348, 92, 166, 183, 72
230127647, 663, -10769, 11977, -2930, 364, -724, -2516, 689, 92, -597, 75, 44, 58, 348, 92, 166, 183, 72
230128562, 725, -10866, 11857, -3041, 396, -1017, -2534, 722, 83, -831, 75, 44, 58, 348, 92, 166, 183, 72
230149344, 725, -10866, 11857, -3041, 396, -1017, -2534, 722, 83, -831, 80, 47, 61, 339, 105, 170, 158, 66
230150095, 725, -10866, 11857, -3041, 396, -1017, -2534, 722, 83, -831, 80, 47, 61, 339, 105, 170, 158, 66
230151075, 791, -10999, 11697, -3164, 397, -1018, -2473, 825, 69, -1132, 80, 47, 61, 339, 105, 170, 158, 66
230163650, 791, -10999, 11697, -3164, 397, -1018, -2473, 825, 69, -1132, 98, 53, 62, 325, 117, 185, 163, 74
230164447, 791, -10999, 11697, -3164, 397, -1018, -2473, 825, 69, -1132, 98, 53, 62, 325, 117, 185, 163, 74
230170629, 861, -11138, 11517, -3317, 482, -1054, -2461, 980, 129, -1214, 98, 53, 62, 325, 117, 185, 163, 74
230186802, 861, -11138, 11517, -3317, 482, -1054, -2461, 980, 129, -1214, 113, 70, 99, 516, 200, 265, 181, 74
230187598, 861, -11138, 11517, -3317, 482, -1054, -2461, 980, 129, -1214, 113, 70, 99, 516, 200, 265, 181, 74
230188511, 922, -11304, 11301, -3480, 484, -1039, -2270, 1018, 152, -1480, 113, 70, 99, 516, 200, 265, 181, 74
230209078, 922, -11304, 11301, -3480, 484, -1039, -2270, 1018, 152, -1480, 133, 79, 101, 460, 204, 261, 180, 106
230209863, 922, -11304, 11301, -3480, 484, -1039, -2270, 1018, 152, -1480, 133, 79, 101, 460, 204, 261, 180, 106
230216045, 993, -11500, 11042, -3643, 459, -1148, -2292, 1130, 59, -1735, 133, 79, 101, 460, 204, 261, 180, 106
230223627, 993, -11500, 11042, -3643, 459, -1148, -2292, 1130, 59, -1735, 171, 150, 129, 481, 220, 268, 193, 125
230224390, 993, -11500, 11042, -3643, 459, -1148, -2292, 1130, 59, -1735, 171, 150, 129, 481, 220, 268, 193, 125
230230555, 1033, -11715, 10768, -3766, 446, -1200, -2174, 861, -10, -1896, 171, 150, 129, 481, 220, 268, 193, 125
230246832, 1033, -11715, 10768, -3766, 446, -1200, -2174, 861, -10, -1896, 194, 248, 201, 506, 228, 312, 338, 136
230247631, 1033, -11715, 10768, -3766, 446, -1200, -2174, 861, -10, -1896, 194, 248, 201, 506, 228, 312, 338, 136
230248551, 1053, -11926, 10503, -3845, 662, -1403, -2191, 584, -127, -1857, 194, 248, 201, 506, 228, 312, 338, 136
230269303, 1053, -11926, 10503, -3845, 662, -1403, -2191, 584, -127, -1857, 261, 426, 296, 573, 251, 428, 449, 152
230270103, 1053, -11926, 10503, -3845, 662, -1403, -2191, 584, -127, -1857, 261, 426, 296, 573, 251, 428, 449, 152
230271015, 1009, -12166, 10227, -3849, 862, -1219, -2254, 81, -258, -2046, 261, 426, 296, 573, 251, 428, 449, 152
230283623, 1009, -12166, 10227, -3849, 862, -1219, -2254, 81, -258, -2046, 379, 467, 319, 468, 202, 424, 460, 159
230284447, 1009, -12166, 10227, -3849, 862, -1219, -2254, 81, -258, -2046, 379, 467, 319, 468, 202, 424, 460, 159
230290587, 957, -12400, 9960, -3815, 594, -1314, -2310, -101, -344, -2004, 379, 467, 319, 468, 202, 424, 460, 159
230306824, 957, -12400, 9960, -3815, 594, -1314, -2310, -101, -344, -2004, 469, 481, 357, 599, 243, 461, 488, 150
230307610, 957, -12400, 9960, -3815, 594, -1314, -2310, -101, -344, -2004, 469, 481, 357, 599, 243, 461, 488, 150
230308571, 906, -12636, 9713, -3688, 898, -1376, -1917, -484, -787, -1882, 469, 481, 357, 599, 243, 461, 488, 150
230329285, 906, -12636, 9713, -3688, 898, -1376, -1917, -484, -787, -1882, 500, 504, 382, 633, 289, 479, 493, 161
230330086, 906, -12636, 9713, -3688, 898, -1376, -1917, -484, -787, -1882, 500, 504, 382, 633, 289, 479, 493, 161
230331011, 810, -12869, 9424, -3658, 1653, -1646, -2167, -325, -307, -2122, 500, 504, 382, 633, 289, 479, 493, 161
230345674, 810, -12869, 9424, -3658, 1653, -1646, -2167, -325, -307, -2122, 539, 472, 390, 727, 295, 500, 445, 174
230346458, 810, -12869, 9424, -3658, 1653, -1646, -2167, -325, -307, -2122, 539, 472, 390, 727, 295, 500, 445, 174
230347357, 810, -12869, 9424, -3658, 1653, -1646, -2167, -325, -307, -2122, 539, 472, 390, 727, 295, 500, 445, 174
230348034, 810, -12869, 9424, -3658, 1653, -1646, -2167, -325, -307, -2122, 539, 472, 390, 727, 295, 500, 445, 174
230353124, 810, -12869, 9424, -3658, 1653, -1646, -2167, -325, -307, -2122, 539, 472, 390, 727, 295, 500, 445, 174
230353915, 810, -12869, 9424, -3658, 1653, -1646, -2167, -325, -307, -2122, 539, 472, 390, 727, 295, 500, 445, 174
230354744, 810, -12869, 9424, -3658, 1653, -1646, -2167, -325, -307, -2122, 539, 472, 390, 727, 295, 500, 445, 174
230355539, 810, -12869, 9424, -3658, 1653, -1646, -2167, -325, -307, -2122, 539, 472, 390, 727, 295, 500, 445, 174
230358043, 742, -13075, 9103, -3750, 1306, -1774, -2425, 230, 226, -2202, 539, 472, 390, 727, 295, 500, 445, 174
230366767, 742, -13075, 9103, -3750, 1306, -1774, -2425, 230, 226, -2202, 653, 345, 367, 723, 284, 448, 471, 180
230367564, 742, -13075, 9103, -3750, 1306, -1774, -2425, 230, 226, -2202, 653, 345, 367, 723, 284, 448, 471, 180
230368517, 687, -13278, 8766, -3848, 830, -1585, -2339, 353, 273, -2270, 653, 345, 367, 723, 284, 448, 471, 180
230396768, 687, -13278, 8766, -3848, 830, -1585, -2339, 353, 273, -2270, 975, 302, 360, 832, 428, 426, 494, 233
230397570, 687, -13278, 8766, -3848, 830, -1585, -2339, 353, 273, -2270, 975, 302, 360, 832, 428, 426, 494, 233
230398538, 622, -13503, 8396, -3901, 1237, -1598, -2344, 198, 17, -2476, 975, 302, 360, 832, 428, 426, 494, 233
230411793, 622, -13503, 8396, -3901, 1237, -1598, -2344, 198, 17, -2476, 987, 284, 334, 780, 482, 418, 498, 316
230412574, 622, -13503, 8396, -3901, 1237, -1598, -2344, 198, 17, -2476, 987, 284, 334, 780, 482, 418, 498, 316
230413528, 538, -13700, 8043, -3971, 1519, -1593, -2353, 143, 168, -2339, 987, 284, 334, 780, 482, 418, 498, 316
230426136, 538, -13700, 8043, -3971, 1519, -1593, -2353, 143, 168, -2339, 1001, 329, 362, 805, 545, 470, 516, 317
230426900, 538, -13700, 8043, -3971, 1519, -1593, -2353, 143, 168, -2339, 1001, 329, 362, 805, 545, 470, 516, 317
230435797, 439, -13887, 7695, -4024, 1455, -1685, -2308, 7, 156, -2321, 1001, 329, 362, 805, 545, 470, 516, 317
230449329, 439, -13887, 7695, -4024, 1455, -1685, -2308, 7, 156, -2321, 1007, 451, 551, 729, 548, 517, 588, 321
230450130, 439, -13887, 7695, -4024, 1455, -1685, -2308, 7, 156, -2321, 1007, 451, 551, 729, 548, 517, 588, 321
230451043, 344, -14064, 7349, -4065, 1659, -1592, -2281, -4, 75, -2275, 1007, 451, 551, 729, 548, 517, 588, 321
230472241, 344, -14064, 7349, -4065, 1659, -1592, -2281, -4, 75, -2275, 970, 701, 941, 708, 589, 561, 550, 434
230473040, 344, -14064, 7349, -4065, 1659, -1592, -2281, -4, 75, -2275, 970, 701, 941, 708, 589, 561, 550, 434
230473983, 214, -14251, 6969, -4092, 1796, -1756, -2184, -193, 71, -2522, 970, 701, 941, 708, 589, 561, 550, 434
230486093, 214, -14251, 6969, -4092, 1796, -1756, -2184, -193, 71, -2522, 699, 765, 1097, 682, 506, 567, 512, 584
230486914, 214, -14251, 6969, -4092, 1796, -1756, -2184, -193, 71, -2522, 699, 765, 1097, 682, 506, 567, 512, 584
230493070, 51, -14444, 6545, -4121, 1993, -1550, -2210, -272, 125, -2793, 699, 765, 1097, 682, 506, 567, 512, 584
230509287, 51, -14444, 6545, -4121, 1993, -1550, -2210, -272, 125, -2793, 753, 868, 1170, 676, 443, 551, 502, 659
230510109, 51, -14444, 6545, -4121, 1993, -1550, -2210, -272, 125, -2793, 753, 868, 1170, 676, 443, 551, 502, 659
230511061, -100, -14604, 6138, -4184, 2186, -1531, -2345, -163, 307, -2622, 753, 868, 1170, 676, 443, 551, 502, 659
230531768, -100, -14604, 6138, -4184, 2186, -1531, -2345, -163, 307, -2622, 768, 930, 1237, 608, 327, 504, 561, 849
230532587, -100, -14604, 6138, -4184, 2186, -1531, -2345, -163, 307, -2622, 768, 930, 1237, 608, 327, 504, 561, 849
230533513, -243, -14741, 5747, -4250, 1805, -1626, -2221, -159, 382, -2507, 768, 930, 1237, 608, 327, 504, 561, 849
230545527, -243, -14741, 5747, -4250, 1805, -1626, -2221, -159, 382, -2507, 793, 951, 1190, 683, 363, 510, 555, 951
230554950, -243, -14741, 5747, -4250, 1805, -1626, -2221, -159, 382, -2507, 793, 951, 1190, 683, 363, 510, 555, 951
230555765, -243, -14741, 5747, -4250, 1805, -1626, -2221, -159, 382, -2507, 793, 951, 1190, 683, 363, 510, 555, 951
230556564, -243, -14741, 5747, -4250, 1805, -1626, -2221, -159, 382, -2507, 793, 951, 1190, 683, 363, 510, 555, 951
230557527, -366, -14849, 5418, -4297, 2132, -1419, -2216, -167, 252, -2097, 793, 951, 1190, 683, 363, 510, 555, 951
230569267, -366, -14849, 5418, -4297, 2132, -1419, -2216, -167, 252, -2097, 751, 858, 922, 754, 330, 440, 543, 1074
230570085, -366, -14849, 5418, -4297, 2132, -1419, -2216, -167, 252, -2097, 751, 858, 922, 754, 330, 440, 543, 1074
230571034, -458, -14941, 5112, -4346, 2172, -1435, -2214, -49, 220, -1915, 751, 858, 922, 754, 330, 440, 543, 1074
230591749, -458, -14941, 5112, -4346, 2172, -1435, -2214, -49, 220, -1915, 661, 1009, 797, 675, 317, 437, 671, 1094
230592561, -458, -14941, 5112, -4346, 2172, -1435, -2214, -49, 220, -1915, 661, 1009, 797, 675, 317, 437, 671, 1094
230593498, -524, -15011, 4835, -4414, 2300, -1392, -2267, 73, 295, -1690, 661, 1009, 797, 675, 317, 437, 671, 1094
230605413, -524, -15011, 4835, -4414, 2300, -1392, -2267, 73, 295, -1690, 556, 969, 747, 657, 328, 462, 750, 1145
230613360, -524, -15011, 4835, -4414, 2300, -1392, -2267, 73, 295, -1690, 556, 969, 747, 657, 328, 462, 750, 1145
230621022, -526, -15028, 4657, -4544, 2188, -1391, -2240, -62, 311, -1208, 556, 969, 747, 657, 328, 462, 750, 1145
230629250, -526, -15028, 4657, -4544, 2188, -1391, -2240, -62, 311, -1208, 484, 969, 671, 700, 347, 466, 734, 1096
230630071, -526, -15028, 4657, -4544, 2188, -1391, -2240, -62, 311, -1208, 484, 969, 671, 700, 347, 466, 734, 1096
230630988, -481, -15031, 4544, -4653, 2303, -1383, -2287, 61, 114, -775, 484, 969, 671, 700, 347, 466, 734, 1096
230651825, -481, -15031, 4544, -4653, 2303, -1383, -2287, 61, 114, -775, 405, 962, 690, 731, 298, 379, 763, 1146
230652587, -481, -15031, 4544, -4653, 2303, -1383, -2287, 61, 114, -775, 405, 962, 690, 731, 298, 379, 763, 1146
230653535, -440, -15032, 4434, -4759, 2347, -1429, -2236, 18, 97, -781, 405, 962, 690, 731, 298, 379, 763, 1146
230674255, -440, -15032, 4434, -4759, 2347, -1429, -2236, 18, 97, -781, 400, 956, 876, 769, 251, 418, 754, 1174
230675072, -440, -15032, 4434, -4759, 2347, -1429, -2236, 18, 97, -781, 400, 956, 876, 769, 251, 418, 754, 1174
230675984, -366, -15025, 4358, -4855, 2303, -1570, -2213, 67, 32, -580, 400, 956, 876, 769, 251, 418, 754, 1174
230689304, -366, -15025, 4358, -4855, 2303, -1570, -2213, 67, 32, -580, 404, 817, 896, 780, 329, 439, 705, 1206
230690116, -366, -15025, 4358, -4855, 2303, -1570, -2213, 67, 32, -580, 404, 817, 896, 780, 329, 439, 705, 1206
230691041, -278, -15017, 4303, -4933, 2414, -1550, -2271, 106, -97, -431, 404, 817, 896, 780, 329, 439, 705, 1206
230711767, -278, -15017, 4303, -4933, 2414, -1550, -2271, 106, -97, -431, 344, 833, 899, 835, 322, 422, 656, 1203
230712590, -278, -15017, 4303, -4933, 2414, -1550, -2271, 106, -97, -431, 344, 833, 899, 835, 322, 422, 656, 1203
230713516, -201, -14997, 4268, -5028, 2521, -1531, -2298, 72, -7, -305, 344, 833, 899, 835, 322, 422, 656, 1203
230734290, -201, -14997, 4268, -5028, 2521, -1531, -2298, 72, -7, -305, 348, 779, 967, 828, 310, 396, 752, 1171
230735110, -201, -14997, 4268, -5028, 2521, -1531, -2298, 72, -7, -305, 348, 779, 967, 828, 310, 396, 752, 1171
230736035, -136, -14974, 4226, -5133, 2508, -1610, -2255, 15, 88, -374, 348, 779, 967, 828, 310, 396, 752, 1171
230749304, -136, -14974, 4226, -5133, 2508, -1610, -2255, 15, 88, -374, 310, 717, 945, 774, 316, 370, 718, 1084
230750110, -136, -14974, 4226, -5133, 2508, -1610, -2255, 15, 88, -374, 310, 717, 945, 774, 316, 370, 718, 1084
230751036, -55, -14949, 4198, -5229, 2494, -1651, -2295, 64, 58, -282, 310, 717, 945, 774, 316, 370, 718, 1084
230772252, -55, -14949, 4198, -5229, 2494, -1651, -2295, 64, 58, -282, 426, 721, 833, 684, 341, 336, 757, 969
230773047, -55, -14949, 4198, -5229, 2494, -1651, -2295, 64, 58, -282, 426, 721, 833, 684, 341, 336, 757, 969
230773988, 42, -14926, 4188, -5302, 2519, -1651, -2242, 100, -99, -152, 426, 721, 833, 684, 341, 336, 757, 969
230794290, 42, -14926, 4188, -5302, 2519, -1651, -2242, 100, -99, -152, 415, 647, 770, 645, 299, 303, 734, 966
230795108, 42, -14926, 4188, -5302, 2519, -1651, -2242, 100, -99, -152, 415, 647, 770, 645, 299, 303, 734, 966
230796035, 137, -14909, 4170, -5363, 2594, -1572, -2338, 152, -163, -152, 415, 647, 770, 645, 299, 303, 734, 966
230809305, 137, -14909, 4170, -5363, 2594, -1572, -2338, 152, -163, -152, 420, 611, 858, 563, 287, 299, 730, 915
230810091, 137, -14909, 4170, -5363, 2594, -1572, -2338, 152, -163, -152, 420, 611, 858, 563, 287, 299, 730, 915
230811041, 210, -14889, 4152, -5429, 2616, -1565, -2354, 67, -93, -178, 420, 611, 858, 563, 287, 299, 730, 915
230831740, 210, -14889, 4152, -5429, 2616, -1565, -2354, 67, -93, -178, 404, 602, 785, 510, 287, 316, 602, 940
230832559, 210, -14889, 4152, -5429, 2616, -1565, -2354, 67, -93, -178, 404, 602, 785, 510, 287, 316, 602, 940
230833486, 277, -14866, 4140, -5497, 2605, -1569, -2342, 42, -49, -145, 404, 602, 785, 510, 287, 316, 602, 940
230854292, 277, -14866, 4140, -5497, 2605, -1569, -2342, 42, -49, -145, 403, 599, 749, 493, 297, 330, 518, 971
230855084, 277, -14866, 4140, -5497, 2605, -1569, -2342, 42, -49, -145, 403, 599, 749, 493, 297, 330, 518, 971
230856036, 350, -14844, 4148, -5549, 2568, -1586, -2357, 22, -107, -33, 403, 599, 749, 493, 297, 330, 518, 971
230869271, 350, -14844, 4148, -5549, 2568, -1586, -2357, 22, -107, -33, 241, 501, 658, 422, 297, 285, 429, 936
230870086, 350, -14844, 4148, -5549, 2568, -1586, -2357, 22, -107, -33, 241, 501, 658, 422, 297, 285, 429, 936
230871010, 426, -14821, 4166, -5590, 2610, -1583, -2343, 19, -184, 50, 241, 501, 658, 422, 297, 285, 429, 936
230891773, 499, -14798, 4178, -5636, 2626, -1593, -2312, 36, -165, 25, 241, 501, 658, 422, 297, 285, 429, 936
230892560, 499, -14798, 4178, -5636, 2626, -1593, -2312, 36, -165, 25, 204, 467, 632, 372, 262, 259, 396, 773
230893383, 499, -14798, 4178, -5636, 2626, -1593, -2312, 36, -165, 25, 204, 467, 632, 372, 262, 259, 396, 773
230905420, 552, -14772, 4190, -5691, 2641, -1548, -2333, -18, -68, 12, 204, 467, 632, 372, 262, 259, 396, 773
230914250, 552, -14772, 4190, -5691, 2641, -1548, -2333, -18, -68, 12, 161, 388, 407, 343, 264, 230, 328, 674
230915043, 552, -14772, 4190, -5691, 2641, -1548, -2333, -18, -68, 12, 161, 388, 407, 343, 264, 230, 328, 674
230936780, 605, -14740, 4215, -5750, 2583, -1584, -2282, -41, -20, 78, 161, 388, 407, 343, 264, 230, 328, 674
230937584, 605, -14740, 4215, -5750, 2583, -1584, -2282, -41, -20, 78, 134, 282, 257, 343, 301, 230, 304, 559
230938383, 605, -14740, 4215, -5750, 2583, -1584, -2282, -41, -20, 78, 134, 282, 257, 343, 301, 230, 304, 559
230943028, 655, -14709, 4242, -5802, 2572, -1586, -2258, -61, -45, 89, 134, 282, 257, 343, 301, 230, 304, 559
230951074, 655, -14709, 4242, -5802, 2572, -1586, -2258, -61, -45, 89, 120, 222, 218, 215, 290, 193, 294, 383
230951892, 655, -14709, 4242, -5802, 2572, -1586, -2258, -61, -45, 89, 120, 222, 218, 215, 290, 193, 294, 383
230965443, 715, -14680, 4265, -5852, 2581, -1595, -2251, 4, -63, 95, 120, 222, 218, 215, 290, 193, 294, 383
230973569, 715, -14680, 4265, -5852, 2581, -1595, -2251, 4, -63, 95, 91, 172, 198, 256, 277, 180, 258, 217
230974365, 715, -14680, 4265, -5852, 2581, -1595, -2251, 4, -63, 95, 91, 172, 198, 256, 277, 180, 258, 217
230989267, 763, -14654, 4282, -5900, 2584, -1599, -2241, -34, -66, 42, 91, 172, 198, 256, 277, 180, 258, 217
230990089, 763, -14654, 4282, -5900, 2584, -1599, -2241, -34, -66, 42, 77, 156, 134, 255, 301, 186, 208, 190
230990889, 763, -14654, 4282, -5900, 2584, -1599, -2241, -34, -66, 42, 77, 156, 134, 255, 301, 186, 208, 190
231002941, 809, -14627, 4292, -5951, 2626, -1590, -2269, -7, -39, 26, 77, 156, 134, 255, 301, 186, 208, 190
231011489, 809, -14627, 4292, -5951, 2626, -1590, -2269, -7, -39, 26, 71, 152, 96, 245, 325, 178, 173, 166
231017887, 809, -14627, 4292, -5951, 2626, -1590, -2269, -7, -39, 26, 71, 152, 96, 245, 325, 178, 173, 166
231025562, 850, -14600, 4303, -6005, 2591, -1609, -2246, -29, -3, 9, 71, 152, 96, 245, 325, 178, 173, 166
231033534, 850, -14600, 4303, -6005, 2591, -1609, -2246, -29, -3, 9, 71, 131, 82, 233, 282, 146, 121, 128
231034358, 850, -14600, 4303, -6005, 2591, -1609, -2246, -29, -3, 9, 71, 131, 82, 233, 282, 146, 121, 128
231049250, 890, -14575, 4307, -6057, 2601, -1606, -2218, -13, -17, -16, 71, 131, 82, 233, 282, 146, 121, 128
231050067, 890, -14575, 4307, -6057, 2601, -1606, -2218, -13, -17, -16, 71, 140, 78, 218, 289, 149, 108, 101
231050884, 890, -14575, 4307, -6057, 2601, -1606, -2218, -13, -17, -16, 71, 140, 78, 218, 289, 149, 108, 101
231062928, 927, -14550, 4312, -6106, 2611, -1535, -2277, 17, 2, 14, 71, 140, 78, 218, 289, 149, 108, 101
231071089, 927, -14550, 4312, -6106, 2611, -1535, -2277, 17, 2, 14, 61, 161, 69, 204, 303, 169, 103, 78
231071885, 927, -14550, 4312, -6106, 2611, -1535, -2277, 17, 2, 14, 61, 161, 69, 204, 303, 169, 103, 78
231085412, 965, -14524, 4322, -6156, 2578, -1594, -2245, -7, 17, 17, 61, 161, 69, 204, 303, 169, 103, 78
231093563, 965, -14524, 4322, -6156, 2578, -1594, -2245, -7, 17, 17, 64, 169, 72, 188, 294, 204, 103, 67
231094383, 965, -14524, 4322, -6156, 2578, -1594, -2245, -7, 17, 17, 64, 169, 72, 188, 294, 204, 103, 67
231109294, 1003, -14500, 4323, -6206, 2619, -1608, -2246, 22, 11, -19, 64, 169, 72, 188, 294, 204, 103, 67
231110089, 1003, -14500, 4323, -6206, 2619, -1608, -2246, 22, 11, -19, 62, 179, 72, 199, 293, 203, 98, 59
231110913, 1003, -14500, 4323, -6206, 2619, -1608, -2246, 22, 11, -19, 62, 179, 72, 199, 293, 203, 98, 59
231123496, 1036, -14476, 4320, -6257, 2607, -1563, -2277, 36, 48, -33, 62, 179, 72, 199, 293, 203, 98, 59
231131064, 1036, -14476, 4320, -6257, 2607, -1563, -2277, 36, 48, -33, 63, 173, 60, 206, 291, 195, 88, 54
231131885, 1036, -14476, 4320, -6257, 2607, -1563, -2277, 36, 48, -33, 63, 173, 60, 206, 291, 195, 88, 54
231145510, 1064, -14455, 4318, -6304, 2582, -1574, -2269, 7, 47, -41, 63, 173, 60, 206, 291, 195, 88, 54
231153588, 1064, -14455, 4318, -6304, 2582, -1574, -2269, 7, 47, -41, 59, 167, 54, 209, 281, 193, 86, 52
231154392, 1064, -14455, 4318, -6304, 2582, -1574, -2269, 7, 47, -41, 59, 167, 54, 209, 281, 193, 86, 52
231169272, 1094, -14435, 4317, -6345, 2581, -1547, -2277, 33, 28, -26, 59, 167, 54, 209, 281, 193, 86, 52
231170089, 1094, -14435, 4317, -6345, 2581, -1547, -2277, 33, 28, -26, 61, 149, 54, 181, 255, 190, 86, 45
231170911, 1094, -14435, 4317, -6345, 2581, -1547, -2277, 33, 28, -26, 61, 149, 54, 181, 255, 190, 86, 45
231182938, 1129, -14415, 4323, -6380, 2555, -1576, -2264, 25, -1, 16, 61, 149, 54, 181, 255, 190, 86, 45
231191060, 1129, -14415, 4323, -6380, 2555, -1576, -2264, 25, -1, 16, 93, 133, 45, 194, 248, 145, 82, 41
231191866, 1129, -14415, 4323, -6380, 2555, -1576, -2264, 25, -1, 16, 93, 133, 45, 194, 248, 145, 82, 41
231205477, 1174, -14397, 4332, -6406, 2525, -1593, -2268, 58, -40, 50, 93, 133, 45, 194, 248, 145, 82, 41
231213546, 1174, -14397, 4332, -6406, 2525, -1593, -2268, 58, -40, 50, 106, 117, 39, 198, 226, 163, 85, 34
231214368, 1174, -14397, 4332, -6406, 2525, -1593, -2268, 58, -40, 50, 106, 117, 39, 198, 226, 163, 85, 34
231229288, 1216, -14382, 4340, -6427, 2541, -1581, -2282, 54, -59, 51, 106, 117, 39, 198, 226, 163, 85, 34
231230106, 1216, -14382, 4340, -6427, 2541, -1581, -2282, 54, -59, 51, 111, 113, 43, 182, 214, 162, 97, 41
231230901, 1216, -14382, 4340, -6427, 2541, -1581, -2282, 54, -59, 51, 111, 113, 43, 182, 214, 162, 97, 41
