Timestamp, Orientation x, Orientation y, Orientation z, Orientation w, Acceleration x, Acceleration y, Acceleration z, Rotation x, Rotation y, Rotation z, EMG 0, EMG 1, EMG 2, EMG 3, EMG 4, EMG 5, EMG 6, EMG 7
183222783, 2363, -14717, 4941, -4676, 1738, -1616, -2316, -11, 37, 6, 0, 0, 0, 0, 0, 0, 0, 0
183223565, 2373, -14703, 4935, -4721, 1728, -1631, -2315, -15, 17, -2, 0, 0, 0, 0, 0, 0, 0, 0
183237030, 2384, -14689, 4927, -4767, 1731, -1645, -2320, 0, 24, -10, 0, 0, 0, 0, 0, 0, 0, 0
183252060, 2392, -14674, 4920, -4815, 1729, -1630, -2334, -1, 62, -17, 0, 0, 0, 0, 0, 0, 0, 0
183274500, 2399, -14660, 4913, -4861, 1705, -1626, -2345, 1, 69, -20, 0, 0, 0, 0, 0, 0, 0, 0
183290165, 2399, -14660, 4913, -4861, 1705, -1626, -2345, 1, 69, -20, 62, 38, 42, 72, 50, 69, 52, 61
183291237, 2399, -14660, 4913, -4861, 1705, -1626, -2345, 1, 69, -20, 62, 38, 42, 72, 50, 69, 52, 61
183297137, 2408, -14647, 4906, -4902, 1696, -1643, -2355, 6, 60, -22, 62, 38, 42, 72, 50, 69, 52, 61
183320859, 2408, -14647, 4906, -4902, 1696, -1643, -2355, 6, 60, -22, 66, 34, 42, 76, 49, 75, 53, 47
183321649, 2408, -14647, 4906, -4902, 1696, -1643, -2355, 6, 60, -22, 66, 34, 42, 76, 49, 75, 53, 47
183322561, 2420, -14634, 4898, -4946, 1717, -1653, -2359, 28, 64, -25, 66, 34, 42, 76, 49, 75, 53, 47
183335850, 2420, -14634, 4898, -4946, 1717, -1653, -2359, 28, 64, -25, 64, 31, 40, 79, 50, 72, 51, 56
183336653, 2420, -14634, 4898, -4946, 1717, -1653, -2359, 28, 64, -25, 64, 31, 40, 79, 50, 72, 51, 56
183337563, 2432, -14619, 4889, -4991, 1721, -1649, -2355, 38, 82, -26, 64, 31, 40, 79, 50, 72, 51, 56
183350148, 2432, -14619, 4889, -4991, 1721, -1649, -2355, 38, 82, -26, 59, 28, 39, 81, 59, 73, 44, 54
183350960, 2432, -14619, 4889, -4991, 1721, -1649, -2355, 38, 82, -26, 59, 28, 39, 81, 59, 73, 44, 54
183357122, 2439, -14605, 4883, -5036, 1734, -1629, -2374, 33, 98, -18, 59, 28, 39, 81, 59, 73, 44, 54
183373747, 2439, -14605, 4883, -5036, 1734, -1629, -2374, 33, 98, -18, 58, 28, 43, 83, 55, 76, 46, 52
183374568, 2439, -14605, 4883, -5036, 1734, -1629, -2374, 33, 98, -18, 58, 28, 43, 83, 55, 76, 46, 52
183380068, 2443, -14590, 4880, -5080, 1738, -1632, -2385, 12, 106, -6, 58, 28, 43, 83, 55, 76, 46, 52
183395852, 2443, -14590, 4880, -5080, 1738, -1632, -2385, 12, 106, -6, 55, 26, 42, 85, 56, 72, 41, 54
183396661, 2443, -14590, 4880, -5080, 1738, -1632, -2385, 12, 106, -6, 55, 26, 42, 85, 56, 72, 41, 54
183397596, 2450, -14575, 4878, -5121, 1744, -1650, -2396, 25, 105, 4, 55, 26, 42, 85, 56, 72, 41, 54
183413011, 2450, -14575, 4878, -5121, 1744, -1650, -2396, 25, 105, 4, 57, 30, 42, 85, 57, 67, 39, 56
183413018, 2450, -14575, 4878, -5121, 1744, -1650, -2396, 25, 105, 4, 57, 30, 42, 85, 57, 67, 39, 56
183417179, 2452, -14561, 4876, -5161, 1753, -1637, -2399, 4, 107, -1, 57, 30, 42, 85, 57, 67, 39, 56
183433407, 2452, -14561, 4876, -5161, 1753, -1637, -2399, 4, 107, -1, 68, 32, 43, 82, 66, 68, 47, 50
183434154, 2452, -14561, 4876, -5161, 1753, -1637, -2399, 4, 107, -1, 68, 32, 43, 82, 66, 68, 47, 50
183435073, 2452, -14548, 4875, -5200, 1756, -1626, -2383, -1, 106, 0, 68, 32, 43, 82, 66, 68, 47, 50
183455858, 2452, -14548, 4875, -5200, 1756, -1626, -2383, -1, 106, 0, 71, 32, 41, 62, 71, 61, 52, 65
183456647, 2452, -14548, 4875, -5200, 1756, -1626, -2383, -1, 106, 0, 71, 32, 41, 62, 71, 61, 52, 65
183457563, 2451, -14535, 4876, -5235, 1754, -1633, -2377, -18, 97, 6, 71, 32, 41, 62, 71, 61, 52, 65
183470149, 2451, -14535, 4876, -5235, 1754, -1633, -2377, -18, 97, 6, 73, 35, 33, 53, 67, 52, 48, 63
183470976, 2451, -14535, 4876, -5235, 1754, -1633, -2377, -18, 97, 6, 73, 35, 33, 53, 67, 52, 48, 63
183477119, 2448, -14522, 4878, -5269, 1762, -1632, -2376, -25, 98, 11, 73, 35, 33, 53, 67, 52, 48, 63
183493392, 2448, -14522, 4878, -5269, 1762, -1632, -2376, -25, 98, 11, 74, 36, 38, 47, 68, 53, 48, 66
183494171, 2448, -14522, 4878, -5269, 1762, -1632, -2376, -25, 98, 11, 74, 36, 38, 47, 68, 53, 48, 66
183495114, 2450, -14509, 4881, -5303, 1761, -1652, -2381, -5, 102, 11, 74, 36, 38, 47, 68, 53, 48, 66
183514916, 2450, -14509, 4881, -5303, 1761, -1652, -2381, -5, 102, 11, 71, 33, 37, 40, 67, 53, 49, 66
183522660, 2450, -14509, 4881, -5303, 1761, -1652, -2381, -5, 102, 11, 71, 33, 37, 40, 67, 53, 49, 66
183523617, 2444, -14497, 4883, -5337, 1778, -1640, -2389, -38, 109, 0, 71, 33, 37, 40, 67, 53, 49, 66
183532193, 2444, -14497, 4883, -5337, 1778, -1640, -2389, -38, 109, 0, 61, 35, 36, 39, 58, 52, 41, 65
183533015, 2444, -14497, 4883, -5337, 1778, -1640, -2389, -38, 109, 0, 61, 35, 36, 39, 58, 52, 41, 65
183533932, 2444, -14497, 4883, -5337, 1778, -1640, -2389, -38, 109, 0, 61, 35, 36, 39, 58, 52, 41, 65
183534639, 2444, -14497, 4883, -5337, 1778, -1640, -2389, -38, 109, 0, 61, 35, 36, 39, 58, 52, 41, 65
183539019, 2444, -14497, 4883, -5337, 1778, -1640, -2389, -38, 109, 0, 61, 35, 36, 39, 58, 52, 41, 65
183539822, 2444, -14497, 4883, -5337, 1778, -1640, -2389, -38, 109, 0, 61, 35, 36, 39, 58, 52, 41, 65
183540633, 2444, -14497, 4883, -5337, 1778, -1640, -2389, -38, 109, 0, 61, 35, 36, 39, 58, 52, 41, 65
183541561, 2439, -14483, 4885, -5373, 1776, -1618, -2382, -18, 132, 5, 61, 35, 36, 39, 58, 52, 41, 65
183554724, 2373, -14703, 4935, -4721, 1728, -1631, -2315, -15, 17, -2, 61, 35, 36, 39, 58, 52, 41, 65
183555535, 2384, -14689, 4927, -4767, 1731, -1645, -2320, 0, 24, -10, 61, 35, 36, 39, 58, 52, 41, 65
183556387, 2392, -14674, 4920, -4815, 1729, -1630, -2334, -1, 62, -17, 61, 35, 36, 39, 58, 52, 41, 65
183557213, 2399, -14660, 4913, -4861, 1705, -1626, -2345, 1, 69, -20, 61, 35, 36, 39, 58, 52, 41, 65
183560581, 2399, -14660, 4913, -4861, 1705, -1626, -2345, 1, 69, -20, 62, 38, 42, 72, 50, 69, 52, 61
183561407, 2399, -14660, 4913, -4861, 1705, -1626, -2345, 1, 69, -20, 62, 38, 42, 72, 50, 69, 52, 61
183569794, 2408, -14647, 4906, -4902, 1696, -1643, -2355, 6, 60, -22, 62, 38, 42, 72, 50, 69, 52, 61
183570614, 2408, -14647, 4906, -4902, 1696, -1643, -2355, 6, 60, -22, 66, 34, 42, 76, 49, 75, 53, 47
183571413, 2408, -14647, 4906, -4902, 1696, -1643, -2355, 6, 60, -22, 66, 34, 42, 76, 49, 75, 53, 47
183572213, 2408, -14647, 4906, -4902, 1696, -1643, -2355, 6, 60, -22, 66, 34, 42, 76, 49, 75, 53, 47
183577121, 2408, -14647, 4906, -4902, 1696, -1643, -2355, 6, 60, -22, 66, 34, 42, 76, 49, 75, 53, 47
183577935, 2408, -14647, 4906, -4902, 1696, -1643, -2355, 6, 60, -22, 66, 34, 42, 76, 49, 75, 53, 47
183578733, 2408, -14647, 4906, -4902, 1696, -1643, -2355, 6, 60, -22, 66, 34, 42, 76, 49, 75, 53, 47
183579559, 2408, -14647, 4906, -4902, 1696, -1643, -2355, 6, 60, -22, 66, 34, 42, 76, 49, 75, 53, 47
183584634, 2408, -14647, 4906, -4902, 1696, -1643, -2355, 6, 60, -22, 66, 34, 42, 76, 49, 75, 53, 47
183585578, 2420, -14634, 4898, -4946, 1717, -1653, -2359, 28, 64, -25, 66, 34, 42, 76, 49, 75, 53, 47
183586388, 2420, -14634, 4898, -4946, 1717, -1653, -2359, 28, 64, -25, 64, 31, 40, 79, 50, 72, 51, 56
183587189, 2420, -14634, 4898, -4946, 1717, -1653, -2359, 28, 64, -25, 64, 31, 40, 79, 50, 72, 51, 56
183592186, 2420, -14634, 4898, -4946, 1717, -1653, -2359, 28, 64, -25, 64, 31, 40, 79, 50, 72, 51, 56
183593009, 2420, -14634, 4898, -4946, 1717, -1653, -2359, 28, 64, -25, 64, 31, 40, 79, 50, 72, 51, 56
183593833, 2420, -14634, 4898, -4946, 1717, -1653, -2359, 28, 64, -25, 64, 31, 40, 79, 50, 72, 51, 56
183594647, 2420, -14634, 4898, -4946, 1717, -1653, -2359, 28, 64, -25, 64, 31, 40, 79, 50, 72, 51, 56
183599644, 2420, -14634, 4898, -4946, 1717, -1653, -2359, 28, 64, -25, 64, 31, 40, 79, 50, 72, 51, 56
183600465, 2420, -14634, 4898, -4946, 1717, -1653, -2359, 28, 64, -25, 64, 31, 40, 79, 50, 72, 51, 56
183601364, 2420, -14634, 4898, -4946, 1717, -1653, -2359, 28, 64, -25, 64, 31, 40, 79, 50, 72, 51, 56
183602042, 2420, -14634, 4898, -4946, 1717, -1653, -2359, 28, 64, -25, 64, 31, 40, 79, 50, 72, 51, 56
183607162, 2420, -14634, 4898, -4946, 1717, -1653, -2359, 28, 64, -25, 64, 31, 40, 79, 50, 72, 51, 56
183608086, 2432, -14619, 4889, -4991, 1721, -1649, -2355, 38, 82, -26, 64, 31, 40, 79, 50, 72, 51, 56
183608908, 2432, -14619, 4889, -4991, 1721, -1649, -2355, 38, 82, -26, 59, 28, 39, 81, 59, 73, 44, 54
183609735, 2432, -14619, 4889, -4991, 1721, -1649, -2355, 38, 82, -26, 59, 28, 39, 81, 59, 73, 44, 54
183614734, 2432, -14619, 4889, -4991, 1721, -1649, -2355, 38, 82, -26, 59, 28, 39, 81, 59, 73, 44, 54
183615619, 2432, -14619, 4889, -4991, 1721, -1649, -2355, 38, 82, -26, 59, 28, 39, 81, 59, 73, 44, 54
183616372, 2432, -14619, 4889, -4991, 1721, -1649, -2355, 38, 82, -26, 59, 28, 39, 81, 59, 73, 44, 54
183617193, 2432, -14619, 4889, -4991, 1721, -1649, -2355, 38, 82, -26, 59, 28, 39, 81, 59, 73, 44, 54
183622135, 2432, -14619, 4889, -4991, 1721, -1649, -2355, 38, 82, -26, 59, 28, 39, 81, 59, 73, 44, 54
183622943, 2432, -14619, 4889, -4991, 1721, -1649, -2355, 38, 82, -26, 59, 28, 39, 81, 59, 73, 44, 54
183623763, 2432, -14619, 4889, -4991, 1721, -1649, -2355, 38, 82, -26, 59, 28, 39, 81, 59, 73, 44, 54
183624561, 2432, -14619, 4889, -4991, 1721, -1649, -2355, 38, 82, -26, 59, 28, 39, 81, 59, 73, 44, 54
183627413, 2432, -14619, 4889, -4991, 1721, -1649, -2355, 38, 82, -26, 59, 28, 39, 81, 59, 73, 44, 54
183637268, 2439, -14605, 4883, -5036, 1734, -1629, -2374, 33, 98, -18, 59, 28, 39, 81, 59, 73, 44, 54
183638098, 2439, -14605, 4883, -5036, 1734, -1629, -2374, 33, 98, -18, 58, 28, 43, 83, 55, 76, 46, 52
183638889, 2439, -14605, 4883, -5036, 1734, -1629, -2374, 33, 98, -18, 58, 28, 43, 83, 55, 76, 46, 52
183639713, 2439, -14605, 4883, -5036, 1734, -1629, -2374, 33, 98, -18, 58, 28, 43, 83, 55, 76, 46, 52
183644599, 2439, -14605, 4883, -5036, 1734, -1629, -2374, 33, 98, -18, 58, 28, 43, 83, 55, 76, 46, 52
183645411, 2439, -14605, 4883, -5036, 1734, -1629, -2374, 33, 98, -18, 58, 28, 43, 83, 55, 76, 46, 52
183646209, 2439, -14605, 4883, -5036, 1734, -1629, -2374, 33, 98, -18, 58, 28, 43, 83, 55, 76, 46, 52
183647031, 2439, -14605, 4883, -5036, 1734, -1629, -2374, 33, 98, -18, 58, 28, 43, 83, 55, 76, 46, 52
183652175, 2439, -14605, 4883, -5036, 1734, -1629, -2374, 33, 98, -18, 58, 28, 43, 83, 55, 76, 46, 52
183653113, 2443, -14590, 4880, -5080, 1738, -1632, -2385, 12, 106, -6, 58, 28, 43, 83, 55, 76, 46, 52
183653910, 2443, -14590, 4880, -5080, 1738, -1632, -2385, 12, 106, -6, 55, 26, 42, 85, 56, 72, 41, 54
183654733, 2443, -14590, 4880, -5080, 1738, -1632, -2385, 12, 106, -6, 55, 26, 42, 85, 56, 72, 41, 54
183659744, 2443, -14590, 4880, -5080, 1738, -1632, -2385, 12, 106, -6, 55, 26, 42, 85, 56, 72, 41, 54
183660560, 2443, -14590, 4880, -5080, 1738, -1632, -2385, 12, 106, -6, 55, 26, 42, 85, 56, 72, 41, 54
183661359, 2443, -14590, 4880, -5080, 1738, -1632, -2385, 12, 106, -6, 55, 26, 42, 85, 56, 72, 41, 54
183662187, 2443, -14590, 4880, -5080, 1738, -1632, -2385, 12, 106, -6, 55, 26, 42, 85, 56, 72, 41, 54
183667156, 2443, -14590, 4880, -5080, 1738, -1632, -2385, 12, 106, -6, 55, 26, 42, 85, 56, 72, 41, 54
183667943, 2443, -14590, 4880, -5080, 1738, -1632, -2385, 12, 106, -6, 55, 26, 42, 85, 56, 72, 41, 54
183668759, 2443, -14590, 4880, -5080, 1738, -1632, -2385, 12, 106, -6, 55, 26, 42, 85, 56, 72, 41, 54
183669581, 2443, -14590, 4880, -5080, 1738, -1632, -2385, 12, 106, -6, 55, 26, 42, 85, 56, 72, 41, 54
183674639, 2443, -14590, 4880, -5080, 1738, -1632, -2385, 12, 106, -6, 55, 26, 42, 85, 56, 72, 41, 54
183675586, 2450, -14575, 4878, -5121, 1744, -1650, -2396, 25, 105, 4, 55, 26, 42, 85, 56, 72, 41, 54
183676384, 2450, -14575, 4878, -5121, 1744, -1650, -2396, 25, 105, 4, 57, 30, 42, 85, 57, 67, 39, 56
183677211, 2450, -14575, 4878, -5121, 1744, -1650, -2396, 25, 105, 4, 57, 30, 42, 85, 57, 67, 39, 56
183682208, 2450, -14575, 4878, -5121, 1744, -1650, -2396, 25, 105, 4, 57, 30, 42, 85, 57, 67, 39, 56
183683037, 2450, -14575, 4878, -5121, 1744, -1650, -2396, 25, 105, 4, 57, 30, 42, 85, 57, 67, 39, 56
183683838, 2450, -14575, 4878, -5121, 1744, -1650, -2396, 25, 105, 4, 57, 30, 42, 85, 57, 67, 39, 56
183684660, 2450, -14575, 4878, -5121, 1744, -1650, -2396, 25, 105, 4, 57, 30, 42, 85, 57, 67, 39, 56
183689607, 2450, -14575, 4878, -5121, 1744, -1650, -2396, 25, 105, 4, 57, 30, 42, 85, 57, 67, 39, 56
183690431, 2450, -14575, 4878, -5121, 1744, -1650, -2396, 25, 105, 4, 57, 30, 42, 85, 57, 67, 39, 56
183691234, 2450, -14575, 4878, -5121, 1744, -1650, -2396, 25, 105, 4, 57, 30, 42, 85, 57, 67, 39, 56
183692055, 2450, -14575, 4878, -5121, 1744, -1650, -2396, 25, 105, 4, 57, 30, 42, 85, 57, 67, 39, 56
183697126, 2450, -14575, 4878, -5121, 1744, -1650, -2396, 25, 105, 4, 57, 30, 42, 85, 57, 67, 39, 56
183698072, 2452, -14561, 4876, -5161, 1753, -1637, -2399, 4, 107, -1, 57, 30, 42, 85, 57, 67, 39, 56
183698863, 2452, -14561, 4876, -5161, 1753, -1637, -2399, 4, 107, -1, 68, 32, 43, 82, 66, 68, 47, 50
183699681, 2452, -14561, 4876, -5161, 1753, -1637, -2399, 4, 107, -1, 68, 32, 43, 82, 66, 68, 47, 50
183704698, 2452, -14561, 4876, -5161, 1753, -1637, -2399, 4, 107, -1, 68, 32, 43, 82, 66, 68, 47, 50
183705510, 2452, -14561, 4876, -5161, 1753, -1637, -2399, 4, 107, -1, 68, 32, 43, 82, 66, 68, 47, 50
183706359, 2452, -14561, 4876, -5161, 1753, -1637, -2399, 4, 107, -1, 68, 32, 43, 82, 66, 68, 47, 50
183707138, 2452, -14561, 4876, -5161, 1753, -1637, -2399, 4, 107, -1, 68, 32, 43, 82, 66, 68, 47, 50
183712139, 2452, -14561, 4876, -5161, 1753, -1637, -2399, 4, 107, -1, 68, 32, 43, 82, 66, 68, 47, 50
183712967, 2452, -14561, 4876, -5161, 1753, -1637, -2399, 4, 107, -1, 68, 32, 43, 82, 66, 68, 47, 50
183713790, 2452, -14561, 4876, -5161, 1753, -1637, -2399, 4, 107, -1, 68, 32, 43, 82, 66, 68, 47, 50
183714592, 2452, -14561, 4876, -5161, 1753, -1637, -2399, 4, 107, -1, 68, 32, 43, 82, 66, 68, 47, 50
183727141, 2452, -14561, 4876, -5161, 1753, -1637, -2399, 4, 107, -1, 68, 32, 43, 82, 66, 68, 47, 50
183728067, 2452, -14548, 4875, -5200, 1756, -1626, -2383, -1, 106, 0, 68, 32, 43, 82, 66, 68, 47, 50
183728889, 2452, -14548, 4875, -5200, 1756, -1626, -2383, -1, 106, 0, 71, 32, 41, 62, 71, 61, 52, 65
183729729, 2452, -14548, 4875, -5200, 1756, -1626, -2383, -1, 106, 0, 71, 32, 41, 62, 71, 61, 52, 65
183734735, 2452, -14548, 4875, -5200, 1756, -1626, -2383, -1, 106, 0, 71, 32, 41, 62, 71, 61, 52, 65
183735514, 2452, -14548, 4875, -5200, 1756, -1626, -2383, -1, 106, 0, 71, 32, 41, 62, 71, 61, 52, 65
183736358, 2452, -14548, 4875, -5200, 1756, -1626, -2383, -1, 106, 0, 71, 32, 41, 62, 71, 61, 52, 65
183737189, 2452, -14548, 4875, -5200, 1756, -1626, -2383, -1, 106, 0, 71, 32, 41, 62, 71, 61, 52, 65
183739898, 2452, -14548, 4875, -5200, 1756, -1626, -2383, -1, 106, 0, 71, 32, 41, 62, 71, 61, 52, 65
183749677, 2452, -14548, 4875, -5200, 1756, -1626, -2383, -1, 106, 0, 71, 32, 41, 62, 71, 61, 52, 65
183750489, 2452, -14548, 4875, -5200, 1756, -1626, -2383, -1, 106, 0, 71, 32, 41, 62, 71, 61, 52, 65
183751364, 2452, -14548, 4875, -5200, 1756, -1626, -2383, -1, 106, 0, 71, 32, 41, 62, 71, 61, 52, 65
183752041, 2452, -14548, 4875, -5200, 1756, -1626, -2383, -1, 106, 0, 71, 32, 41, 62, 71, 61, 52, 65
183755692, 2451, -14535, 4876, -5235, 1754, -1633, -2377, -18, 97, 6, 71, 32, 41, 62, 71, 61, 52, 65
183756482, 2451, -14535, 4876, -5235, 1754, -1633, -2377, -18, 97, 6, 73, 35, 33, 53, 67, 52, 48, 63
183764647, 2451, -14535, 4876, -5235, 1754, -1633, -2377, -18, 97, 6, 73, 35, 33, 53, 67, 52, 48, 63
183765459, 2451, -14535, 4876, -5235, 1754, -1633, -2377, -18, 97, 6, 73, 35, 33, 53, 67, 52, 48, 63
183766265, 2451, -14535, 4876, -5235, 1754, -1633, -2377, -18, 97, 6, 73, 35, 33, 53, 67, 52, 48, 63
183767065, 2451, -14535, 4876, -5235, 1754, -1633, -2377, -18, 97, 6, 73, 35, 33, 53, 67, 52, 48, 63
183772158, 2451, -14535, 4876, -5235, 1754, -1633, -2377, -18, 97, 6, 73, 35, 33, 53, 67, 52, 48, 63
183772967, 2451, -14535, 4876, -5235, 1754, -1633, -2377, -18, 97, 6, 73, 35, 33, 53, 67, 52, 48, 63
183773760, 2451, -14535, 4876, -5235, 1754, -1633, -2377, -18, 97, 6, 73, 35, 33, 53, 67, 52, 48, 63
183774683, 2451, -14535, 4876, -5235, 1754, -1633, -2377, -18, 97, 6, 74, 36, 38, 47, 68, 53, 48, 66
183779714, 2451, -14535, 4876, -5235, 1754, -1633, -2377, -18, 97, 6, 74, 36, 38, 47, 68, 53, 48, 66
183780517, 2451, -14535, 4876, -5235, 1754, -1633, -2377, -18, 97, 6, 74, 36, 38, 47, 68, 53, 48, 66
183781374, 2451, -14535, 4876, -5235, 1754, -1633, -2377, -18, 97, 6, 74, 36, 38, 47, 68, 53, 48, 66
183782154, 2451, -14535, 4876, -5235, 1754, -1633, -2377, -18, 97, 6, 74, 36, 38, 47, 68, 53, 48, 66
183787151, 2451, -14535, 4876, -5235, 1754, -1633, -2377, -18, 97, 6, 74, 36, 38, 47, 68, 53, 48, 66
183787961, 2451, -14535, 4876, -5235, 1754, -1633, -2377, -18, 97, 6, 74, 36, 38, 47, 68, 53, 48, 66
183788794, 2451, -14535, 4876, -5235, 1754, -1633, -2377, -18, 97, 6, 74, 36, 38, 47, 68, 53, 48, 66
183789584, 2451, -14535, 4876, -5235, 1754, -1633, -2377, -18, 97, 6, 74, 36, 38, 47, 68, 53, 48, 66
183794703, 2451, -14535, 4876, -5235, 1754, -1633, -2377, -18, 97, 6, 74, 36, 38, 47, 68, 53, 48, 66
183795653, 2450, -14509, 4881, -5303, 1761, -1652, -2381, -5, 102, 11, 74, 36, 38, 47, 68, 53, 48, 66
183796418, 2450, -14509, 4881, -5303, 1761, -1652, -2381, -5, 102, 11, 71, 33, 37, 40, 67, 53, 49, 66
183797213, 2450, -14509, 4881, -5303, 1761, -1652, -2381, -5, 102, 11, 71, 33, 37, 40, 67, 53, 49, 66
183801944, 2450, -14509, 4881, -5303, 1761, -1652, -2381, -5, 102, 11, 71, 33, 37, 40, 67, 53, 49, 66
183802739, 2450, -14509, 4881, -5303, 1761, -1652, -2381, -5, 102, 11, 71, 33, 37, 40, 67, 53, 49, 66
183803564, 2450, -14509, 4881, -5303, 1761, -1652, -2381, -5, 102, 11, 71, 33, 37, 40, 67, 53, 49, 66
183809616, 2450, -14509, 4881, -5303, 1761, -1652, -2381, -5, 102, 11, 71, 33, 37, 40, 67, 53, 49, 66
183810439, 2450, -14509, 4881, -5303, 1761, -1652, -2381, -5, 102, 11, 71, 33, 37, 40, 67, 53, 49, 66
183811243, 2450, -14509, 4881, -5303, 1761, -1652, -2381, -5, 102, 11, 71, 33, 37, 40, 67, 53, 49, 66
183812074, 2450, -14509, 4881, -5303, 1761, -1652, -2381, -5, 102, 11, 71, 33, 37, 40, 67, 53, 49, 66
183816534, 2450, -14509, 4881, -5303, 1761, -1652, -2381, -5, 102, 11, 71, 33, 37, 40, 67, 53, 49, 66
183817429, 2444, -14497, 4883, -5337, 1778, -1640, -2389, -38, 109, 0, 71, 33, 37, 40, 67, 53, 49, 66
183818267, 2444, -14497, 4883, -5337, 1778, -1640, -2389, -38, 109, 0, 61, 35, 36, 39, 58, 52, 41, 65
183819071, 2444, -14497, 4883, -5337, 1778, -1640, -2389, -38, 109, 0, 61, 35, 36, 39, 58, 52, 41, 65
183830201, 2444, -14497, 4883, -5337, 1778, -1640, -2389, -38, 109, 0, 86, 54, 40, 73, 85, 156, 108, 159
183831011, 2444, -14497, 4883, -5337, 1778, -1640, -2389, -38, 109, 0, 86, 54, 40, 73, 85, 156, 108, 159
183837127, 2272, -13672, 5324, -6930, 1708, -1600, -2392, 302, 1453, 209, 86, 54, 40, 73, 85, 156, 108, 159
183852677, 2272, -13672, 5324, -6930, 1708, -1600, -2392, 302, 1453, 209, 96, 59, 43, 69, 80, 164, 120, 170
183853460, 2272, -13672, 5324, -6930, 1708, -1600, -2392, 302, 1453, 209, 96, 59, 43, 69, 80, 164, 120, 170
183859654, 2251, -13552, 5388, -7119, 1731, -1601, -2408, 353, 1535, 254, 96, 59, 43, 69, 80, 164, 120, 170
183875858, 2251, -13552, 5388, -7119, 1731, -1601, -2408, 353, 1535, 254, 96, 61, 42, 72, 100, 167, 130, 190
183876645, 2251, -13552, 5388, -7119, 1731, -1601, -2408, 353, 1535, 254, 96, 61, 42, 72, 100, 167, 130, 190
183877608, 2223, -13405, 5444, -7361, 1724, -1626, -2391, 336, 1650, 255, 96, 61, 42, 72, 100, 167, 130, 190
183889501, 2223, -13405, 5444, -7361, 1724, -1626, -2391, 336, 1650, 255, 95, 62, 45, 80, 101, 164, 138, 189
183897678, 2223, -13405, 5444, -7361, 1724, -1626, -2391, 336, 1650, 255, 95, 62, 45, 80, 101, 164, 138, 189
183898579, 2198, -13250, 5497, -7604, 1712, -1646, -2398, 374, 1681, 260, 95, 62, 45, 80, 101, 164, 138, 189
183912652, 2198, -13250, 5497, -7604, 1712, -1646, -2398, 374, 1681, 260, 96, 59, 44, 80, 101, 138, 129, 179
183913448, 2198, -13250, 5497, -7604, 1712, -1646, -2398, 374, 1681, 260, 96, 59, 44, 80, 101, 138, 129, 179
183919608, 2164, -13092, 5559, -7840, 1725, -1646, -2379, 308, 1688, 283, 96, 59, 44, 80, 101, 138, 129, 179
183935889, 2164, -13092, 5559, -7840, 1725, -1646, -2379, 308, 1688, 283, 114, 58, 42, 66, 94, 119, 123, 183
183936649, 2164, -13092, 5559, -7840, 1725, -1646, -2379, 308, 1688, 283, 114, 58, 42, 66, 94, 119, 123, 183
183937586, 2126, -12919, 5626, -8085, 1733, -1637, -2416, 311, 1790, 320, 114, 58, 42, 66, 94, 119, 123, 183
183949476, 2126, -12919, 5626, -8085, 1733, -1637, -2416, 311, 1790, 320, 106, 57, 47, 71, 93, 105, 123, 166
183957676, 2126, -12919, 5626, -8085, 1733, -1637, -2416, 311, 1790, 320, 106, 57, 47, 71, 93, 105, 123, 166
183958620, 2072, -12738, 5699, -8333, 1686, -1637, -2402, 245, 1880, 306, 106, 57, 47, 71, 93, 105, 123, 166
183973227, 2072, -12738, 5699, -8333, 1686, -1637, -2402, 245, 1880, 306, 112, 52, 47, 74, 88, 102, 115, 148
183974011, 2072, -12738, 5699, -8333, 1686, -1637, -2402, 245, 1880, 306, 112, 52, 47, 74, 88, 102, 115, 148
183979626, 2003, -12553, 5772, -8576, 1675, -1636, -2437, 187, 1909, 276, 112, 52, 47, 74, 88, 102, 115, 148
184003327, 2003, -12553, 5772, -8576, 1675, -1636, -2437, 187, 1909, 276, 120, 52, 54, 65, 82, 97, 112, 152
184004124, 2003, -12553, 5772, -8576, 1675, -1636, -2437, 187, 1909, 276, 120, 52, 54, 65, 82, 97, 112, 152
184005042, 1919, -12363, 5845, -8819, 1708, -1584, -2443, 136, 1963, 248, 120, 52, 54, 65, 82, 97, 112, 152
184019056, 1919, -12363, 5845, -8819, 1708, -1584, -2443, 136, 1963, 248, 116, 55, 63, 61, 79, 85, 103, 148
184019812, 1919, -12363, 5845, -8819, 1708, -1584, -2443, 136, 1963, 248, 116, 55, 63, 61, 79, 85, 103, 148
184020632, 1919, -12363, 5845, -8819, 1708, -1584, -2443, 136, 1963, 248, 116, 55, 63, 61, 79, 85, 103, 148
184021559, 1851, -12169, 5919, -9050, 1685, -1556, -2428, 181, 1904, 314, 116, 55, 63, 61, 79, 85, 103, 148
184033128, 1851, -12169, 5919, -9050, 1685, -1556, -2428, 181, 1904, 314, 163, 50, 65, 65, 80, 82, 100, 165
184040136, 1851, -12169, 5919, -9050, 1685, -1556, -2428, 181, 1904, 314, 163, 50, 65, 65, 80, 82, 100, 165
184041079, 1779, -11979, 6009, -9256, 1750, -1635, -2375, 74, 1807, 373, 163, 50, 65, 65, 80, 82, 100, 165
184055875, 1779, -11979, 6009, -9256, 1750, -1635, -2375, 74, 1807, 373, 267, 54, 78, 57, 83, 95, 96, 160
184056648, 1779, -11979, 6009, -9256, 1750, -1635, -2375, 74, 1807, 373, 267, 54, 78, 57, 83, 95, 96, 160
184057585, 1702, -11790, 6103, -9451, 1834, -1702, -2315, 6, 1769, 378, 267, 54, 78, 57, 83, 95, 96, 160
184078395, 1702, -11790, 6103, -9451, 1834, -1702, -2315, 6, 1769, 378, 378, 252, 139, 78, 82, 117, 95, 157
184079135, 1702, -11790, 6103, -9451, 1834, -1702, -2315, 6, 1769, 378, 378, 252, 139, 78, 82, 117, 95, 157
184080066, 1618, -11612, 6189, -9628, 1826, -1719, -2271, -35, 1676, 311, 378, 252, 139, 78, 82, 117, 95, 157
184092648, 1618, -11612, 6189, -9628, 1826, -1719, -2271, -35, 1676, 311, 400, 320, 222, 84, 82, 124, 110, 232
184093444, 1618, -11612, 6189, -9628, 1826, -1719, -2271, -35, 1676, 311, 400, 320, 222, 84, 82, 124, 110, 232
184099611, 1521, -11437, 6279, -9793, 1802, -1662, -2221, -120, 1648, 285, 400, 320, 222, 84, 82, 124, 110, 232
184115807, 1521, -11437, 6279, -9793, 1802, -1662, -2221, -120, 1648, 285, 402, 328, 251, 86, 81, 130, 115, 239
184116588, 1521, -11437, 6279, -9793, 1802, -1662, -2221, -120, 1648, 285, 402, 328, 251, 86, 81, 130, 115, 239
184117550, 1431, -11260, 6367, -9953, 1837, -1718, -2246, -90, 1628, 305, 402, 328, 251, 86, 81, 130, 115, 239
184138445, 1431, -11260, 6367, -9953, 1837, -1718, -2246, -90, 1628, 305, 388, 381, 265, 91, 79, 141, 123, 232
184139687, 1431, -11260, 6367, -9953, 1837, -1718, -2246, -90, 1628, 305, 388, 381, 265, 91, 79, 141, 123, 232
184140094, 1333, -11141, 6501, -10014, 1867, -1678, -2153, -153, 1583, 305, 388, 381, 265, 91, 79, 141, 123, 232
184152678, 1333, -11141, 6501, -10014, 1867, -1678, -2153, -153, 1583, 305, 344, 442, 262, 97, 80, 142, 144, 303
184153473, 1333, -11141, 6501, -10014, 1867, -1678, -2153, -153, 1583, 305, 344, 442, 262, 97, 80, 142, 144, 303
184159639, 1253, -11023, 6625, -10074, 1914, -1695, -2191, -32, 1559, 341, 344, 442, 262, 97, 80, 142, 144, 303
184175827, 1253, -11023, 6625, -10074, 1914, -1695, -2191, -32, 1559, 341, 234, 393, 241, 78, 66, 133, 156, 322
184176631, 1253, -11023, 6625, -10074, 1914, -1695, -2191, -32, 1559, 341, 234, 393, 241, 78, 66, 133, 156, 322
184177546, 1177, -10909, 6747, -10127, 1886, -1704, -2183, -24, 1507, 334, 234, 393, 241, 78, 66, 133, 156, 322
184198377, 1177, -10909, 6747, -10127, 1886, -1704, -2183, -24, 1507, 334, 222, 349, 172, 71, 84, 137, 146, 284
184199144, 1177, -10909, 6747, -10127, 1886, -1704, -2183, -24, 1507, 334, 222, 349, 172, 71, 84, 137, 146, 284
184200067, 1113, -10797, 6858, -10179, 1907, -1714, -2118, 48, 1437, 342, 222, 349, 172, 71, 84, 137, 146, 284
184219918, 1113, -10797, 6858, -10179, 1907, -1714, -2118, 48, 1437, 342, 239, 343, 134, 72, 84, 140, 165, 295
184227681, 1113, -10797, 6858, -10179, 1907, -1714, -2118, 48, 1437, 342, 239, 343, 134, 72, 84, 140, 165, 295
184228691, 1043, -10675, 6958, -10246, 1977, -1718, -2161, 132, 1561, 330, 239, 343, 134, 72, 84, 140, 165, 295
184235876, 1043, -10675, 6958, -10246, 1977, -1718, -2161, 132, 1561, 330, 246, 294, 111, 78, 99, 153, 201, 323
184236702, 1043, -10675, 6958, -10246, 1977, -1718, -2161, 132, 1561, 330, 246, 294, 111, 78, 99, 153, 201, 323
184237486, 1043, -10675, 6958, -10246, 1977, -1718, -2161, 132, 1561, 330, 246, 294, 111, 78, 99, 153, 201, 323
184243073, 1043, -10675, 6958, -10246, 1977, -1718, -2161, 132, 1561, 330, 246, 294, 111, 78, 99, 153, 201, 323
184243890, 1043, -10675, 6958, -10246, 1977, -1718, -2161, 132, 1561, 330, 246, 294, 111, 78, 99, 153, 201, 323
184250287, 969, -10554, 7051, -10315, 1925, -1622, -2161, 169, 1584, 312, 246, 294, 111, 78, 99, 153, 201, 323
184251097, 969, -10554, 7051, -10315, 1925, -1622, -2161, 169, 1584, 312, 246, 294, 111, 78, 99, 153, 201, 323
184258361, 969, -10554, 7051, -10315, 1925, -1622, -2161, 169, 1584, 312, 230, 194, 109, 101, 110, 160, 219, 308
184259137, 969, -10554, 7051, -10315, 1925, -1622, -2161, 169, 1584, 312, 230, 194, 109, 101, 110, 160, 219, 308
184260086, 911, -10443, 7138, -10373, 1904, -1682, -2149, 224, 1475, 294, 230, 194, 109, 101, 110, 160, 219, 308
184280794, 911, -10443, 7138, -10373, 1904, -1682, -2149, 224, 1475, 294, 222, 137, 99, 109, 110, 156, 220, 311
184281610, 911, -10443, 7138, -10373, 1904, -1682, -2149, 224, 1475, 294, 222, 137, 99, 109, 110, 156, 220, 311
184282536, 859, -10340, 7224, -10422, 1893, -1633, -2190, 252, 1421, 329, 222, 137, 99, 109, 110, 156, 220, 311
184295154, 859, -10340, 7224, -10422, 1893, -1633, -2190, 252, 1421, 329, 191, 123, 93, 118, 110, 153, 220, 305
184295941, 859, -10340, 7224, -10422, 1893, -1633, -2190, 252, 1421, 329, 191, 123, 93, 118, 110, 153, 220, 305
184302091, 810, -10238, 7307, -10468, 1877, -1685, -2150, 260, 1387, 300, 191, 123, 93, 118, 110, 153, 220, 305
184317383, 810, -10238, 7307, -10468, 1877, -1685, -2150, 260, 1387, 300, 164, 135, 97, 118, 111, 147, 205, 304
184325118, 810, -10238, 7307, -10468, 1877, -1685, -2150, 260, 1387, 300, 164, 135, 97, 118, 111, 147, 205, 304
184326062, 766, -10144, 7378, -10513, 1904, -1660, -2237, 353, 1378, 287, 164, 135, 97, 118, 111, 147, 205, 304
184340826, 766, -10144, 7378, -10513, 1904, -1660, -2237, 353, 1378, 287, 135, 118, 93, 114, 99, 128, 170, 288
184341645, 766, -10144, 7378, -10513, 1904, -1660, -2237, 353, 1378, 287, 135, 118, 93, 114, 99, 128, 170, 288
184342590, 718, -10059, 7449, -10548, 1910, -1663, -2265, 341, 1334, 256, 135, 118, 93, 114, 99, 128, 170, 288
184355094, 718, -10059, 7449, -10548, 1910, -1663, -2265, 341, 1334, 256, 122, 115, 90, 90, 88, 111, 141, 255
184355910, 718, -10059, 7449, -10548, 1910, -1663, -2265, 341, 1334, 256, 122, 115, 90, 90, 88, 111, 141, 255
184362063, 676, -9989, 7516, -10569, 1892, -1614, -2262, 341, 1215, 252, 122, 115, 90, 90, 88, 111, 141, 255
184378364, 676, -9989, 7516, -10569, 1892, -1614, -2262, 341, 1215, 252, 101, 121, 95, 90, 90, 115, 153, 243
184379112, 676, -9989, 7516, -10569, 1892, -1614, -2262, 341, 1215, 252, 101, 121, 95, 90, 90, 115, 153, 243
184380061, 634, -9929, 7589, -10577, 1911, -1622, -2250, 281, 1132, 255, 101, 121, 95, 90, 90, 115, 153, 243
184400844, 634, -9929, 7589, -10577, 1911, -1622, -2250, 281, 1132, 255, 98, 115, 90, 82, 73, 113, 162, 256
184401620, 634, -9929, 7589, -10577, 1911, -1622, -2250, 281, 1132, 255, 98, 115, 90, 82, 73, 113, 162, 256
184402569, 598, -9879, 7663, -10573, 1937, -1653, -2258, 272, 1033, 259, 98, 115, 90, 82, 73, 113, 162, 256
184414606, 598, -9879, 7663, -10573, 1937, -1653, -2258, 272, 1033, 259, 92, 100, 74, 80, 72, 111, 165, 258
184422652, 598, -9879, 7663, -10573, 1937, -1653, -2258, 272, 1033, 259, 92, 100, 74, 80, 72, 111, 165, 258
184423551, 565, -9842, 7741, -10552, 1885, -1693, -2289, 227, 936, 222, 92, 100, 74, 80, 72, 111, 165, 258
184438403, 565, -9842, 7741, -10552, 1885, -1693, -2289, 227, 936, 222, 86, 99, 71, 93, 68, 104, 165, 241
184439156, 565, -9842, 7741, -10552, 1885, -1693, -2289, 227, 936, 222, 86, 99, 71, 93, 68, 104, 165, 241
184440067, 531, -9816, 7816, -10522, 1897, -1709, -2252, 192, 837, 185, 86, 99, 71, 93, 68, 104, 165, 241
184460833, 531, -9816, 7816, -10522, 1897, -1709, -2252, 192, 837, 185, 74, 91, 73, 94, 67, 104, 150, 228
184461615, 531, -9816, 7816, -10522, 1897, -1709, -2252, 192, 837, 185, 74, 91, 73, 94, 67, 104, 150, 228
184462538, 492, -9805, 7891, -10479, 1911, -1690, -2251, 129, 745, 148, 74, 91, 73, 94, 67, 104, 150, 228
184483388, 492, -9805, 7891, -10479, 1911, -1690, -2251, 129, 745, 148, 66, 79, 66, 90, 56, 88, 119, 224
184484150, 492, -9805, 7891, -10479, 1911, -1690, -2251, 129, 745, 148, 66, 79, 66, 90, 56, 88, 119, 224
184485060, 460, -9799, 7964, -10430, 1924, -1710, -2250, 135, 676, 150, 66, 79, 66, 90, 56, 88, 119, 224
184498369, 460, -9799, 7964, -10430, 1924, -1710, -2250, 135, 676, 150, 75, 78, 67, 106, 81, 85, 102, 207
184499118, 460, -9799, 7964, -10430, 1924, -1710, -2250, 135, 676, 150, 75, 78, 67, 106, 81, 85, 102, 207
184500065, 426, -9809, 8033, -10370, 1963, -1701, -2230, 97, 557, 108, 75, 78, 67, 106, 81, 85, 102, 207
184520794, 426, -9809, 8033, -10370, 1963, -1701, -2230, 97, 557, 108, 81, 76, 67, 111, 84, 109, 122, 214
184521590, 426, -9809, 8033, -10370, 1963, -1701, -2230, 97, 557, 108, 81, 76, 67, 111, 84, 109, 122, 214
184522541, 392, -9831, 8104, -10294, 1927, -1704, -2198, 22, 440, 71, 81, 76, 67, 111, 84, 109, 122, 214
