Timestamp, Orientation x, Orientation y, Orientation z, Orientation w, Acceleration x, Acceleration y, Acceleration z, Rotation x, Rotation y, Rotation z, EMG 0, EMG 1, EMG 2, EMG 3, EMG 4, EMG 5, EMG 6, EMG 7
144658410, 2102, -14846, 4730, -4611, 2003, -1654, -2086, 18, 27, 43, 0, 0, 0, 0, 0, 0, 0, 0
144665799, 2120, -14819, 4731, -4687, 1977, -1676, -2090, -54, 31, 47, 0, 0, 0, 0, 0, 0, 0, 0
144680768, 2138, -14794, 4732, -4758, 1981, -1667, -2082, -53, 9, 56, 0, 0, 0, 0, 0, 0, 0, 0
144703415, 2160, -14766, 4734, -4830, 1999, -1726, -2050, -48, 10, 50, 0, 0, 0, 0, 0, 0, 0, 0
144728283, 2184, -14738, 4732, -4906, 1992, -1743, -2035, -25, 44, 32, 0, 0, 0, 0, 0, 0, 0, 0
144728289, 2184, -14738, 4732, -4906, 1992, -1743, -2035, -25, 44, 32, 65, 41, 38, 49, 28, 55, 32, 29
144728833, 2184, -14738, 4732, -4906, 1992, -1743, -2035, -25, 44, 32, 65, 41, 38, 49, 28, 55, 32, 29
144744056, 2205, -14711, 4730, -4982, 1975, -1737, -2025, -35, 59, 16, 65, 41, 38, 49, 28, 55, 32, 29
144748982, 2205, -14711, 4730, -4982, 1975, -1737, -2025, -35, 59, 16, 73, 45, 40, 52, 33, 54, 34, 36
144749756, 2205, -14711, 4730, -4982, 1975, -1737, -2025, -35, 59, 16, 73, 45, 40, 52, 33, 54, 34, 36
144763405, 2221, -14683, 4726, -5058, 1977, -1716, -2028, -33, 87, 8, 73, 45, 40, 52, 33, 54, 34, 36
144771429, 2221, -14683, 4726, -5058, 1977, -1716, -2028, -33, 87, 8, 77, 45, 37, 45, 36, 43, 32, 37
144772238, 2221, -14683, 4726, -5058, 1977, -1716, -2028, -33, 87, 8, 77, 45, 37, 45, 36, 43, 32, 37
144787119, 2235, -14657, 4724, -5130, 1949, -1714, -2037, -41, 96, 4, 77, 45, 37, 45, 36, 43, 32, 37
144787951, 2235, -14657, 4724, -5130, 1949, -1714, -2037, -41, 96, 4, 74, 45, 41, 46, 37, 40, 30, 39
144788765, 2235, -14657, 4724, -5130, 1949, -1714, -2037, -41, 96, 4, 74, 45, 41, 46, 37, 40, 30, 39
144800839, 2250, -14630, 4721, -5201, 1964, -1707, -2049, -22, 94, 5, 74, 45, 41, 46, 37, 40, 30, 39
144808950, 2250, -14630, 4721, -5201, 1964, -1707, -2049, -22, 94, 5, 72, 43, 43, 41, 38, 41, 31, 39
144809715, 2250, -14630, 4721, -5201, 1964, -1707, -2049, -22, 94, 5, 72, 43, 43, 41, 38, 41, 31, 39
144823338, 2263, -14605, 4717, -5269, 1965, -1664, -2044, -7, 96, 5, 72, 43, 43, 41, 38, 41, 31, 39
144831442, 2263, -14605, 4717, -5269, 1965, -1664, -2044, -7, 96, 5, 71, 40, 42, 37, 36, 42, 30, 40
144832234, 2263, -14605, 4717, -5269, 1965, -1664, -2044, -7, 96, 5, 71, 40, 42, 37, 36, 42, 30, 40
144847160, 2273, -14580, 4714, -5338, 1980, -1684, -2035, -25, 109, 0, 71, 40, 42, 37, 36, 42, 30, 40
144847924, 2273, -14580, 4714, -5338, 1980, -1684, -2035, -25, 109, 0, 66, 36, 43, 34, 36, 40, 28, 36
144848738, 2273, -14580, 4714, -5338, 1980, -1684, -2035, -25, 109, 0, 66, 36, 43, 34, 36, 40, 28, 36
144877167, 2284, -14553, 4710, -5408, 1997, -1720, -2005, -31, 112, -8, 66, 36, 43, 34, 36, 40, 28, 36
144877943, 2284, -14553, 4710, -5408, 1997, -1720, -2005, -31, 112, -8, 64, 34, 49, 34, 38, 40, 28, 35
144878757, 2284, -14553, 4710, -5408, 1997, -1720, -2005, -31, 112, -8, 64, 34, 49, 34, 38, 40, 28, 35
144883449, 2296, -14528, 4705, -5476, 2019, -1719, -2032, -12, 110, -11, 64, 34, 49, 34, 38, 40, 28, 35
144891458, 2296, -14528, 4705, -5476, 2019, -1719, -2032, -12, 110, -11, 53, 35, 46, 35, 38, 40, 33, 38
144892229, 2296, -14528, 4705, -5476, 2019, -1719, -2032, -12, 110, -11, 53, 35, 46, 35, 38, 40, 33, 38
144907116, 2306, -14503, 4699, -5543, 2028, -1689, -2020, 1, 116, -10, 53, 35, 46, 35, 38, 40, 33, 38
144907923, 2306, -14503, 4699, -5543, 2028, -1689, -2020, 1, 116, -10, 58, 33, 45, 34, 36, 38, 32, 39
144908752, 2306, -14503, 4699, -5543, 2028, -1689, -2020, 1, 116, -10, 58, 33, 45, 34, 36, 38, 32, 39
144920804, 2319, -14478, 4692, -5608, 2037, -1710, -2025, 10, 110, -11, 58, 33, 45, 34, 36, 38, 32, 39
144928941, 2319, -14478, 4692, -5608, 2037, -1710, -2025, 10, 110, -11, 61, 33, 47, 38, 35, 38, 32, 37
144929759, 2319, -14478, 4692, -5608, 2037, -1710, -2025, 10, 110, -11, 61, 33, 47, 38, 35, 38, 32, 37
144952158, 2330, -14453, 4688, -5670, 2021, -1715, -2022, 1, 113, -10, 61, 33, 47, 38, 35, 38, 32, 37
144952943, 2330, -14453, 4688, -5670, 2021, -1715, -2022, 1, 113, -10, 61, 32, 43, 37, 32, 38, 31, 36
144953767, 2330, -14453, 4688, -5670, 2021, -1715, -2022, 1, 113, -10, 61, 32, 43, 37, 32, 38, 31, 36
144967119, 2341, -14431, 4683, -5726, 2011, -1725, -2009, -11, 92, -18, 61, 32, 43, 37, 32, 38, 31, 36
144967939, 2341, -14431, 4683, -5726, 2011, -1725, -2009, -11, 92, -18, 59, 36, 35, 38, 30, 39, 34, 38
144968739, 2341, -14431, 4683, -5726, 2011, -1725, -2009, -11, 92, -18, 59, 36, 35, 38, 30, 39, 34, 38
144989656, 2353, -14411, 4677, -5777, 2006, -1695, -2012, 6, 74, -16, 59, 36, 35, 38, 30, 39, 34, 38
144990466, 2353, -14411, 4677, -5777, 2006, -1695, -2012, 6, 74, -16, 60, 38, 35, 37, 29, 40, 32, 33
144991364, 2353, -14411, 4677, -5777, 2006, -1695, -2012, 6, 74, -16, 60, 38, 35, 37, 29, 40, 32, 33
145012144, 2367, -14391, 4672, -5824, 1989, -1705, -2004, 6, 68, -16, 60, 38, 35, 37, 29, 40, 32, 33
145012964, 2367, -14391, 4672, -5824, 1989, -1705, -2004, 6, 68, -16, 57, 39, 40, 37, 30, 41, 32, 34
145013765, 2367, -14391, 4672, -5824, 1989, -1705, -2004, 6, 68, -16, 57, 39, 40, 37, 30, 41, 32, 34
145027153, 2376, -14374, 4665, -5868, 1994, -1711, -2008, -11, 62, -33, 57, 39, 40, 37, 30, 41, 32, 34
145027943, 2376, -14374, 4665, -5868, 1994, -1711, -2008, -11, 62, -33, 57, 39, 38, 34, 31, 42, 33, 53
145028764, 2376, -14374, 4665, -5868, 1994, -1711, -2008, -11, 62, -33, 57, 39, 38, 34, 31, 42, 33, 53
145040823, 2389, -14357, 4656, -5910, 1991, -1702, -1997, 11, 46, -33, 57, 39, 38, 34, 31, 42, 33, 53
145048918, 2389, -14357, 4656, -5910, 1991, -1702, -1997, 11, 46, -33, 62, 43, 41, 34, 34, 44, 34, 54
145049709, 2389, -14357, 4656, -5910, 1991, -1702, -1997, 11, 46, -33, 62, 43, 41, 34, 34, 44, 34, 54
145063304, 2400, -14342, 4647, -5950, 2001, -1693, -2005, 8, 45, -37, 62, 43, 41, 34, 34, 44, 34, 54
145071398, 2400, -14342, 4647, -5950, 2001, -1693, -2005, 8, 45, -37, 65, 42, 43, 31, 30, 41, 32, 55
145072217, 2400, -14342, 4647, -5950, 2001, -1693, -2005, 8, 45, -37, 65, 42, 43, 31, 30, 41, 32, 55
145087115, 2413, -14327, 4638, -5988, 1996, -1701, -2000, 19, 42, -38, 65, 42, 43, 31, 30, 41, 32, 55
145087911, 2413, -14327, 4638, -5988, 1996, -1701, -2000, 19, 42, -38, 69, 42, 43, 34, 31, 43, 35, 58
145088735, 2413, -14327, 4638, -5988, 1996, -1701, -2000, 19, 42, -38, 69, 42, 43, 34, 31, 43, 35, 58
145100763, 2428, -14312, 4627, -6026, 2014, -1704, -1996, 35, 35, -34, 69, 42, 43, 34, 31, 43, 35, 58
145108936, 2428, -14312, 4627, -6026, 2014, -1704, -1996, 35, 35, -34, 70, 43, 40, 92, 31, 41, 34, 56
145109734, 2428, -14312, 4627, -6026, 2014, -1704, -1996, 35, 35, -34, 70, 43, 40, 92, 31, 41, 34, 56
145123265, 2441, -14300, 4619, -6056, 1997, -1695, -1978, 10, -1, -26, 70, 43, 40, 92, 31, 41, 34, 56
145131416, 2441, -14300, 4619, -6056, 1997, -1695, -1978, 10, -1, -26, 74, 44, 44, 253, 45, 45, 35, 42
145132243, 2441, -14300, 4619, -6056, 1997, -1695, -1978, 10, -1, -26, 74, 44, 44, 253, 45, 45, 35, 42
145154668, 2450, -14288, 4611, -6085, 2022, -1683, -2026, 9, 16, -28, 74, 44, 44, 253, 45, 45, 35, 42
145155434, 2450, -14288, 4611, -6085, 2022, -1683, -2026, 9, 16, -28, 71, 51, 47, 299, 48, 45, 46, 55
145156254, 2450, -14288, 4611, -6085, 2022, -1683, -2026, 9, 16, -28, 71, 51, 47, 299, 48, 45, 46, 55
145169748, 2481, -14279, 4603, -6100, 1982, -1663, -1953, 86, -98, 28, 71, 51, 47, 299, 48, 45, 46, 55
145170566, 2481, -14279, 4603, -6100, 1982, -1663, -1953, 86, -98, 28, 82, 54, 56, 370, 60, 53, 49, 59
145171357, 2481, -14279, 4603, -6100, 1982, -1663, -1953, 86, -98, 28, 82, 54, 56, 370, 60, 53, 49, 59
145183301, 2524, -14272, 4591, -6108, 1953, -1768, -1950, 106, -151, 2, 82, 54, 56, 370, 60, 53, 49, 59
145191387, 2524, -14272, 4591, -6108, 1953, -1768, -1950, 106, -151, 2, 90, 69, 68, 447, 84, 77, 57, 59
145192210, 2524, -14272, 4591, -6108, 1953, -1768, -1950, 106, -151, 2, 90, 69, 68, 447, 84, 77, 57, 59
145207128, 2543, -14269, 4578, -6116, 2026, -1594, -1984, 66, -132, 11, 90, 69, 68, 447, 84, 77, 57, 59
145207910, 2543, -14269, 4578, -6116, 2026, -1594, -1984, 66, -132, 11, 97, 76, 72, 495, 89, 88, 75, 72
145208732, 2543, -14269, 4578, -6116, 2026, -1594, -1984, 66, -132, 11, 97, 76, 72, 495, 89, 88, 75, 72
145220792, 2561, -14262, 4580, -6126, 1992, -1733, -1967, -18, -94, 38, 97, 76, 72, 495, 89, 88, 75, 72
145228886, 2561, -14262, 4580, -6126, 1992, -1733, -1967, -18, -94, 38, 104, 82, 74, 463, 85, 537, 86, 85
145229684, 2561, -14262, 4580, -6126, 1992, -1733, -1967, -18, -94, 38, 104, 82, 74, 463, 85, 537, 86, 85
145243284, 2578, -14264, 4565, -6124, 1913, -1670, -1893, -5, -173, -47, 104, 82, 74, 463, 85, 537, 86, 85
145251484, 2578, -14264, 4565, -6124, 1913, -1670, -1893, -5, -173, -47, 112, 87, 75, 476, 196, 757, 82, 80
145252239, 2578, -14264, 4565, -6124, 1913, -1670, -1893, -5, -173, -47, 112, 87, 75, 476, 196, 757, 82, 80
145267195, 2630, -14255, 4551, -6132, 2075, -1582, -2068, 275, -165, 118, 112, 87, 75, 476, 196, 757, 82, 80
145267972, 2630, -14255, 4551, -6132, 2075, -1582, -2068, 275, -165, 118, 115, 88, 87, 530, 278, 768, 86, 79
145268763, 2630, -14255, 4551, -6132, 2075, -1582, -2068, 275, -165, 118, 115, 88, 87, 530, 278, 768, 86, 79
145280854, 2655, -14234, 4562, -6162, 2041, -1686, -2040, 99, 46, 135, 115, 88, 87, 530, 278, 768, 86, 79
145296228, 2655, -14234, 4562, -6162, 2041, -1686, -2040, 99, 46, 135, 130, 95, 86, 548, 276, 791, 85, 81
145303939, 2655, -14234, 4562, -6162, 2041, -1686, -2040, 99, 46, 135, 130, 95, 86, 548, 276, 791, 85, 81
145304902, 2689, -14227, 4572, -6158, 1816, -1731, -2058, 71, -80, 96, 130, 95, 86, 548, 276, 791, 85, 81
145311977, 2689, -14227, 4572, -6158, 1816, -1731, -2058, 71, -80, 96, 154, 113, 87, 506, 279, 796, 74, 79
145312753, 2689, -14227, 4572, -6158, 1816, -1731, -2058, 71, -80, 96, 154, 113, 87, 506, 279, 796, 74, 79
145320935, 2689, -14227, 4572, -6158, 1816, -1731, -2058, 71, -80, 96, 154, 113, 87, 506, 279, 796, 74, 79
145321707, 2689, -14227, 4572, -6158, 1816, -1731, -2058, 71, -80, 96, 154, 113, 87, 506, 279, 796, 74, 79
145322533, 2689, -14227, 4572, -6158, 1816, -1731, -2058, 71, -80, 96, 154, 113, 87, 506, 279, 796, 74, 79
145323379, 2689, -14227, 4572, -6158, 1816, -1731, -2058, 71, -80, 96, 154, 113, 87, 506, 279, 796, 74, 79
145327832, 2689, -14227, 4572, -6158, 1816, -1731, -2058, 71, -80, 96, 154, 113, 87, 506, 279, 796, 74, 79
145328628, 2689, -14227, 4572, -6158, 1816, -1731, -2058, 71, -80, 96, 154, 113, 87, 506, 279, 796, 74, 79
145329549, 2692, -14221, 4580, -6164, 1954, -1724, -1951, -84, -65, 50, 154, 113, 87, 506, 279, 796, 74, 79
145330361, 2692, -14221, 4580, -6164, 1954, -1724, -1951, -84, -65, 50, 179, 115, 87, 535, 282, 615, 61, 67
145336018, 2692, -14221, 4580, -6164, 1954, -1724, -1951, -84, -65, 50, 179, 115, 87, 535, 282, 615, 61, 67
145336841, 2692, -14221, 4580, -6164, 1954, -1724, -1951, -84, -65, 50, 179, 115, 87, 535, 282, 615, 61, 67
145337638, 2692, -14221, 4580, -6164, 1954, -1724, -1951, -84, -65, 50, 179, 115, 87, 535, 282, 615, 61, 67
145338467, 2692, -14221, 4580, -6164, 1954, -1724, -1951, -84, -65, 50, 179, 115, 87, 535, 282, 615, 61, 67
145343453, 2692, -14221, 4580, -6164, 1954, -1724, -1951, -84, -65, 50, 179, 115, 87, 535, 282, 615, 61, 67
145344212, 2692, -14221, 4580, -6164, 1954, -1724, -1951, -84, -65, 50, 179, 115, 87, 535, 282, 615, 61, 67
145345032, 2692, -14221, 4580, -6164, 1954, -1724, -1951, -84, -65, 50, 179, 115, 87, 535, 282, 615, 61, 67
145345857, 2692, -14221, 4580, -6164, 1954, -1724, -1951, -84, -65, 50, 179, 115, 87, 535, 282, 615, 61, 67
145351056, 2692, -14210, 4585, -6184, 2024, -1751, -2012, -63, 7, 33, 179, 115, 87, 535, 282, 615, 61, 67
145351866, 2692, -14210, 4585, -6184, 2024, -1751, -2012, -63, 7, 33, 195, 118, 107, 587, 223, 310, 64, 71
145352664, 2692, -14210, 4585, -6184, 2024, -1751, -2012, -63, 7, 33, 195, 118, 107, 587, 223, 310, 64, 71
145353489, 2692, -14210, 4585, -6184, 2024, -1751, -2012, -63, 7, 33, 195, 118, 107, 587, 223, 310, 64, 71
145358402, 2692, -14210, 4585, -6184, 2024, -1751, -2012, -63, 7, 33, 195, 118, 107, 587, 223, 310, 64, 71
145359195, 2692, -14210, 4585, -6184, 2024, -1751, -2012, -63, 7, 33, 195, 118, 107, 587, 223, 310, 64, 71
145360010, 2692, -14210, 4585, -6184, 2024, -1751, -2012, -63, 7, 33, 195, 118, 107, 587, 223, 310, 64, 71
145360810, 2692, -14210, 4585, -6184, 2024, -1751, -2012, -63, 7, 33, 195, 118, 107, 587, 223, 310, 64, 71
145363912, 2692, -14210, 4585, -6184, 2024, -1751, -2012, -63, 7, 33, 195, 118, 107, 587, 223, 310, 64, 71
145364862, 2674, -14206, 4592, -6198, 2004, -1742, -2019, -160, 7, -2, 195, 118, 107, 587, 223, 310, 64, 71
145373554, 2674, -14206, 4592, -6198, 2004, -1742, -2019, -160, 7, -2, 192, 119, 121, 500, 110, 282, 66, 106
145374414, 2674, -14206, 4592, -6198, 2004, -1742, -2019, -160, 7, -2, 192, 119, 121, 500, 110, 282, 66, 106
145375163, 2674, -14206, 4592, -6198, 2004, -1742, -2019, -160, 7, -2, 192, 119, 121, 500, 110, 282, 66, 106
145375976, 2674, -14206, 4592, -6198, 2004, -1742, -2019, -160, 7, -2, 192, 119, 121, 500, 110, 282, 66, 106
145380265, 2674, -14206, 4592, -6198, 2004, -1742, -2019, -160, 7, -2, 192, 119, 121, 500, 110, 282, 66, 106
145381064, 2674, -14206, 4592, -6198, 2004, -1742, -2019, -160, 7, -2, 192, 119, 121, 500, 110, 282, 66, 106
145381890, 2674, -14206, 4592, -6198, 2004, -1742, -2019, -160, 7, -2, 192, 119, 121, 500, 110, 282, 66, 106
145382714, 2674, -14206, 4592, -6198, 2004, -1742, -2019, -160, 7, -2, 192, 119, 121, 500, 110, 282, 66, 106
145385843, 2660, -14202, 4602, -6204, 1952, -1744, -1989, -174, -25, 7, 192, 119, 121, 500, 110, 282, 66, 106
145393927, 2660, -14202, 4602, -6204, 1952, -1744, -1989, -174, -25, 7, 187, 123, 165, 460, 100, 201, 71, 188
145394713, 2660, -14202, 4602, -6204, 1952, -1744, -1989, -174, -25, 7, 187, 123, 165, 460, 100, 201, 71, 188
145400886, 2628, -14205, 4605, -6210, 1962, -1713, -1990, -236, -20, -69, 187, 123, 165, 460, 100, 201, 71, 188
145411671, 2628, -14205, 4605, -6210, 1962, -1713, -1990, -236, -20, -69, 177, 121, 183, 598, 113, 178, 77, 215
145411678, 2628, -14205, 4605, -6210, 1962, -1713, -1990, -236, -20, -69, 177, 121, 183, 598, 113, 178, 77, 215
145447864, 2601, -14198, 4608, -6234, 2020, -1623, -2009, -146, 75, -16, 177, 121, 183, 598, 113, 178, 77, 215
145448649, 2601, -14198, 4608, -6234, 2020, -1623, -2009, -146, 75, -16, 153, 121, 187, 573, 105, 83, 81, 223
145449461, 2601, -14198, 4608, -6234, 2020, -1623, -2009, -146, 75, -16, 153, 121, 187, 573, 105, 83, 81, 223
145450388, 2609, -14169, 4614, -6293, 2015, -1737, -2053, 76, 258, 38, 153, 121, 187, 573, 105, 83, 81, 223
145456012, 2609, -14169, 4614, -6293, 2015, -1737, -2053, 76, 258, 38, 142, 110, 177, 490, 99, 87, 87, 225
145456794, 2609, -14169, 4614, -6293, 2015, -1737, -2053, 76, 258, 38, 142, 110, 177, 490, 99, 87, 87, 225
145457643, 2609, -14169, 4614, -6293, 2015, -1737, -2053, 76, 258, 38, 142, 110, 177, 490, 99, 87, 87, 225
145458478, 2609, -14169, 4614, -6293, 2015, -1737, -2053, 76, 258, 38, 142, 110, 177, 490, 99, 87, 87, 225
145463451, 2609, -14169, 4614, -6293, 2015, -1737, -2053, 76, 258, 38, 142, 110, 177, 490, 99, 87, 87, 225
145464240, 2609, -14169, 4614, -6293, 2015, -1737, -2053, 76, 258, 38, 142, 110, 177, 490, 99, 87, 87, 225
145465059, 2609, -14169, 4614, -6293, 2015, -1737, -2053, 76, 258, 38, 142, 110, 177, 490, 99, 87, 87, 225
145465884, 2609, -14169, 4614, -6293, 2015, -1737, -2053, 76, 258, 38, 142, 110, 177, 490, 99, 87, 87, 225
145471019, 2633, -14131, 4615, -6367, 2038, -1795, -2060, 186, 337, 28, 142, 110, 177, 490, 99, 87, 87, 225
145471853, 2633, -14131, 4615, -6367, 2038, -1795, -2060, 186, 337, 28, 147, 108, 162, 507, 86, 84, 106, 215
145472652, 2633, -14131, 4615, -6367, 2038, -1795, -2060, 186, 337, 28, 147, 108, 162, 507, 86, 84, 106, 215
145473471, 2633, -14131, 4615, -6367, 2038, -1795, -2060, 186, 337, 28, 147, 108, 162, 507, 86, 84, 106, 215
145478449, 2633, -14131, 4615, -6367, 2038, -1795, -2060, 186, 337, 28, 147, 108, 162, 507, 86, 84, 106, 215
145479225, 2633, -14131, 4615, -6367, 2038, -1795, -2060, 186, 337, 28, 147, 108, 162, 507, 86, 84, 106, 215
145480033, 2633, -14131, 4615, -6367, 2038, -1795, -2060, 186, 337, 28, 147, 108, 162, 507, 86, 84, 106, 215
145480831, 2633, -14131, 4615, -6367, 2038, -1795, -2060, 186, 337, 28, 147, 108, 162, 507, 86, 84, 106, 215
145493403, 2633, -14131, 4615, -6367, 2038, -1795, -2060, 186, 337, 28, 147, 108, 162, 507, 86, 84, 106, 215
145494368, 2666, -14108, 4613, -6406, 1942, -1794, -2006, 162, 138, 25, 147, 108, 162, 507, 86, 84, 106, 215
145495154, 2666, -14108, 4613, -6406, 1942, -1794, -2006, 162, 138, 25, 137, 91, 113, 470, 87, 83, 103, 147
145495963, 2666, -14108, 4613, -6406, 1942, -1794, -2006, 162, 138, 25, 137, 91, 113, 470, 87, 83, 103, 147
145515981, 2666, -14108, 4613, -6406, 1942, -1794, -2006, 162, 138, 25, 137, 91, 113, 470, 87, 83, 103, 147
145516787, 2666, -14108, 4613, -6406, 1942, -1794, -2006, 162, 138, 25, 137, 91, 113, 470, 87, 83, 103, 147
145517584, 2666, -14108, 4613, -6406, 1942, -1794, -2006, 162, 138, 25, 137, 91, 113, 470, 87, 83, 103, 147
145518410, 2666, -14108, 4613, -6406, 1942, -1794, -2006, 162, 138, 25, 137, 91, 113, 470, 87, 83, 103, 147
145523434, 2666, -14108, 4613, -6406, 1942, -1794, -2006, 162, 138, 25, 137, 91, 113, 470, 87, 83, 103, 147
145524255, 2666, -14108, 4613, -6406, 1942, -1794, -2006, 162, 138, 25, 137, 91, 113, 470, 87, 83, 103, 147
145525060, 2666, -14108, 4613, -6406, 1942, -1794, -2006, 162, 138, 25, 137, 91, 113, 470, 87, 83, 103, 147
145525861, 2666, -14108, 4613, -6406, 1942, -1794, -2006, 162, 138, 25, 137, 91, 113, 470, 87, 83, 103, 147
145530975, 2666, -14108, 4613, -6406, 1942, -1794, -2006, 162, 138, 25, 126, 73, 89, 274, 71, 91, 98, 102
145531787, 2666, -14108, 4613, -6406, 1942, -1794, -2006, 162, 138, 25, 126, 73, 89, 274, 71, 91, 98, 102
145532609, 2666, -14108, 4613, -6406, 1942, -1794, -2006, 162, 138, 25, 126, 73, 89, 274, 71, 91, 98, 102
145533408, 2666, -14108, 4613, -6406, 1942, -1794, -2006, 162, 138, 25, 126, 73, 89, 274, 71, 91, 98, 102
145538370, 2666, -14108, 4613, -6406, 1942, -1794, -2006, 162, 138, 25, 126, 73, 89, 274, 71, 91, 98, 102
145539201, 2666, -14108, 4613, -6406, 1942, -1794, -2006, 162, 138, 25, 126, 73, 89, 274, 71, 91, 98, 102
145539984, 2666, -14108, 4613, -6406, 1942, -1794, -2006, 162, 138, 25, 126, 73, 89, 274, 71, 91, 98, 102
145540807, 2666, -14108, 4613, -6406, 1942, -1794, -2006, 162, 138, 25, 126, 73, 89, 274, 71, 91, 98, 102
145545951, 2666, -14108, 4613, -6406, 1942, -1794, -2006, 162, 138, 25, 126, 73, 89, 274, 71, 91, 98, 102
145546861, 2666, -14102, 4607, -6423, 2041, -1622, -2028, -56, -23, 37, 126, 73, 89, 274, 71, 91, 98, 102
145547688, 2666, -14102, 4607, -6423, 2041, -1622, -2028, -56, -23, 37, 115, 65, 79, 231, 70, 133, 99, 90
145548507, 2666, -14102, 4607, -6423, 2041, -1622, -2028, -56, -23, 37, 115, 65, 79, 231, 70, 133, 99, 90
145553525, 2666, -14102, 4607, -6423, 2041, -1622, -2028, -56, -23, 37, 115, 65, 79, 231, 70, 133, 99, 90
145554387, 2666, -14102, 4607, -6423, 2041, -1622, -2028, -56, -23, 37, 115, 65, 79, 231, 70, 133, 99, 90
145555155, 2666, -14102, 4607, -6423, 2041, -1622, -2028, -56, -23, 37, 115, 65, 79, 231, 70, 133, 99, 90
145555976, 2666, -14102, 4607, -6423, 2041, -1622, -2028, -56, -23, 37, 115, 65, 79, 231, 70, 133, 99, 90
145560964, 2666, -14102, 4607, -6423, 2041, -1622, -2028, -56, -23, 37, 115, 65, 79, 231, 70, 133, 99, 90
145561727, 2666, -14102, 4607, -6423, 2041, -1622, -2028, -56, -23, 37, 115, 65, 79, 231, 70, 133, 99, 90
145562552, 2666, -14102, 4607, -6423, 2041, -1622, -2028, -56, -23, 37, 115, 65, 79, 231, 70, 133, 99, 90
145563382, 2666, -14102, 4607, -6423, 2041, -1622, -2028, -56, -23, 37, 115, 65, 79, 231, 70, 133, 99, 90
145568428, 2666, -14102, 4607, -6423, 2041, -1622, -2028, -56, -23, 37, 115, 65, 79, 231, 70, 133, 99, 90
145569361, 2680, -14093, 4607, -6436, 1985, -1764, -2004, 28, 7, 11, 115, 65, 79, 231, 70, 133, 99, 90
145570162, 2680, -14093, 4607, -6436, 1985, -1764, -2004, 28, 7, 11, 94, 66, 77, 218, 67, 126, 94, 84
145570981, 2680, -14093, 4607, -6436, 1985, -1764, -2004, 28, 7, 11, 94, 66, 77, 218, 67, 126, 94, 84
145576044, 2680, -14093, 4607, -6436, 1985, -1764, -2004, 28, 7, 11, 94, 66, 77, 218, 67, 126, 94, 84
145576845, 2680, -14093, 4607, -6436, 1985, -1764, -2004, 28, 7, 11, 94, 66, 77, 218, 67, 126, 94, 84
145577619, 2680, -14093, 4607, -6436, 1985, -1764, -2004, 28, 7, 11, 94, 66, 77, 218, 67, 126, 94, 84
145578446, 2680, -14093, 4607, -6436, 1985, -1764, -2004, 28, 7, 11, 94, 66, 77, 218, 67, 126, 94, 84
145583387, 2680, -14093, 4607, -6436, 1985, -1764, -2004, 28, 7, 11, 94, 66, 77, 218, 67, 126, 94, 84
145584188, 2680, -14093, 4607, -6436, 1985, -1764, -2004, 28, 7, 11, 94, 66, 77, 218, 67, 126, 94, 84
145585008, 2680, -14093, 4607, -6436, 1985, -1764, -2004, 28, 7, 11, 94, 66, 77, 218, 67, 126, 94, 84
145585808, 2680, -14093, 4607, -6436, 1985, -1764, -2004, 28, 7, 11, 94, 66, 77, 218, 67, 126, 94, 84
145598444, 2680, -14093, 4607, -6436, 1985, -1764, -2004, 28, 7, 11, 94, 66, 77, 218, 67, 126, 94, 84
145599368, 2705, -14090, 4599, -6438, 1939, -1709, -1999, 98, -70, 10, 94, 66, 77, 218, 67, 126, 94, 84
145600165, 2705, -14090, 4599, -6438, 1939, -1709, -1999, 98, -70, 10, 81, 66, 71, 156, 71, 125, 68, 74
145600984, 2705, -14090, 4599, -6438, 1939, -1709, -1999, 98, -70, 10, 81, 66, 71, 156, 71, 125, 68, 74
145606008, 2705, -14090, 4599, -6438, 1939, -1709, -1999, 98, -70, 10, 81, 66, 71, 156, 71, 125, 68, 74
145606809, 2705, -14090, 4599, -6438, 1939, -1709, -1999, 98, -70, 10, 81, 66, 71, 156, 71, 125, 68, 74
145607634, 2705, -14090, 4599, -6438, 1939, -1709, -1999, 98, -70, 10, 81, 66, 71, 156, 71, 125, 68, 74
145608440, 2705, -14090, 4599, -6438, 1939, -1709, -1999, 98, -70, 10, 81, 66, 71, 156, 71, 125, 68, 74
145613422, 2705, -14090, 4599, -6438, 1939, -1709, -1999, 98, -70, 10, 81, 66, 71, 156, 71, 125, 68, 74
145614245, 2705, -14090, 4599, -6438, 1939, -1709, -1999, 98, -70, 10, 81, 66, 71, 156, 71, 125, 68, 74
145615116, 2705, -14090, 4599, -6438, 1939, -1709, -1999, 98, -70, 10, 81, 66, 71, 156, 71, 125, 68, 74
145615884, 2705, -14090, 4599, -6438, 1939, -1709, -1999, 98, -70, 10, 81, 66, 71, 156, 71, 125, 68, 74
