Timestamp, Orientation x, Orientation y, Orientation z, Orientation w, Acceleration x, Acceleration y, Acceleration z, Rotation x, Rotation y, Rotation z, EMG 0, EMG 1, EMG 2, EMG 3, EMG 4, EMG 5, EMG 6, EMG 7
141179204, -1215, -10092, -1378, -12776, 4043, 195, -2339, 20, -34, 4, 0, 0, 0, 0, 0, 0, 0, 0
141180021, -1209, -10099, -1383, -12771, 4054, 203, -2323, 49, -43, 11, 0, 0, 0, 0, 0, 0, 0, 0
141193509, -1198, -10110, -1392, -12762, 4053, 229, -2306, 81, -71, 19, 0, 0, 0, 0, 0, 0, 0, 0
141216024, -1186, -10135, -1395, -12743, 4070, 257, -2222, 77, -167, 45, 0, 0, 0, 0, 0, 0, 0, 0
141238500, -1179, -10181, -1385, -12709, 4104, 256, -2135, 14, -321, 70, 0, 0, 0, 0, 0, 0, 0, 0
141246669, -1179, -10181, -1385, -12709, 4104, 256, -2135, 14, -321, 70, 42, 26, 26, 28, 165, 194, 113, 52
141247484, -1179, -10181, -1385, -12709, 4104, 256, -2135, 14, -321, 70, 42, 26, 26, 28, 165, 194, 113, 52
141253621, -1163, -10250, -1381, -12655, 4131, 176, -2132, 93, -481, 98, 42, 26, 26, 28, 165, 194, 113, 52
141261613, -1163, -10250, -1381, -12655, 4131, 176, -2132, 93, -481, 98, 44, 27, 25, 29, 172, 185, 116, 41
141262420, -1163, -10250, -1381, -12655, 4131, 176, -2132, 93, -481, 98, 44, 27, 25, 29, 172, 185, 116, 41
141275991, -1137, -10336, -1390, -12586, 4129, 191, -2181, 195, -602, 92, 44, 27, 25, 29, 172, 185, 116, 41
141284099, -1137, -10336, -1390, -12586, 4129, 191, -2181, 195, -602, 92, 48, 29, 28, 33, 177, 218, 130, 44
141284910, -1137, -10336, -1390, -12586, 4129, 191, -2181, 195, -602, 92, 48, 29, 28, 33, 177, 218, 130, 44
141298492, -1096, -10443, -1412, -12498, 4145, 214, -2225, 322, -738, 117, 48, 29, 28, 33, 177, 218, 130, 44
141306644, -1096, -10443, -1412, -12498, 4145, 214, -2225, 322, -738, 117, 63, 31, 29, 35, 202, 238, 167, 124
141307469, -1096, -10443, -1412, -12498, 4145, 214, -2225, 322, -738, 117, 63, 31, 29, 35, 202, 238, 167, 124
141313620, -1045, -10585, -1428, -12381, 4137, 240, -2234, 357, -999, 183, 63, 31, 29, 35, 202, 238, 167, 124
141320949, -1045, -10585, -1428, -12381, 4137, 240, -2234, 357, -999, 183, 70, 34, 30, 35, 289, 390, 161, 178
141328440, -1045, -10585, -1428, -12381, 4137, 240, -2234, 357, -999, 183, 70, 34, 30, 35, 289, 390, 161, 178
141336112, -987, -10776, -1421, -12221, 4166, 280, -2252, 326, -1355, 303, 70, 34, 30, 35, 289, 390, 161, 178
141344111, -987, -10776, -1421, -12221, 4166, 280, -2252, 326, -1355, 303, 71, 35, 43, 72, 313, 536, 251, 214
141344917, -987, -10776, -1421, -12221, 4166, 280, -2252, 326, -1355, 303, 71, 35, 43, 72, 313, 536, 251, 214
141358501, -927, -11005, -1411, -12021, 4212, 185, -2406, 354, -1666, 336, 71, 35, 43, 72, 313, 536, 251, 214
141366620, -927, -11005, -1411, -12021, 4212, 185, -2406, 354, -1666, 336, 75, 35, 49, 85, 374, 726, 255, 220
141367417, -927, -11005, -1411, -12021, 4212, 185, -2406, 354, -1666, 336, 75, 35, 49, 85, 374, 726, 255, 220
141373613, -845, -11253, -1418, -11795, 4213, 88, -2623, 526, -1829, 354, 75, 35, 49, 85, 374, 726, 255, 220
141389152, -845, -11253, -1418, -11795, 4213, 88, -2623, 526, -1829, 354, 81, 38, 53, 95, 399, 779, 257, 235
141389959, -845, -11253, -1418, -11795, 4213, 88, -2623, 526, -1829, 354, 81, 38, 53, 95, 399, 779, 257, 235
141396137, -721, -11505, -1458, -11552, 4147, 128, -2888, 825, -1876, 397, 81, 38, 53, 95, 399, 779, 257, 235
141404092, -721, -11505, -1458, -11552, 4147, 128, -2888, 825, -1876, 397, 96, 40, 60, 104, 424, 922, 253, 223
141404914, -721, -11505, -1458, -11552, 4147, 128, -2888, 825, -1876, 397, 96, 40, 60, 104, 424, 922, 253, 223
141427350, -584, -11759, -1474, -11299, 3980, 135, -3168, 787, -1930, 543, 96, 40, 60, 104, 424, 922, 253, 223
141428168, -584, -11759, -1474, -11299, 3980, 135, -3168, 787, -1930, 543, 102, 40, 69, 147, 576, 1037, 265, 212
141428987, -584, -11759, -1474, -11299, 3980, 135, -3168, 787, -1930, 543, 102, 40, 69, 147, 576, 1037, 265, 212
141433615, -473, -12026, -1427, -11026, 3805, 144, -3223, 454, -2079, 697, 102, 40, 69, 147, 576, 1037, 265, 212
141449125, -473, -12026, -1427, -11026, 3805, 144, -3223, 454, -2079, 697, 127, 41, 78, 158, 603, 1133, 206, 208
141449937, -473, -12026, -1427, -11026, 3805, 144, -3223, 454, -2079, 697, 127, 41, 78, 158, 603, 1133, 206, 208
141456110, -401, -12294, -1307, -10745, 3688, 164, -3342, 26, -2146, 845, 127, 41, 78, 158, 603, 1133, 206, 208
141464142, -401, -12294, -1307, -10745, 3688, 164, -3342, 26, -2146, 845, 136, 46, 86, 163, 648, 1096, 234, 215
141464942, -401, -12294, -1307, -10745, 3688, 164, -3342, 26, -2146, 845, 136, 46, 86, 163, 648, 1096, 234, 215
141478521, -358, -12559, -1123, -10457, 3629, -160, -3332, -329, -2188, 1015, 136, 46, 86, 163, 648, 1096, 234, 215
141486613, -358, -12559, -1123, -10457, 3629, -160, -3332, -329, -2188, 1015, 156, 51, 110, 193, 738, 1191, 267, 258
141487446, -358, -12559, -1123, -10457, 3629, -160, -3332, -329, -2188, 1015, 156, 51, 110, 193, 738, 1191, 267, 258
141493617, -276, -12801, -921, -10181, 3562, -354, -3299, -236, -2045, 1214, 156, 51, 110, 193, 738, 1191, 267, 258
141509120, -276, -12801, -921, -10181, 3562, -354, -3299, -236, -2045, 1214, 246, 62, 116, 206, 841, 1302, 261, 271
141509946, -276, -12801, -921, -10181, 3562, -354, -3299, -236, -2045, 1214, 246, 62, 116, 206, 841, 1302, 261, 271
141516089, -159, -13047, -718, -9884, 3348, -318, -3449, -79, -2139, 1343, 246, 62, 116, 206, 841, 1302, 261, 271
141524140, -159, -13047, -718, -9884, 3348, -318, -3449, -79, -2139, 1343, 314, 66, 115, 191, 764, 1275, 253, 298
141524938, -159, -13047, -718, -9884, 3348, -318, -3449, -79, -2139, 1343, 314, 66, 115, 191, 764, 1275, 253, 298
141538515, -68, -13288, -492, -9572, 3261, -267, -3539, -270, -2193, 1359, 314, 66, 115, 191, 764, 1275, 253, 298
141546623, -68, -13288, -492, -9572, 3261, -267, -3539, -270, -2193, 1359, 332, 68, 110, 191, 770, 1273, 260, 284
141547427, -68, -13288, -492, -9572, 3261, -267, -3539, -270, -2193, 1359, 332, 68, 110, 191, 770, 1273, 260, 284
141553623, 23, -13527, -260, -9241, 3187, -377, -3637, -285, -2273, 1384, 332, 68, 110, 191, 770, 1273, 260, 284
141569130, 23, -13527, -260, -9241, 3187, -377, -3637, -285, -2273, 1384, 383, 67, 107, 204, 783, 1314, 269, 281
141569919, 23, -13527, -260, -9241, 3187, -377, -3637, -285, -2273, 1384, 383, 67, 107, 204, 783, 1314, 269, 281
141576079, 115, -13766, -34, -8885, 3025, -353, -3730, -258, -2391, 1360, 383, 67, 107, 204, 783, 1314, 269, 281
141584125, 115, -13766, -34, -8885, 3025, -353, -3730, -258, -2391, 1360, 441, 65, 94, 207, 852, 1416, 294, 235
141584949, 115, -13766, -34, -8885, 3025, -353, -3730, -258, -2391, 1360, 441, 65, 94, 207, 852, 1416, 294, 235
141598522, 210, -14017, 198, -8480, 2997, -320, -3642, -268, -2408, 1373, 441, 65, 94, 207, 852, 1416, 294, 235
141606616, 210, -14017, 198, -8480, 2997, -320, -3642, -268, -2408, 1373, 442, 67, 103, 283, 903, 1296, 295, 204
141607424, 210, -14017, 198, -8480, 2997, -320, -3642, -268, -2408, 1373, 442, 67, 103, 283, 903, 1296, 295, 204
141613627, 321, -14230, 439, -8104, 2895, -389, -3543, -208, -2197, 1467, 442, 67, 103, 283, 903, 1296, 295, 204
141629178, 321, -14230, 439, -8104, 2895, -389, -3543, -208, -2197, 1467, 443, 67, 124, 456, 993, 1320, 342, 141
141629977, 321, -14230, 439, -8104, 2895, -389, -3543, -208, -2197, 1467, 443, 67, 124, 456, 993, 1320, 342, 141
141636104, 444, -14415, 665, -7748, 2810, -449, -3490, -98, -2056, 1427, 443, 67, 124, 456, 993, 1320, 342, 141
141644115, 444, -14415, 665, -7748, 2810, -449, -3490, -98, -2056, 1427, 503, 78, 137, 618, 1045, 1405, 435, 181
141644909, 444, -14415, 665, -7748, 2810, -449, -3490, -98, -2056, 1427, 503, 78, 137, 618, 1045, 1405, 435, 181
141658519, 574, -14574, 869, -7415, 2745, -487, -3541, 14, -1891, 1353, 503, 78, 137, 618, 1045, 1405, 435, 181
141666625, 574, -14574, 869, -7415, 2745, -487, -3541, 14, -1891, 1353, 514, 91, 156, 833, 1127, 1421, 470, 211
141667415, 574, -14574, 869, -7415, 2745, -487, -3541, 14, -1891, 1353, 514, 91, 156, 833, 1127, 1421, 470, 211
141673613, 682, -14705, 1054, -7117, 2802, -367, -3466, -17, -1680, 1224, 514, 91, 156, 833, 1127, 1421, 470, 211
141689143, 682, -14705, 1054, -7117, 2802, -367, -3466, -17, -1680, 1224, 524, 97, 164, 937, 1183, 1297, 460, 211
141689967, 682, -14705, 1054, -7117, 2802, -367, -3466, -17, -1680, 1224, 524, 97, 164, 937, 1183, 1297, 460, 211
141696118, 758, -14835, 1204, -6808, 2786, -450, -3494, -9, -1414, 1007, 524, 97, 164, 937, 1183, 1297, 460, 211
141704090, 758, -14835, 1204, -6808, 2786, -450, -3494, -9, -1414, 1007, 673, 98, 169, 1139, 1264, 1325, 492, 228
141704946, 758, -14835, 1204, -6808, 2786, -450, -3494, -9, -1414, 1007, 673, 98, 169, 1139, 1264, 1325, 492, 228
141718498, 825, -14939, 1354, -6540, 2674, -419, -3493, -2, -1187, 1011, 673, 98, 169, 1139, 1264, 1325, 492, 228
141726643, 825, -14939, 1354, -6540, 2674, -419, -3493, -2, -1187, 1011, 756, 121, 173, 1199, 1348, 1313, 478, 237
141727483, 825, -14939, 1354, -6540, 2674, -419, -3493, -2, -1187, 1011, 756, 121, 173, 1199, 1348, 1313, 478, 237
141733625, 888, -15016, 1484, -6322, 2608, -531, -3483, 27, -931, 873, 756, 121, 173, 1199, 1348, 1313, 478, 237
141749140, 888, -15016, 1484, -6322, 2608, -531, -3483, 27, -931, 873, 764, 144, 180, 1189, 1462, 1226, 408, 244
141749961, 888, -15016, 1484, -6322, 2608, -531, -3483, 27, -931, 873, 764, 144, 180, 1189, 1462, 1226, 408, 244
141756114, 944, -15077, 1583, -6144, 2620, -490, -3529, 125, -741, 728, 764, 144, 180, 1189, 1462, 1226, 408, 244
141764174, 944, -15077, 1583, -6144, 2620, -490, -3529, 125, -741, 728, 809, 155, 174, 1220, 1472, 1275, 407, 239
141764954, 944, -15077, 1583, -6144, 2620, -490, -3529, 125, -741, 728, 809, 155, 174, 1220, 1472, 1275, 407, 239
141778501, 986, -15130, 1676, -5979, 2389, -583, -3598, 50, -591, 625, 809, 155, 174, 1220, 1472, 1275, 407, 239
141786669, 986, -15130, 1676, -5979, 2389, -583, -3598, 50, -591, 625, 926, 176, 173, 1205, 1481, 1248, 416, 273
141787464, 986, -15130, 1676, -5979, 2389, -583, -3598, 50, -591, 625, 926, 176, 173, 1205, 1481, 1248, 416, 273
141793630, 1023, -15180, 1753, -5823, 2256, -677, -3633, 32, -518, 498, 926, 176, 173, 1205, 1481, 1248, 416, 273
141809135, 1023, -15180, 1753, -5823, 2256, -677, -3633, 32, -518, 498, 885, 190, 200, 1015, 1364, 1237, 403, 304
141809954, 1023, -15180, 1753, -5823, 2256, -677, -3633, 32, -518, 498, 885, 190, 200, 1015, 1364, 1237, 403, 304
141816105, 1074, -15226, 1819, -5671, 2012, -822, -3666, 89, -445, 405, 885, 190, 200, 1015, 1364, 1237, 403, 304
141824123, 1074, -15226, 1819, -5671, 2012, -822, -3666, 89, -445, 405, 845, 205, 195, 928, 1268, 1417, 474, 328
141825085, 1074, -15226, 1819, -5671, 2012, -822, -3666, 89, -445, 405, 845, 205, 195, 928, 1268, 1417, 474, 328
141841208, 1142, -15264, 1872, -5536, 1862, -867, -3612, 199, -349, 349, 845, 205, 195, 928, 1268, 1417, 474, 328
141842055, -68, -13288, -492, -9572, 3261, -267, -3539, -270, -2193, 1359, 845, 205, 195, 928, 1268, 1417, 474, 328
141842850, -68, -13288, -492, -9572, 3261, -267, -3539, -270, -2193, 1359, 332, 68, 110, 191, 770, 1273, 260, 284
141843676, -68, -13288, -492, -9572, 3261, -267, -3539, -270, -2193, 1359, 332, 68, 110, 191, 770, 1273, 260, 284
141848735, 23, -13527, -260, -9241, 3187, -377, -3637, -285, -2273, 1384, 332, 68, 110, 191, 770, 1273, 260, 284
141849594, 23, -13527, -260, -9241, 3187, -377, -3637, -285, -2273, 1384, 383, 67, 107, 204, 783, 1314, 269, 281
141850356, 23, -13527, -260, -9241, 3187, -377, -3637, -285, -2273, 1384, 383, 67, 107, 204, 783, 1314, 269, 281
141851172, 23, -13527, -260, -9241, 3187, -377, -3637, -285, -2273, 1384, 383, 67, 107, 204, 783, 1314, 269, 281
141856073, 23, -13527, -260, -9241, 3187, -377, -3637, -285, -2273, 1384, 383, 67, 107, 204, 783, 1314, 269, 281
141856882, 23, -13527, -260, -9241, 3187, -377, -3637, -285, -2273, 1384, 383, 67, 107, 204, 783, 1314, 269, 281
141857696, 23, -13527, -260, -9241, 3187, -377, -3637, -285, -2273, 1384, 383, 67, 107, 204, 783, 1314, 269, 281
141858535, 23, -13527, -260, -9241, 3187, -377, -3637, -285, -2273, 1384, 383, 67, 107, 204, 783, 1314, 269, 281
141863667, 23, -13527, -260, -9241, 3187, -377, -3637, -285, -2273, 1384, 383, 67, 107, 204, 783, 1314, 269, 281
141864630, 115, -13766, -34, -8885, 3025, -353, -3730, -258, -2391, 1360, 383, 67, 107, 204, 783, 1314, 269, 281
141865418, 115, -13766, -34, -8885, 3025, -353, -3730, -258, -2391, 1360, 441, 65, 94, 207, 852, 1416, 294, 235
141866223, 115, -13766, -34, -8885, 3025, -353, -3730, -258, -2391, 1360, 441, 65, 94, 207, 852, 1416, 294, 235
141871243, 115, -13766, -34, -8885, 3025, -353, -3730, -258, -2391, 1360, 441, 65, 94, 207, 852, 1416, 294, 235
141872044, 115, -13766, -34, -8885, 3025, -353, -3730, -258, -2391, 1360, 441, 65, 94, 207, 852, 1416, 294, 235
141872882, 115, -13766, -34, -8885, 3025, -353, -3730, -258, -2391, 1360, 441, 65, 94, 207, 852, 1416, 294, 235
141873691, 115, -13766, -34, -8885, 3025, -353, -3730, -258, -2391, 1360, 441, 65, 94, 207, 852, 1416, 294, 235
141878624, 115, -13766, -34, -8885, 3025, -353, -3730, -258, -2391, 1360, 441, 65, 94, 207, 852, 1416, 294, 235
141879433, 115, -13766, -34, -8885, 3025, -353, -3730, -258, -2391, 1360, 441, 65, 94, 207, 852, 1416, 294, 235
141880265, 115, -13766, -34, -8885, 3025, -353, -3730, -258, -2391, 1360, 441, 65, 94, 207, 852, 1416, 294, 235
141881072, 115, -13766, -34, -8885, 3025, -353, -3730, -258, -2391, 1360, 441, 65, 94, 207, 852, 1416, 294, 235
141886145, 115, -13766, -34, -8885, 3025, -353, -3730, -258, -2391, 1360, 441, 65, 94, 207, 852, 1416, 294, 235
141887073, 210, -14017, 198, -8480, 2997, -320, -3642, -268, -2408, 1373, 441, 65, 94, 207, 852, 1416, 294, 235
141887905, 210, -14017, 198, -8480, 2997, -320, -3642, -268, -2408, 1373, 442, 67, 103, 283, 903, 1296, 295, 204
141888692, 210, -14017, 198, -8480, 2997, -320, -3642, -268, -2408, 1373, 442, 67, 103, 283, 903, 1296, 295, 204
141893713, 210, -14017, 198, -8480, 2997, -320, -3642, -268, -2408, 1373, 442, 67, 103, 283, 903, 1296, 295, 204
141894524, 210, -14017, 198, -8480, 2997, -320, -3642, -268, -2408, 1373, 442, 67, 103, 283, 903, 1296, 295, 204
141895341, 210, -14017, 198, -8480, 2997, -320, -3642, -268, -2408, 1373, 442, 67, 103, 283, 903, 1296, 295, 204
141896166, 210, -14017, 198, -8480, 2997, -320, -3642, -268, -2408, 1373, 442, 67, 103, 283, 903, 1296, 295, 204
141901115, 210, -14017, 198, -8480, 2997, -320, -3642, -268, -2408, 1373, 442, 67, 103, 283, 903, 1296, 295, 204
141901913, 210, -14017, 198, -8480, 2997, -320, -3642, -268, -2408, 1373, 442, 67, 103, 283, 903, 1296, 295, 204
141902735, 210, -14017, 198, -8480, 2997, -320, -3642, -268, -2408, 1373, 442, 67, 103, 283, 903, 1296, 295, 204
141903614, 210, -14017, 198, -8480, 2997, -320, -3642, -268, -2408, 1373, 442, 67, 103, 283, 903, 1296, 295, 204
141916163, 210, -14017, 198, -8480, 2997, -320, -3642, -268, -2408, 1373, 442, 67, 103, 283, 903, 1296, 295, 204
141917090, 321, -14230, 439, -8104, 2895, -389, -3543, -208, -2197, 1467, 442, 67, 103, 283, 903, 1296, 295, 204
141917915, 321, -14230, 439, -8104, 2895, -389, -3543, -208, -2197, 1467, 443, 67, 124, 456, 993, 1320, 342, 141
141918713, 321, -14230, 439, -8104, 2895, -389, -3543, -208, -2197, 1467, 443, 67, 124, 456, 993, 1320, 342, 141
141923738, 321, -14230, 439, -8104, 2895, -389, -3543, -208, -2197, 1467, 443, 67, 124, 456, 993, 1320, 342, 141
141924616, 321, -14230, 439, -8104, 2895, -389, -3543, -208, -2197, 1467, 443, 67, 124, 456, 993, 1320, 342, 141
141925298, 321, -14230, 439, -8104, 2895, -389, -3543, -208, -2197, 1467, 443, 67, 124, 456, 993, 1320, 342, 141
141926161, 321, -14230, 439, -8104, 2895, -389, -3543, -208, -2197, 1467, 443, 67, 124, 456, 993, 1320, 342, 141
141929810, 321, -14230, 439, -8104, 2895, -389, -3543, -208, -2197, 1467, 443, 67, 124, 456, 993, 1320, 342, 141
141930611, 321, -14230, 439, -8104, 2895, -389, -3543, -208, -2197, 1467, 443, 67, 124, 456, 993, 1320, 342, 141
141931447, 321, -14230, 439, -8104, 2895, -389, -3543, -208, -2197, 1467, 443, 67, 124, 456, 993, 1320, 342, 141
141936012, 1539, -15432, 2004, -4892, 1503, -765, -3886, 414, -410, 323, 443, 67, 124, 456, 993, 1320, 342, 141
141944113, 1539, -15432, 2004, -4892, 1503, -765, -3886, 414, -410, 323, 1057, 240, 131, 497, 1074, 1218, 527, 302
141944938, 1539, -15432, 2004, -4892, 1503, -765, -3886, 414, -410, 323, 1057, 240, 131, 497, 1074, 1218, 527, 302
141958483, 1627, -15459, 2039, -4761, 1546, -790, -3897, 509, -334, 380, 1057, 240, 131, 497, 1074, 1218, 527, 302
141966618, 1627, -15459, 2039, -4761, 1546, -790, -3897, 509, -334, 380, 1034, 253, 145, 362, 1006, 1202, 516, 296
141967417, 1627, -15459, 2039, -4761, 1546, -790, -3897, 509, -334, 380, 1034, 253, 145, 362, 1006, 1202, 516, 296
141973621, 1706, -15473, 2072, -4673, 1723, -726, -4003, 566, -159, 395, 1034, 253, 145, 362, 1006, 1202, 516, 296
141989185, 1706, -15473, 2072, -4673, 1723, -726, -4003, 566, -159, 395, 1051, 252, 153, 375, 987, 1234, 461, 289
141989963, 1706, -15473, 2072, -4673, 1723, -726, -4003, 566, -159, 395, 1051, 252, 153, 375, 987, 1234, 461, 289
141996123, 1757, -15485, 2107, -4598, 1818, -806, -4174, 429, -85, 353, 1051, 252, 153, 375, 987, 1234, 461, 289
142011650, 1757, -15485, 2107, -4598, 1818, -806, -4174, 429, -85, 353, 1084, 255, 162, 385, 1008, 1131, 448, 261
142012467, 1757, -15485, 2107, -4598, 1818, -806, -4174, 429, -85, 353, 1084, 255, 162, 385, 1008, 1131, 448, 261
142018614, 1795, -15493, 2135, -4542, 2011, -838, -4316, 406, -41, 324, 1084, 255, 162, 385, 1008, 1131, 448, 261
142026667, 1795, -15493, 2135, -4542, 2011, -838, -4316, 406, -41, 324, 1227, 259, 173, 369, 1005, 1171, 496, 246
142027460, 1795, -15493, 2135, -4542, 2011, -838, -4316, 406, -41, 324, 1227, 259, 173, 369, 1005, 1171, 496, 246
142033621, 1802, -15499, 2165, -4505, 2185, -702, -4466, 344, 27, 339, 1227, 259, 173, 369, 1005, 1171, 496, 246
142049143, 1802, -15499, 2165, -4505, 2185, -702, -4466, 344, 27, 339, 1247, 224, 173, 371, 955, 1223, 504, 263
142049961, 1802, -15499, 2165, -4505, 2185, -702, -4466, 344, 27, 339, 1247, 224, 173, 371, 955, 1223, 504, 263
142056115, 1830, -15487, 2216, -4512, 2345, -688, -4557, 83, 67, 318, 1247, 224, 173, 371, 955, 1223, 504, 263
142064117, 1830, -15487, 2216, -4512, 2345, -688, -4557, 83, 67, 318, 1147, 201, 164, 367, 967, 1226, 498, 255
142064919, 1830, -15487, 2216, -4512, 2345, -688, -4557, 83, 67, 318, 1147, 201, 164, 367, 967, 1226, 498, 255
142078495, 1823, -15478, 2269, -4519, 2642, -766, -4532, -108, 88, 270, 1147, 201, 164, 367, 967, 1226, 498, 255
142086663, 1823, -15478, 2269, -4519, 2642, -766, -4532, -108, 88, 270, 1195, 202, 168, 360, 984, 1223, 511, 261
142087453, 1823, -15478, 2269, -4519, 2642, -766, -4532, -108, 88, 270, 1195, 202, 168, 360, 984, 1223, 511, 261
142093618, 1805, -15468, 2311, -4537, 2780, -779, -4446, -144, 151, 189, 1195, 202, 168, 360, 984, 1223, 511, 261
142109142, 1805, -15468, 2311, -4537, 2780, -779, -4446, -144, 151, 189, 1144, 180, 180, 353, 948, 1311, 489, 248
142109973, 1805, -15468, 2311, -4537, 2780, -779, -4446, -144, 151, 189, 1144, 180, 180, 353, 948, 1311, 489, 248
142116120, 1751, -15462, 2347, -4563, 2973, -641, -4255, -314, 211, 95, 1144, 180, 180, 353, 948, 1311, 489, 248
142124172, 1751, -15462, 2347, -4563, 2973, -641, -4255, -314, 211, 95, 981, 185, 207, 348, 1000, 1249, 455, 255
142125027, 1751, -15462, 2347, -4563, 2973, -641, -4255, -314, 211, 95, 981, 185, 207, 348, 1000, 1249, 455, 255
142141244, 1676, -15455, 2373, -4599, 3174, -634, -4089, -406, 278, 8, 981, 185, 207, 348, 1000, 1249, 455, 255
142142050, 1142, -15264, 1872, -5536, 1862, -867, -3612, 199, -349, 349, 981, 185, 207, 348, 1000, 1249, 455, 255
142142859, 1142, -15264, 1872, -5536, 1862, -867, -3612, 199, -349, 349, 844, 209, 200, 860, 1186, 1384, 486, 331
142143688, 1142, -15264, 1872, -5536, 1862, -867, -3612, 199, -349, 349, 844, 209, 200, 860, 1186, 1384, 486, 331
142148779, 1226, -15294, 1905, -5422, 1726, -807, -3621, 384, -216, 297, 844, 209, 200, 860, 1186, 1384, 486, 331
142149610, 1226, -15294, 1905, -5422, 1726, -807, -3621, 384, -216, 297, 975, 217, 193, 690, 1177, 1353, 488, 328
142150393, 1226, -15294, 1905, -5422, 1726, -807, -3621, 384, -216, 297, 975, 217, 193, 690, 1177, 1353, 488, 328
142151214, 1226, -15294, 1905, -5422, 1726, -807, -3621, 384, -216, 297, 975, 217, 193, 690, 1177, 1353, 488, 328
142156092, 1226, -15294, 1905, -5422, 1726, -807, -3621, 384, -216, 297, 975, 217, 193, 690, 1177, 1353, 488, 328
142156916, 1226, -15294, 1905, -5422, 1726, -807, -3621, 384, -216, 297, 975, 217, 193, 690, 1177, 1353, 488, 328
142157718, 1226, -15294, 1905, -5422, 1726, -807, -3621, 384, -216, 297, 975, 217, 193, 690, 1177, 1353, 488, 328
142158533, 1226, -15294, 1905, -5422, 1726, -807, -3621, 384, -216, 297, 975, 217, 193, 690, 1177, 1353, 488, 328
142163665, 1226, -15294, 1905, -5422, 1726, -807, -3621, 384, -216, 297, 975, 217, 193, 690, 1177, 1353, 488, 328
142164616, 1301, -15327, 1931, -5302, 1637, -751, -3642, 381, -238, 264, 975, 217, 193, 690, 1177, 1353, 488, 328
142165424, 1301, -15327, 1931, -5302, 1637, -751, -3642, 381, -238, 264, 864, 203, 193, 596, 1100, 1406, 560, 323
142166240, 1301, -15327, 1931, -5302, 1637, -751, -3642, 381, -238, 264, 864, 203, 193, 596, 1100, 1406, 560, 323
142171230, 1301, -15327, 1931, -5302, 1637, -751, -3642, 381, -238, 264, 864, 203, 193, 596, 1100, 1406, 560, 323
142172028, 1301, -15327, 1931, -5302, 1637, -751, -3642, 381, -238, 264, 864, 203, 193, 596, 1100, 1406, 560, 323
142172854, 1301, -15327, 1931, -5302, 1637, -751, -3642, 381, -238, 264, 864, 203, 193, 596, 1100, 1406, 560, 323
142173694, 1301, -15327, 1931, -5302, 1637, -751, -3642, 381, -238, 264, 864, 203, 193, 596, 1100, 1406, 560, 323
142178646, 1301, -15327, 1931, -5302, 1637, -751, -3642, 381, -238, 264, 864, 203, 193, 596, 1100, 1406, 560, 323
142179458, 1301, -15327, 1931, -5302, 1637, -751, -3642, 381, -238, 264, 864, 203, 193, 596, 1100, 1406, 560, 323
142180268, 1301, -15327, 1931, -5302, 1637, -751, -3642, 381, -238, 264, 864, 203, 193, 596, 1100, 1406, 560, 323
142181070, 1301, -15327, 1931, -5302, 1637, -751, -3642, 381, -238, 264, 864, 203, 193, 596, 1100, 1406, 560, 323
142186149, 1301, -15327, 1931, -5302, 1637, -751, -3642, 381, -238, 264, 864, 203, 193, 596, 1100, 1406, 560, 323
142187055, 1383, -15357, 1954, -5185, 1596, -792, -3745, 437, -210, 256, 864, 203, 193, 596, 1100, 1406, 560, 323
142188036, 1383, -15357, 1954, -5185, 1596, -792, -3745, 437, -210, 256, 923, 217, 158, 579, 1110, 1447, 580, 325
142188718, 1383, -15357, 1954, -5185, 1596, -792, -3745, 437, -210, 256, 923, 217, 158, 579, 1110, 1447, 580, 325
142193722, 1383, -15357, 1954, -5185, 1596, -792, -3745, 437, -210, 256, 923, 217, 158, 579, 1110, 1447, 580, 325
142194545, 1383, -15357, 1954, -5185, 1596, -792, -3745, 437, -210, 256, 923, 217, 158, 579, 1110, 1447, 580, 325
142195348, 1383, -15357, 1954, -5185, 1596, -792, -3745, 437, -210, 256, 923, 217, 158, 579, 1110, 1447, 580, 325
142196167, 1383, -15357, 1954, -5185, 1596, -792, -3745, 437, -210, 256, 923, 217, 158, 579, 1110, 1447, 580, 325
142201125, 1383, -15357, 1954, -5185, 1596, -792, -3745, 437, -210, 256, 923, 217, 158, 579, 1110, 1447, 580, 325
142201952, 1383, -15357, 1954, -5185, 1596, -792, -3745, 437, -210, 256, 923, 217, 158, 579, 1110, 1447, 580, 325
142202730, 1383, -15357, 1954, -5185, 1596, -792, -3745, 437, -210, 256, 923, 217, 158, 579, 1110, 1447, 580, 325
142203525, 1383, -15357, 1954, -5185, 1596, -792, -3745, 437, -210, 256, 923, 217, 158, 579, 1110, 1447, 580, 325
142209138, 1383, -15357, 1954, -5185, 1596, -792, -3745, 437, -210, 256, 923, 217, 158, 579, 1110, 1447, 580, 325
142209613, 1465, -15393, 1973, -5046, 1552, -661, -3889, 519, -313, 299, 923, 217, 158, 579, 1110, 1447, 580, 325
142210330, 1465, -15393, 1973, -5046, 1552, -661, -3889, 519, -313, 299, 963, 211, 151, 516, 1103, 1295, 535, 316
142211194, 1465, -15393, 1973, -5046, 1552, -661, -3889, 519, -313, 299, 963, 211, 151, 516, 1103, 1295, 535, 316
142216191, 1465, -15393, 1973, -5046, 1552, -661, -3889, 519, -313, 299, 963, 211, 151, 516, 1103, 1295, 535, 316
142216989, 1465, -15393, 1973, -5046, 1552, -661, -3889, 519, -313, 299, 963, 211, 151, 516, 1103, 1295, 535, 316
142217876, 1465, -15393, 1973, -5046, 1552, -661, -3889, 519, -313, 299, 963, 211, 151, 516, 1103, 1295, 535, 316
142218641, 1465, -15393, 1973, -5046, 1552, -661, -3889, 519, -313, 299, 963, 211, 151, 516, 1103, 1295, 535, 316
142223642, 1465, -15393, 1973, -5046, 1552, -661, -3889, 519, -313, 299, 963, 211, 151, 516, 1103, 1295, 535, 316
142224458, 1465, -15393, 1973, -5046, 1552, -661, -3889, 519, -313, 299, 963, 211, 151, 516, 1103, 1295, 535, 316
142225253, 1465, -15393, 1973, -5046, 1552, -661, -3889, 519, -313, 299, 963, 211, 151, 516, 1103, 1295, 535, 316
142226094, 1465, -15393, 1973, -5046, 1552, -661, -3889, 519, -313, 299, 963, 211, 151, 516, 1103, 1295, 535, 316
142231170, 1465, -15393, 1973, -5046, 1552, -661, -3889, 519, -313, 299, 963, 211, 151, 516, 1103, 1295, 535, 316
142232100, 1539, -15432, 2004, -4892, 1503, -765, -3886, 414, -410, 323, 963, 211, 151, 516, 1103, 1295, 535, 316
142232917, 1539, -15432, 2004, -4892, 1503, -765, -3886, 414, -410, 323, 1057, 240, 131, 497, 1074, 1218, 527, 302
142233719, 1539, -15432, 2004, -4892, 1503, -765, -3886, 414, -410, 323, 1057, 240, 131, 497, 1074, 1218, 527, 302
142238746, 1539, -15432, 2004, -4892, 1503, -765, -3886, 414, -410, 323, 1057, 240, 131, 497, 1074, 1218, 527, 302
142239526, 1539, -15432, 2004, -4892, 1503, -765, -3886, 414, -410, 323, 1057, 240, 131, 497, 1074, 1218, 527, 302
142240365, 1539, -15432, 2004, -4892, 1503, -765, -3886, 414, -410, 323, 1057, 240, 131, 497, 1074, 1218, 527, 302
142241162, 1539, -15432, 2004, -4892, 1503, -765, -3886, 414, -410, 323, 1057, 240, 131, 497, 1074, 1218, 527, 302
142246115, 1539, -15432, 2004, -4892, 1503, -765, -3886, 414, -410, 323, 1057, 240, 131, 497, 1074, 1218, 527, 302
142246941, 1539, -15432, 2004, -4892, 1503, -765, -3886, 414, -410, 323, 1057, 240, 131, 497, 1074, 1218, 527, 302
142247750, 1539, -15432, 2004, -4892, 1503, -765, -3886, 414, -410, 323, 1057, 240, 131, 497, 1074, 1218, 527, 302
142248622, 1539, -15432, 2004, -4892, 1503, -765, -3886, 414, -410, 323, 1057, 240, 131, 497, 1074, 1218, 527, 302
142253646, 1539, -15432, 2004, -4892, 1503, -765, -3886, 414, -410, 323, 1057, 240, 131, 497, 1074, 1218, 527, 302
142254619, 1627, -15459, 2039, -4761, 1546, -790, -3897, 509, -334, 380, 1057, 240, 131, 497, 1074, 1218, 527, 302
142255382, 1627, -15459, 2039, -4761, 1546, -790, -3897, 509, -334, 380, 1034, 253, 145, 362, 1006, 1202, 516, 296
142256193, 1627, -15459, 2039, -4761, 1546, -790, -3897, 509, -334, 380, 1034, 253, 145, 362, 1006, 1202, 516, 296
142261220, 1627, -15459, 2039, -4761, 1546, -790, -3897, 509, -334, 380, 1034, 253, 145, 362, 1006, 1202, 516, 296
142262018, 1627, -15459, 2039, -4761, 1546, -790, -3897, 509, -334, 380, 1034, 253, 145, 362, 1006, 1202, 516, 296
142262839, 1627, -15459, 2039, -4761, 1546, -790, -3897, 509, -334, 380, 1034, 253, 145, 362, 1006, 1202, 516, 296
142263644, 1627, -15459, 2039, -4761, 1546, -790, -3897, 509, -334, 380, 1034, 253, 145, 362, 1006, 1202, 516, 296
142268616, 1627, -15459, 2039, -4761, 1546, -790, -3897, 509, -334, 380, 1034, 253, 145, 362, 1006, 1202, 516, 296
142269428, 1627, -15459, 2039, -4761, 1546, -790, -3897, 509, -334, 380, 1034, 253, 145, 362, 1006, 1202, 516, 296
142270248, 1627, -15459, 2039, -4761, 1546, -790, -3897, 509, -334, 380, 1034, 253, 145, 362, 1006, 1202, 516, 296
142271043, 1627, -15459, 2039, -4761, 1546, -790, -3897, 509, -334, 380, 1034, 253, 145, 362, 1006, 1202, 516, 296
142276166, 1627, -15459, 2039, -4761, 1546, -790, -3897, 509, -334, 380, 1034, 253, 145, 362, 1006, 1202, 516, 296
142277122, 1706, -15473, 2072, -4673, 1723, -726, -4003, 566, -159, 395, 1034, 253, 145, 362, 1006, 1202, 516, 296
142277918, 1706, -15473, 2072, -4673, 1723, -726, -4003, 566, -159, 395, 1051, 252, 153, 375, 987, 1234, 461, 289
142278752, 1706, -15473, 2072, -4673, 1723, -726, -4003, 566, -159, 395, 1051, 252, 153, 375, 987, 1234, 461, 289
142283686, 1706, -15473, 2072, -4673, 1723, -726, -4003, 566, -159, 395, 1051, 252, 153, 375, 987, 1234, 461, 289
142284492, 1706, -15473, 2072, -4673, 1723, -726, -4003, 566, -159, 395, 1051, 252, 153, 375, 987, 1234, 461, 289
142285315, 1706, -15473, 2072, -4673, 1723, -726, -4003, 566, -159, 395, 1051, 252, 153, 375, 987, 1234, 461, 289
142286137, 1706, -15473, 2072, -4673, 1723, -726, -4003, 566, -159, 395, 1051, 252, 153, 375, 987, 1234, 461, 289
142291139, 1706, -15473, 2072, -4673, 1723, -726, -4003, 566, -159, 395, 1051, 252, 153, 375, 987, 1234, 461, 289
142291973, 1706, -15473, 2072, -4673, 1723, -726, -4003, 566, -159, 395, 1051, 252, 153, 375, 987, 1234, 461, 289
142292781, 1706, -15473, 2072, -4673, 1723, -726, -4003, 566, -159, 395, 1051, 252, 153, 375, 987, 1234, 461, 289
142293610, 1706, -15473, 2072, -4673, 1723, -726, -4003, 566, -159, 395, 1051, 252, 153, 375, 987, 1234, 461, 289
142297992, 1706, -15473, 2072, -4673, 1723, -726, -4003, 566, -159, 395, 1051, 252, 153, 375, 987, 1234, 461, 289
142298941, 1757, -15485, 2107, -4598, 1818, -806, -4174, 429, -85, 353, 1051, 252, 153, 375, 987, 1234, 461, 289
142299781, 1757, -15485, 2107, -4598, 1818, -806, -4174, 429, -85, 353, 1084, 255, 162, 385, 1008, 1131, 448, 261
142300616, 1757, -15485, 2107, -4598, 1818, -806, -4174, 429, -85, 353, 1084, 255, 162, 385, 1008, 1131, 448, 261
142311613, 1757, -15485, 2107, -4598, 1818, -806, -4174, 429, -85, 353, 931, 1347, 174, 574, 1141, 1110, 498, 362
142312417, 1757, -15485, 2107, -4598, 1818, -806, -4174, 429, -85, 353, 931, 1347, 174, 574, 1141, 1110, 498, 362
142318612, 725, -15268, 2149, -5496, 2948, -291, -3338, -28, -88, -78, 931, 1347, 174, 574, 1141, 1110, 498, 362
142334838, 725, -15268, 2149, -5496, 2948, -291, -3338, -28, -88, -78, 924, 1041, 177, 549, 1111, 1092, 445, 355
142335637, 725, -15268, 2149, -5496, 2948, -291, -3338, -28, -88, -78, 924, 1041, 177, 549, 1111, 1092, 445, 355
142336618, 678, -15277, 2137, -5481, 2836, -501, -3459, -135, -105, -63, 924, 1041, 177, 549, 1111, 1092, 445, 355
142349086, 678, -15277, 2137, -5481, 2836, -501, -3459, -135, -105, -63, 903, 683, 163, 529, 1107, 1150, 417, 323
142349910, 678, -15277, 2137, -5481, 2836, -501, -3459, -135, -105, -63, 903, 683, 163, 529, 1107, 1150, 417, 323
142356143, 644, -15283, 2130, -5471, 2743, -620, -3525, -123, -19, -70, 903, 683, 163, 529, 1107, 1150, 417, 323
142371637, 644, -15283, 2130, -5471, 2743, -620, -3525, -123, -19, -70, 951, 646, 155, 480, 1138, 1208, 365, 315
142372474, 644, -15283, 2130, -5471, 2743, -620, -3525, -123, -19, -70, 951, 646, 155, 480, 1138, 1208, 365, 315
142378627, 630, -15286, 2123, -5467, 2595, -674, -3575, -41, 83, -69, 951, 646, 155, 480, 1138, 1208, 365, 315
142394801, 630, -15286, 2123, -5467, 2595, -674, -3575, -41, 83, -69, 867, 487, 152, 498, 1032, 1213, 338, 300
142395619, 630, -15286, 2123, -5467, 2595, -674, -3575, -41, 83, -69, 867, 487, 152, 498, 1032, 1213, 338, 300
142396620, 630, -15290, 2103, -5463, 2579, -655, -3638, 72, 94, -101, 867, 487, 152, 498, 1032, 1213, 338, 300
142409119, 630, -15290, 2103, -5463, 2579, -655, -3638, 72, 94, -101, 787, 435, 131, 418, 1005, 1244, 305, 250
142409947, 630, -15290, 2103, -5463, 2579, -655, -3638, 72, 94, -101, 787, 435, 131, 418, 1005, 1244, 305, 250
142416097, 636, -15297, 2079, -5451, 2545, -582, -3753, 143, 99, -96, 787, 435, 131, 418, 1005, 1244, 305, 250
142431624, 636, -15297, 2079, -5451, 2545, -582, -3753, 143, 99, -96, 742, 224, 119, 391, 940, 1250, 304, 228
142432448, 636, -15297, 2079, -5451, 2545, -582, -3753, 143, 99, -96, 742, 224, 119, 391, 940, 1250, 304, 228
142438620, 630, -15310, 2058, -5424, 2476, -521, -3830, 93, 61, -85, 742, 224, 119, 391, 940, 1250, 304, 228
142454839, 630, -15310, 2058, -5424, 2476, -521, -3830, 93, 61, -85, 695, 151, 97, 429, 878, 1193, 310, 230
142455640, 630, -15310, 2058, -5424, 2476, -521, -3830, 93, 61, -85, 695, 151, 97, 429, 878, 1193, 310, 230
142456616, 624, -15326, 2042, -5387, 2465, -612, -3846, 30, 10, -92, 695, 151, 97, 429, 878, 1193, 310, 230
142469116, 624, -15326, 2042, -5387, 2465, -612, -3846, 30, 10, -92, 612, 134, 90, 449, 813, 1170, 374, 218
142469902, 624, -15326, 2042, -5387, 2465, -612, -3846, 30, 10, -92, 612, 134, 90, 449, 813, 1170, 374, 218
142476071, 626, -15339, 2031, -5354, 2483, -672, -3793, 39, -10, -72, 612, 134, 90, 449, 813, 1170, 374, 218
142491693, 626, -15339, 2031, -5354, 2483, -672, -3793, 39, -10, -72, 593, 105, 83, 450, 779, 1135, 364, 215
142492467, 626, -15339, 2031, -5354, 2483, -672, -3793, 39, -10, -72, 593, 105, 83, 450, 779, 1135, 364, 215
142498616, 637, -15348, 2018, -5331, 2510, -676, -3745, 85, 7, -60, 593, 105, 83, 450, 779, 1135, 364, 215
142514790, 637, -15348, 2018, -5331, 2510, -676, -3745, 85, 7, -60, 552, 90, 82, 441, 834, 1116, 347, 217
142515612, 637, -15348, 2018, -5331, 2510, -676, -3745, 85, 7, -60, 552, 90, 82, 441, 834, 1116, 347, 217
142516617, 661, -15357, 2002, -5307, 2505, -663, -3766, 168, -5, -48, 552, 90, 82, 441, 834, 1116, 347, 217
142529145, 661, -15357, 2002, -5307, 2505, -663, -3766, 168, -5, -48, 526, 80, 82, 424, 851, 1059, 328, 184
142529935, 661, -15357, 2002, -5307, 2505, -663, -3766, 168, -5, -48, 526, 80, 82, 424, 851, 1059, 328, 184
142536092, 680, -15369, 1980, -5279, 2521, -573, -3818, 198, -30, -49, 526, 80, 82, 424, 851, 1059, 328, 184
142551611, 680, -15369, 1980, -5279, 2521, -573, -3818, 198, -30, -49, 472, 74, 78, 366, 809, 1100, 321, 176
142552444, 680, -15369, 1980, -5279, 2521, -573, -3818, 198, -30, -49, 472, 74, 78, 366, 809, 1100, 321, 176
142558624, 693, -15381, 1965, -5248, 2506, -592, -3762, 144, -61, -34, 472, 74, 78, 366, 809, 1100, 321, 176
142574842, 693, -15381, 1965, -5248, 2506, -592, -3762, 144, -61, -34, 400, 67, 75, 342, 774, 1128, 266, 160
142575672, 693, -15381, 1965, -5248, 2506, -592, -3762, 144, -61, -34, 400, 67, 75, 342, 774, 1128, 266, 160
142576617, 699, -15393, 1951, -5217, 2507, -589, -3716, 92, -82, -38, 400, 67, 75, 342, 774, 1128, 266, 160
142589118, 699, -15393, 1951, -5217, 2507, -589, -3716, 92, -82, -38, 402, 73, 71, 307, 765, 1098, 259, 147
142589913, 699, -15393, 1951, -5217, 2507, -589, -3716, 92, -82, -38, 402, 73, 71, 307, 765, 1098, 259, 147
142596081, 712, -15401, 1941, -5194, 2544, -672, -3648, 90, -84, -27, 402, 73, 71, 307, 765, 1098, 259, 147
142611637, 712, -15401, 1941, -5194, 2544, -672, -3648, 90, -84, -27, 412, 68, 78, 299, 857, 1009, 263, 136
142612435, 712, -15401, 1941, -5194, 2544, -672, -3648, 90, -84, -27, 412, 68, 78, 299, 857, 1009, 263, 136
142618626, 734, -15405, 1931, -5183, 2601, -682, -3577, 145, -68, -7, 412, 68, 78, 299, 857, 1009, 263, 136
142634827, 734, -15405, 1931, -5183, 2601, -682, -3577, 145, -68, -7, 371, 69, 77, 301, 807, 995, 268, 133
142635653, 734, -15405, 1931, -5183, 2601, -682, -3577, 145, -68, -7, 371, 69, 77, 301, 807, 995, 268, 133