Timestamp, Orientation x, Orientation y, Orientation z, Orientation w, Acceleration x, Acceleration y, Acceleration z, Rotation x, Rotation y, Rotation z, EMG 0, EMG 1, EMG 2, EMG 3, EMG 4, EMG 5, EMG 6, EMG 7
115258656, 467, -14047, -1673, -8253, 4028, 290, -2454, -211, 187, 29, 0, 0, 0, 0, 0, 0, 0, 0
115281791, 408, -14041, -1629, -8276, 4003, 344, -2480, -401, 216, 74, 0, 0, 0, 0, 0, 0, 0, 0
115282660, 329, -14037, -1565, -8298, 4006, 386, -2457, -556, 193, 127, 0, 0, 0, 0, 0, 0, 0, 0
115303653, 211, -14037, -1464, -8321, 3991, 452, -2477, -835, 190, 212, 0, 0, 0, 0, 0, 0, 0, 0
115318646, 56, -14041, -1311, -8343, 3993, 405, -2464, -1186, 154, 325, 0, 0, 0, 0, 0, 0, 0, 0
115326753, 56, -14041, -1311, -8343, 3993, 405, -2464, -1186, 154, 325, 31, 27, 28, 58, 211, 342, 47, 29
115327567, 56, -14041, -1311, -8343, 3993, 405, -2464, -1186, 154, 325, 31, 27, 28, 58, 211, 342, 47, 29
115341110, -125, -14045, -1110, -8364, 3997, 309, -2422, -1478, 126, 416, 31, 27, 28, 58, 211, 342, 47, 29
115349257, -125, -14045, -1110, -8364, 3997, 309, -2422, -1478, 126, 416, 39, 28, 33, 65, 225, 422, 64, 41
115350025, -125, -14045, -1110, -8364, 3997, 309, -2422, -1478, 126, 416, 39, 28, 33, 65, 225, 422, 64, 41
115363658, -351, -14050, -872, -8378, 3963, 280, -2406, -1781, -14, 479, 39, 28, 33, 65, 225, 422, 64, 41
115371681, -351, -14050, -872, -8378, 3963, 280, -2406, -1781, -14, 479, 40, 27, 30, 63, 220, 452, 62, 41
115372520, -351, -14050, -872, -8378, 3963, 280, -2406, -1781, -14, 479, 40, 27, 30, 63, 220, 452, 62, 41
115378656, -619, -14063, -584, -8365, 3954, 298, -2428, -2119, -181, 595, 40, 27, 30, 63, 220, 452, 62, 41
115386728, -619, -14063, -584, -8365, 3954, 298, -2428, -2119, -181, 595, 41, 28, 38, 71, 292, 505, 75, 49
115387517, -619, -14063, -584, -8365, 3954, 298, -2428, -2119, -181, 595, 41, 28, 38, 71, 292, 505, 75, 49
115410027, -919, -14085, -235, -8317, 3970, 321, -2557, -2444, -389, 795, 41, 28, 38, 71, 292, 505, 75, 49
115410740, -919, -14085, -235, -8317, 3970, 321, -2557, -2444, -389, 795, 40, 28, 40, 71, 311, 563, 79, 55
115411533, -919, -14085, -235, -8317, 3970, 321, -2557, -2444, -389, 795, 40, 28, 40, 71, 311, 563, 79, 55
115423561, -1264, -14107, 187, -8235, 4006, 151, -2564, -2879, -580, 971, 40, 28, 40, 71, 311, 563, 79, 55
115431747, -1264, -14107, 187, -8235, 4006, 151, -2564, -2879, -580, 971, 38, 29, 43, 79, 326, 603, 86, 66
115432564, -1264, -14107, 187, -8235, 4006, 151, -2564, -2879, -580, 971, 38, 29, 43, 79, 326, 603, 86, 66
115438719, -1610, -14131, 638, -8109, 4035, -122, -2530, -2988, -820, 1062, 38, 29, 43, 79, 326, 603, 86, 66
115446744, -1610, -14131, 638, -8109, 4035, -122, -2530, -2988, -820, 1062, 35, 28, 42, 75, 322, 567, 121, 85
115447562, -1610, -14131, 638, -8109, 4035, -122, -2530, -2988, -820, 1062, 35, 28, 42, 75, 322, 567, 121, 85
115461095, -1909, -14155, 1087, -7954, 4001, -215, -2612, -2773, -974, 1145, 35, 28, 42, 75, 322, 567, 121, 85
115469242, -1909, -14155, 1087, -7954, 4001, -215, -2612, -2773, -974, 1145, 37, 31, 41, 73, 329, 565, 127, 90
115470068, -1909, -14155, 1087, -7954, 4001, -215, -2612, -2773, -974, 1145, 37, 31, 41, 73, 329, 565, 127, 90
115483569, -2150, -14182, 1548, -7765, 3956, -240, -2730, -2536, -1165, 1335, 37, 31, 41, 73, 329, 565, 127, 90
115491745, -2150, -14182, 1548, -7765, 3956, -240, -2730, -2536, -1165, 1335, 47, 29, 43, 83, 278, 573, 128, 95
115492553, -2150, -14182, 1548, -7765, 3956, -240, -2730, -2536, -1165, 1335, 47, 29, 43, 83, 278, 573, 128, 95
115498695, -2339, -14208, 2027, -7550, 3928, -281, -2839, -2355, -1330, 1545, 47, 29, 43, 83, 278, 573, 128, 95
115506746, -2339, -14208, 2027, -7550, 3928, -281, -2839, -2355, -1330, 1545, 49, 40, 45, 95, 307, 623, 132, 99
115507551, -2339, -14208, 2027, -7550, 3928, -281, -2839, -2355, -1330, 1545, 49, 40, 45, 95, 307, 623, 132, 99
115521068, -2507, -14222, 2522, -7317, 3800, -394, -2978, -2321, -1404, 1660, 49, 40, 45, 95, 307, 623, 132, 99
115529223, -2507, -14222, 2522, -7317, 3800, -394, -2978, -2321, -1404, 1660, 50, 61, 52, 104, 305, 598, 145, 95
115530044, -2507, -14222, 2522, -7317, 3800, -394, -2978, -2321, -1404, 1660, 50, 61, 52, 104, 305, 598, 145, 95
115543638, -2631, -14226, 3008, -7078, 3792, -657, -2969, -2121, -1459, 1710, 50, 61, 52, 104, 305, 598, 145, 95
115551713, -2631, -14226, 3008, -7078, 3792, -657, -2969, -2121, -1459, 1710, 52, 83, 57, 121, 343, 629, 132, 81
115552540, -2631, -14226, 3008, -7078, 3792, -657, -2969, -2121, -1459, 1710, 52, 83, 57, 121, 343, 629, 132, 81
115558683, -2696, -14218, 3468, -6857, 3757, -632, -3017, -1759, -1384, 1761, 52, 83, 57, 121, 343, 629, 132, 81
115566739, -2696, -14218, 3468, -6857, 3757, -632, -3017, -1759, -1384, 1761, 57, 85, 61, 131, 407, 763, 134, 88
115567543, -2696, -14218, 3468, -6857, 3757, -632, -3017, -1759, -1384, 1761, 57, 85, 61, 131, 407, 763, 134, 88
115581113, -2716, -14197, 3911, -6649, 3718, -472, -3093, -1477, -1328, 1837, 57, 85, 61, 131, 407, 763, 134, 88
115589226, -2716, -14197, 3911, -6649, 3718, -472, -3093, -1477, -1328, 1837, 52, 86, 59, 124, 397, 779, 129, 87
115590032, -2716, -14197, 3911, -6649, 3718, -472, -3093, -1477, -1328, 1837, 52, 86, 59, 124, 397, 779, 129, 87
115603648, -2736, -14153, 4349, -6462, 3625, -469, -3141, -1456, -1177, 1875, 52, 86, 59, 124, 397, 779, 129, 87
115611719, -2736, -14153, 4349, -6462, 3625, -469, -3141, -1456, -1177, 1875, 69, 141, 63, 127, 495, 790, 134, 98
115612542, -2736, -14153, 4349, -6462, 3625, -469, -3141, -1456, -1177, 1875, 69, 141, 63, 127, 495, 790, 134, 98
115618696, -2758, -14094, 4788, -6267, 3606, -574, -3135, -1501, -1188, 1885, 69, 141, 63, 127, 495, 790, 134, 98
115626718, -2758, -14094, 4788, -6267, 3606, -574, -3135, -1501, -1188, 1885, 95, 164, 57, 180, 500, 809, 126, 102
115627530, -2758, -14094, 4788, -6267, 3606, -574, -3135, -1501, -1188, 1885, 95, 164, 57, 180, 500, 809, 126, 102
115641113, -2758, -14022, 5202, -6096, 3654, -698, -3076, -1314, -1083, 1855, 95, 164, 57, 180, 500, 809, 126, 102
115649206, -2758, -14022, 5202, -6096, 3654, -698, -3076, -1314, -1083, 1855, 96, 156, 54, 179, 476, 833, 110, 103
115650033, -2758, -14022, 5202, -6096, 3654, -698, -3076, -1314, -1083, 1855, 96, 156, 54, 179, 476, 833, 110, 103
115663636, -2713, -13947, 5565, -5968, 3719, -718, -3082, -920, -921, 1755, 96, 156, 54, 179, 476, 833, 110, 103
115671705, -2713, -13947, 5565, -5968, 3719, -718, -3082, -920, -921, 1755, 95, 159, 56, 186, 469, 734, 113, 106
115672514, -2713, -13947, 5565, -5968, 3719, -718, -3082, -920, -921, 1755, 95, 159, 56, 186, 469, 734, 113, 106
115678680, -2618, -13878, 5864, -5883, 3769, -438, -3105, -433, -771, 1622, 95, 159, 56, 186, 469, 734, 113, 106
115686725, -2618, -13878, 5864, -5883, 3769, -438, -3105, -433, -771, 1622, 98, 161, 60, 198, 543, 734, 124, 105
115687543, -2618, -13878, 5864, -5883, 3769, -438, -3105, -433, -771, 1622, 98, 161, 60, 198, 543, 734, 124, 105
115701100, -2536, -13804, 6127, -5825, 3596, -43, -3263, -328, -629, 1502, 98, 161, 60, 198, 543, 734, 124, 105
115709200, -2536, -13804, 6127, -5825, 3596, -43, -3263, -328, -629, 1502, 89, 115, 61, 217, 490, 658, 120, 93
115710025, -2536, -13804, 6127, -5825, 3596, -43, -3263, -328, -629, 1502, 89, 115, 61, 217, 490, 658, 120, 93
115723628, -2505, -13729, 6387, -5734, 3452, 119, -3356, -544, -613, 1445, 89, 115, 61, 217, 490, 658, 120, 93
115731671, -2505, -13729, 6387, -5734, 3452, 119, -3356, -544, -613, 1445, 66, 65, 61, 175, 517, 711, 125, 92
115732489, -2505, -13729, 6387, -5734, 3452, 119, -3356, -544, -613, 1445, 66, 65, 61, 175, 517, 711, 125, 92
115747547, -2509, -13642, 6668, -5621, 3369, 44, -3396, -824, -624, 1470, 66, 65, 61, 175, 517, 711, 125, 92
115748367, -2509, -13642, 6668, -5621, 3369, 44, -3396, -824, -624, 1470, 159, 62, 67, 207, 573, 840, 142, 99
115749189, -2509, -13642, 6668, -5621, 3369, 44, -3396, -824, -624, 1470, 159, 62, 67, 207, 573, 840, 142, 99
115761101, -2525, -13530, 6987, -5495, 3399, -138, -3410, -1070, -629, 1602, 159, 62, 67, 207, 573, 840, 142, 99
115769210, -2525, -13530, 6987, -5495, 3399, -138, -3410, -1070, -629, 1602, 179, 57, 75, 220, 659, 899, 150, 91
115770009, -2525, -13530, 6987, -5495, 3399, -138, -3410, -1070, -629, 1602, 179, 57, 75, 220, 659, 899, 150, 91
115783635, -2543, -13403, 7320, -5362, 3334, -358, -3422, -1151, -639, 1675, 179, 57, 75, 220, 659, 899, 150, 91
115791698, -2543, -13403, 7320, -5362, 3334, -358, -3422, -1151, -639, 1675, 186, 54, 72, 252, 621, 963, 143, 91
115792514, -2543, -13403, 7320, -5362, 3334, -358, -3422, -1151, -639, 1675, 186, 54, 72, 252, 621, 963, 143, 91
115798668, -2578, -13271, 7650, -5212, 3311, -422, -3448, -1277, -673, 1629, 186, 54, 72, 252, 621, 963, 143, 91
115806714, -2578, -13271, 7650, -5212, 3311, -422, -3448, -1277, -673, 1629, 191, 54, 69, 271, 619, 1079, 161, 106
115807508, -2578, -13271, 7650, -5212, 3311, -422, -3448, -1277, -673, 1629, 191, 54, 69, 271, 619, 1079, 161, 106
115821089, -2608, -13131, 7955, -5093, 3328, -530, -3386, -1251, -656, 1483, 191, 54, 69, 271, 619, 1079, 161, 106
115829187, -2608, -13131, 7955, -5093, 3328, -530, -3386, -1251, -656, 1483, 200, 52, 73, 308, 707, 1136, 173, 120
115830007, -2608, -13131, 7955, -5093, 3328, -530, -3386, -1251, -656, 1483, 200, 52, 73, 308, 707, 1136, 173, 120
115843636, -2621, -12999, 8218, -5006, 3333, -570, -3393, -1013, -565, 1333, 200, 52, 73, 308, 707, 1136, 173, 120
115851738, -2621, -12999, 8218, -5006, 3333, -570, -3393, -1013, -565, 1333, 142, 54, 74, 307, 738, 1088, 163, 115
115852638, -2621, -12999, 8218, -5006, 3333, -570, -3393, -1013, -565, 1333, 142, 54, 74, 307, 738, 1088, 163, 115
115858716, -2620, -12879, 8445, -4941, 3230, -513, -3442, -777, -454, 1212, 142, 54, 74, 307, 738, 1088, 163, 115
115866686, -2620, -12879, 8445, -4941, 3230, -513, -3442, -777, -454, 1212, 135, 50, 71, 315, 740, 1146, 154, 112
115867520, -2620, -12879, 8445, -4941, 3230, -513, -3442, -777, -454, 1212, 135, 50, 71, 315, 740, 1146, 154, 112
115881098, -2614, -12771, 8644, -4879, 3171, -411, -3520, -630, -410, 1112, 135, 50, 71, 315, 740, 1146, 154, 112
115889245, -2614, -12771, 8644, -4879, 3171, -411, -3520, -630, -410, 1112, 160, 50, 74, 359, 805, 1123, 175, 115
115890063, -2614, -12771, 8644, -4879, 3171, -411, -3520, -630, -410, 1112, 160, 50, 74, 359, 805, 1123, 175, 115
115903566, -2624, -12671, 8823, -4812, 3140, -292, -3541, -620, -380, 1019, 160, 50, 74, 359, 805, 1123, 175, 115
115911736, -2624, -12671, 8823, -4812, 3140, -292, -3541, -620, -380, 1019, 163, 59, 84, 342, 792, 1057, 189, 115
115912544, -2624, -12671, 8823, -4812, 3140, -292, -3541, -620, -380, 1019, 163, 59, 84, 342, 792, 1057, 189, 115
115918717, -2643, -12575, 8988, -4748, 3105, -277, -3587, -610, -322, 937, 163, 59, 84, 342, 792, 1057, 189, 115
115926056, -2643, -12575, 8988, -4748, 3105, -277, -3587, -610, -322, 937, 189, 60, 84, 325, 715, 987, 175, 95
115933537, -2643, -12575, 8988, -4748, 3105, -277, -3587, -610, -322, 937, 189, 60, 84, 325, 715, 987, 175, 95
115941209, -2652, -12487, 9128, -4707, 3110, -316, -3621, -461, -245, 843, 189, 60, 84, 325, 715, 987, 175, 95
115949209, -2652, -12487, 9128, -4707, 3110, -316, -3621, -461, -245, 843, 206, 57, 84, 327, 747, 992, 181, 98
115950011, -2652, -12487, 9128, -4707, 3110, -316, -3621, -461, -245, 843, 206, 57, 84, 327, 747, 992, 181, 98
115963635, -2657, -12413, 9247, -4668, 3024, -264, -3644, -364, -215, 733, 206, 57, 84, 327, 747, 992, 181, 98
115971685, -2657, -12413, 9247, -4668, 3024, -264, -3644, -364, -215, 733, 210, 63, 94, 354, 750, 976, 193, 104
115972495, -2657, -12413, 9247, -4668, 3024, -264, -3644, -364, -215, 733, 210, 63, 94, 354, 750, 976, 193, 104
115978672, -2665, -12351, 9355, -4613, 2964, -277, -3692, -397, -258, 625, 210, 63, 94, 354, 750, 976, 193, 104
115986039, -2665, -12351, 9355, -4613, 2964, -277, -3692, -397, -258, 625, 220, 65, 94, 365, 696, 938, 177, 97
115993542, -2665, -12351, 9355, -4613, 2964, -277, -3692, -397, -258, 625, 220, 65, 94, 365, 696, 938, 177, 97
116001180, -2668, -12301, 9448, -4555, 2910, -279, -3720, -352, -269, 520, 220, 65, 94, 365, 696, 938, 177, 97
116009214, -2668, -12301, 9448, -4555, 2910, -279, -3720, -352, -269, 520, 267, 63, 97, 387, 727, 946, 176, 96
116010042, -2668, -12301, 9448, -4555, 2910, -279, -3720, -352, -269, 520, 267, 63, 97, 387, 727, 946, 176, 96
116023641, -2653, -12265, 9520, -4512, 2893, -331, -3719, -211, -279, 419, 267, 63, 97, 387, 727, 946, 176, 96
116031718, -2653, -12265, 9520, -4512, 2893, -331, -3719, -211, -279, 419, 300, 70, 98, 387, 752, 961, 181, 99
116032522, -2653, -12265, 9520, -4512, 2893, -331, -3719, -211, -279, 419, 300, 70, 98, 387, 752, 961, 181, 99
116038659, -2628, -12242, 9573, -4476, 2891, -299, -3739, -79, -293, 333, 300, 70, 98, 387, 752, 961, 181, 99
116054206, -2628, -12242, 9573, -4476, 2891, -299, -3739, -79, -293, 333, 332, 78, 104, 385, 736, 947, 212, 108
116055017, -2628, -12242, 9573, -4476, 2891, -299, -3739, -79, -293, 333, 332, 78, 104, 385, 736, 947, 212, 108
116061178, -2599, -12232, 9612, -4435, 2848, -305, -3740, -52, -334, 233, 332, 78, 104, 385, 736, 947, 212, 108
116069215, -2599, -12232, 9612, -4435, 2848, -305, -3740, -52, -334, 233, 405, 92, 96, 358, 689, 1013, 206, 106
116070017, -2599, -12232, 9612, -4435, 2848, -305, -3740, -52, -334, 233, 405, 92, 96, 358, 689, 1013, 206, 106
116083649, -2573, -12236, 9636, -4387, 2846, -287, -3744, -41, -378, 119, 405, 92, 96, 358, 689, 1013, 206, 106
116091688, -2573, -12236, 9636, -4387, 2846, -287, -3744, -41, -378, 119, 482, 140, 96, 293, 726, 1070, 223, 122
116092583, -2573, -12236, 9636, -4387, 2846, -287, -3744, -41, -378, 119, 482, 140, 96, 293, 726, 1070, 223, 122
116098663, -2545, -12256, 9638, -4344, 2856, -243, -3737, 48, -388, -7, 482, 140, 96, 293, 726, 1070, 223, 122
116114246, -2545, -12256, 9638, -4344, 2856, -243, -3737, 48, -388, -7, 482, 149, 92, 267, 776, 1071, 201, 109
116115070, -2545, -12256, 9638, -4344, 2856, -243, -3737, 48, -388, -7, 482, 149, 92, 267, 776, 1071, 201, 109
116121214, -2506, -12296, 9613, -4307, 2832, -204, -3742, 184, -412, -148, 482, 149, 92, 267, 776, 1071, 201, 109
116129188, -2506, -12296, 9613, -4307, 2832, -204, -3742, 184, -412, -148, 518, 250, 120, 250, 745, 1074, 201, 113
116130011, -2506, -12296, 9613, -4307, 2832, -204, -3742, 184, -412, -148, 518, 250, 120, 250, 745, 1074, 201, 113
116143647, -2464, -12355, 9570, -4259, 2846, -130, -3756, 237, -506, -272, 518, 250, 120, 250, 745, 1074, 201, 113
116159893, -2464, -12355, 9570, -4259, 2846, -130, -3756, 237, -506, -272, 571, 445, 152, 315, 736, 1031, 175, 99
116160693, -2464, -12355, 9570, -4259, 2846, -130, -3756, 237, -506, -272, 571, 445, 152, 315, 736, 1031, 175, 99
116161638, -2407, -12431, 9510, -4205, 2854, -169, -3750, 290, -623, -402, 571, 445, 152, 315, 736, 1031, 175, 99
116174207, -2407, -12431, 9510, -4205, 2854, -169, -3750, 290, -623, -402, 612, 625, 169, 305, 722, 892, 181, 106
116175034, -2407, -12431, 9510, -4205, 2854, -169, -3750, 290, -623, -402, 612, 625, 169, 305, 722, 892, 181, 106
116190017, -2332, -12533, 9419, -4148, 2860, -153, -3799, 432, -721, -582, 612, 625, 169, 305, 722, 892, 181, 106
116190808, -2332, -12533, 9419, -4148, 2860, -153, -3799, 432, -721, -582, 595, 707, 234, 290, 704, 859, 157, 87
116191632, -2332, -12533, 9419, -4148, 2860, -153, -3799, 432, -721, -582, 595, 707, 234, 290, 704, 859, 157, 87
116203636, -2252, -12660, 9293, -4091, 2921, -110, -3785, 540, -812, -799, 595, 707, 234, 290, 704, 859, 157, 87
116211712, -2252, -12660, 9293, -4091, 2921, -110, -3785, 540, -812, -799, 658, 753, 268, 292, 608, 903, 160, 90
116212525, -2252, -12660, 9293, -4091, 2921, -110, -3785, 540, -812, -799, 658, 753, 268, 292, 608, 903, 160, 90
116218707, -2150, -12813, 9133, -4031, 2838, -211, -3743, 632, -905, -1034, 658, 753, 268, 292, 608, 903, 160, 90
116234208, -2150, -12813, 9133, -4031, 2838, -211, -3743, 632, -905, -1034, 623, 758, 264, 305, 702, 934, 175, 101
116235023, -2150, -12813, 9133, -4031, 2838, -211, -3743, 632, -905, -1034, 623, 758, 264, 305, 702, 934, 175, 101
116241160, -2011, -13001, 8920, -3976, 2776, -234, -3728, 901, -1022, -1329, 623, 758, 264, 305, 702, 934, 175, 101
116256694, -2011, -13001, 8920, -3976, 2776, -234, -3728, 901, -1022, -1329, 560, 669, 250, 293, 716, 966, 195, 112
116257517, -2011, -13001, 8920, -3976, 2776, -234, -3728, 901, -1022, -1329, 560, 669, 250, 293, 716, 966, 195, 112
116263661, -1852, -13219, 8666, -3895, 2709, -123, -3812, 1035, -1211, -1560, 560, 669, 250, 293, 716, 966, 195, 112
116271714, -1852, -13219, 8666, -3895, 2709, -123, -3812, 1035, -1211, -1560, 476, 508, 240, 293, 781, 1095, 206, 122
116272513, -1852, -13219, 8666, -3895, 2709, -123, -3812, 1035, -1211, -1560, 476, 508, 240, 293, 781, 1095, 206, 122
116278682, -1656, -13454, 8397, -3767, 2643, -173, -3830, 1026, -1359, -1719, 476, 508, 240, 293, 781, 1095, 206, 122
116294219, -1656, -13454, 8397, -3767, 2643, -173, -3830, 1026, -1359, -1719, 447, 407, 180, 309, 816, 1127, 216, 126
116295010, -1656, -13454, 8397, -3767, 2643, -173, -3830, 1026, -1359, -1719, 447, 407, 180, 309, 816, 1127, 216, 126
116301162, -1443, -13699, 8095, -3631, 2633, -229, -3852, 1128, -1460, -1882, 447, 407, 180, 309, 816, 1127, 216, 126
116316692, -1443, -13699, 8095, -3631, 2633, -229, -3852, 1128, -1460, -1882, 598, 573, 129, 295, 837, 1050, 220, 134
116317511, -1443, -13699, 8095, -3631, 2633, -229, -3852, 1128, -1460, -1882, 598, 573, 129, 295, 837, 1050, 220, 134
116323664, -1216, -13945, 7769, -3485, 2639, -234, -3900, 1189, -1553, -1988, 598, 573, 129, 295, 837, 1050, 220, 134
116331713, -1216, -13945, 7769, -3485, 2639, -234, -3900, 1189, -1553, -1988, 655, 630, 132, 293, 779, 1036, 213, 128
116332531, -1216, -13945, 7769, -3485, 2639, -234, -3900, 1189, -1553, -1988, 655, 630, 132, 293, 779, 1036, 213, 128
116338665, -985, -14192, 7421, -3313, 2628, -310, -3917, 1161, -1692, -2099, 655, 630, 132, 293, 779, 1036, 213, 128
116354172, -985, -14192, 7421, -3313, 2628, -310, -3917, 1161, -1692, -2099, 708, 700, 128, 216, 700, 1042, 180, 119
116355015, -985, -14192, 7421, -3313, 2628, -310, -3917, 1161, -1692, -2099, 708, 700, 128, 216, 700, 1042, 180, 119
116361168, -752, -14441, 7046, -3113, 2676, -398, -3896, 1121, -1855, -2244, 708, 700, 128, 216, 700, 1042, 180, 119
116376741, -752, -14441, 7046, -3113, 2676, -398, -3896, 1121, -1855, -2244, 797, 741, 212, 223, 611, 940, 174, 110
116377543, -752, -14441, 7046, -3113, 2676, -398, -3896, 1121, -1855, -2244, 797, 741, 212, 223, 611, 940, 174, 110
116383710, -515, -14686, 6642, -2896, 2668, -470, -3882, 1123, -1959, -2383, 797, 741, 212, 223, 611, 940, 174, 110
116391682, -515, -14686, 6642, -2896, 2668, -470, -3882, 1123, -1959, -2383, 788, 819, 233, 218, 519, 871, 171, 109
116392505, -515, -14686, 6642, -2896, 2668, -470, -3882, 1123, -1959, -2383, 788, 819, 233, 218, 519, 871, 171, 109
116398658, -256, -14927, 6198, -2677, 2655, -572, -3830, 1252, -2029, -2551, 788, 819, 233, 218, 519, 871, 171, 109
116414253, -256, -14927, 6198, -2677, 2655, -572, -3830, 1252, -2029, -2551, 674, 706, 261, 248, 549, 897, 160, 93
116415069, -256, -14927, 6198, -2677, 2655, -572, -3830, 1252, -2029, -2551, 674, 706, 261, 248, 549, 897, 160, 93
116437433, 33, -15156, 5722, -2448, 2602, -517, -3875, 1426, -2140, -2653, 674, 706, 261, 248, 549, 897, 160, 93
116438223, 33, -15156, 5722, -2448, 2602, -517, -3875, 1426, -2140, -2653, 637, 646, 255, 243, 572, 934, 147, 84
116439065, 33, -15156, 5722, -2448, 2602, -517, -3875, 1426, -2140, -2653, 637, 646, 255, 243, 572, 934, 147, 84
116459306, 329, -15367, 5227, -2208, 2566, -420, -3947, 1481, -2212, -2700, 637, 646, 255, 243, 572, 934, 147, 84
116460147, 605, -15554, 4725, -1954, 2634, -404, -3965, 1371, -2265, -2700, 637, 646, 255, 243, 572, 934, 147, 84
116474245, 605, -15554, 4725, -1954, 2634, -404, -3965, 1371, -2265, -2700, 688, 690, 254, 235, 606, 896, 146, 117
116475073, 605, -15554, 4725, -1954, 2634, -404, -3965, 1371, -2265, -2700, 688, 690, 254, 235, 606, 896, 146, 117
116489946, 874, -15719, 4213, -1688, 2638, -511, -3923, 1312, -2325, -2712, 688, 690, 254, 235, 606, 896, 146, 117
116490767, 874, -15719, 4213, -1688, 2638, -511, -3923, 1312, -2325, -2712, 594, 687, 192, 214, 581, 803, 119, 112
116491641, 874, -15719, 4213, -1688, 2638, -511, -3923, 1312, -2325, -2712, 594, 687, 192, 214, 581, 803, 119, 112
116511094, 1123, -15864, 3685, -1398, 2582, -600, -3898, 1182, -2429, -2770, 594, 687, 192, 214, 581, 803, 119, 112
116519213, 1123, -15864, 3685, -1398, 2582, -600, -3898, 1182, -2429, -2770, 579, 574, 165, 195, 571, 786, 113, 115
116520009, 1123, -15864, 3685, -1398, 2582, -600, -3898, 1182, -2429, -2770, 579, 574, 165, 195, 571, 786, 113, 115
116533635, 1362, -15988, 3126, -1096, 2518, -622, -3851, 1141, -2502, -2905, 579, 574, 165, 195, 571, 786, 113, 115
116549242, 1362, -15988, 3126, -1096, 2518, -622, -3851, 1141, -2502, -2905, 498, 520, 144, 163, 494, 786, 143, 125
116550045, 1362, -15988, 3126, -1096, 2518, -622, -3851, 1141, -2502, -2905, 498, 520, 144, 163, 494, 786, 143, 125
116564288, 1598, -16086, 2547, -797, 2583, -626, -3829, 1155, -2501, -2982, 498, 520, 144, 163, 494, 786, 143, 125
116565115, 1872, -16152, 1961, -455, 2595, -684, -3833, 1333, -2458, -3018, 498, 520, 144, 163, 494, 786, 143, 125
116571741, 1872, -16152, 1961, -455, 2595, -684, -3833, 1333, -2458, -3018, 475, 492, 143, 156, 449, 673, 134, 130
116572552, 1872, -16152, 1961, -455, 2595, -684, -3833, 1333, -2458, -3018, 475, 492, 143, 156, 449, 673, 134, 130
116586104, 2167, -16183, 1363, -102, 2549, -666, -3846, 1464, -2536, -3052, 475, 492, 143, 156, 449, 673, 134, 130
116594234, 2167, -16183, 1363, -102, 2549, -666, -3846, 1464, -2536, -3052, 323, 377, 146, 174, 405, 724, 152, 126
116595036, 2167, -16183, 1363, -102, 2549, -666, -3846, 1464, -2536, -3052, 323, 377, 146, 174, 405, 724, 152, 126
116616739, 2439, -16183, 742, 214, 2431, -667, -3799, 1428, -2678, -3094, 323, 377, 146, 174, 405, 724, 152, 126
116617570, 2439, -16183, 742, 214, 2431, -667, -3799, 1428, -2678, -3094, 344, 376, 260, 173, 406, 816, 150, 133
116623542, 2439, -16183, 742, 214, 2431, -667, -3799, 1428, -2678, -3094, 344, 376, 260, 173, 406, 816, 150, 133
116639325, 2691, -16153, 112, 541, 2403, -553, -3747, 1366, -2745, -3117, 344, 376, 260, 173, 406, 816, 150, 133
116640143, 2949, -16083, -487, 922, 2423, -534, -3710, 1366, -2679, -3003, 344, 376, 260, 173, 406, 816, 150, 133
116646720, 2949, -16083, -487, 922, 2423, -534, -3710, 1366, -2679, -3003, 343, 380, 286, 158, 448, 825, 151, 132
116647518, 2949, -16083, -487, 922, 2423, -534, -3710, 1366, -2679, -3003, 343, 380, 286, 158, 448, 825, 151, 132
116669253, 3195, -15984, -1039, 1292, 2472, -674, -3770, 1339, -2583, -2756, 343, 380, 286, 158, 448, 825, 151, 132
116670026, 3195, -15984, -1039, 1292, 2472, -674, -3770, 1339, -2583, -2756, 332, 422, 272, 139, 461, 767, 128, 132
116676053, 3195, -15984, -1039, 1292, 2472, -674, -3770, 1339, -2583, -2756, 332, 422, 272, 139, 461, 767, 128, 132
116691062, 3413, -15862, -1555, 1662, 2476, -787, -3755, 1227, -2559, -2554, 332, 422, 272, 139, 461, 767, 128, 132
116699225, 3413, -15862, -1555, 1662, 2476, -787, -3755, 1227, -2559, -2554, 425, 458, 287, 125, 453, 752, 129, 147
116700070, 3413, -15862, -1555, 1662, 2476, -787, -3755, 1227, -2559, -2554, 425, 458, 287, 125, 453, 752, 129, 147
116713648, 3598, -15720, -2055, 2036, 2519, -828, -3661, 1083, -2598, -2456, 425, 458, 287, 125, 453, 752, 129, 147
116721719, 3598, -15720, -2055, 2036, 2519, -828, -3661, 1083, -2598, -2456, 449, 488, 317, 119, 443, 677, 123, 152
116722524, 3598, -15720, -2055, 2036, 2519, -828, -3661, 1083, -2598, -2456, 449, 488, 317, 119, 443, 677, 123, 152
116744294, 3765, -15557, -2548, 2398, 2579, -828, -3617, 1005, -2547, -2435, 449, 488, 317, 119, 443, 677, 123, 152
116745123, 3919, -15377, -3009, 2750, 2738, -833, -3494, 983, -2480, -2280, 449, 488, 317, 119, 443, 677, 123, 152
116751682, 3919, -15377, -3009, 2750, 2738, -833, -3494, 983, -2480, -2280, 411, 519, 272, 124, 418, 571, 133, 146
116752518, 3919, -15377, -3009, 2750, 2738, -833, -3494, 983, -2480, -2280, 411, 519, 272, 124, 418, 571, 133, 146
116766092, 4087, -15185, -3413, 3081, 2720, -1028, -3480, 1098, -2290, -2037, 411, 519, 272, 124, 418, 571, 133, 146
116774184, 4087, -15185, -3413, 3081, 2720, -1028, -3480, 1098, -2290, -2037, 585, 604, 271, 133, 389, 604, 130, 148
116775006, 4087, -15185, -3413, 3081, 2720, -1028, -3480, 1098, -2290, -2037, 585, 604, 271, 133, 389, 604, 130, 148
116797442, 4270, -14972, -3794, 3416, 2524, -1090, -3556, 1236, -2282, -1947, 585, 604, 271, 133, 389, 604, 130, 148
116798269, 4270, -14972, -3794, 3416, 2524, -1090, -3556, 1236, -2282, -1947, 730, 652, 338, 169, 400, 744, 140, 172
116799060, 4270, -14972, -3794, 3416, 2524, -1090, -3556, 1236, -2282, -1947, 730, 652, 338, 169, 400, 744, 140, 172
116819348, 4429, -14737, -4193, 3751, 2589, -720, -3608, 1127, -2363, -2043, 730, 652, 338, 169, 400, 744, 140, 172
116820127, 4540, -14502, -4597, 4049, 2646, -604, -3513, 822, -2253, -2066, 730, 652, 338, 169, 400, 744, 140, 172
116826705, 4540, -14502, -4597, 4049, 2646, -604, -3513, 822, -2253, -2066, 783, 794, 363, 178, 386, 720, 140, 173
116827513, 4540, -14502, -4597, 4049, 2646, -604, -3513, 822, -2253, -2066, 783, 794, 363, 178, 386, 720, 140, 173
116849897, 4603, -14289, -4952, 4306, 2609, -650, -3564, 553, -2023, -1782, 783, 794, 363, 178, 386, 720, 140, 173
116850716, 4603, -14289, -4952, 4306, 2609, -650, -3564, 553, -2023, -1782, 832, 845, 422, 221, 400, 756, 139, 162
116851530, 4603, -14289, -4952, 4306, 2609, -650, -3564, 553, -2023, -1782, 832, 845, 422, 221, 400, 756, 139, 162
116859019, 4603, -14289, -4952, 4306, 2609, -650, -3564, 553, -2023, -1782, 872, 815, 423, 242, 447, 828, 157, 170
116859683, 4603, -14289, -4952, 4306, 2609, -650, -3564, 553, -2023, -1782, 872, 815, 423, 242, 447, 828, 157, 170
116860440, 4603, -14289, -4952, 4306, 2609, -650, -3564, 553, -2023, -1782, 872, 815, 423, 242, 447, 828, 157, 170
116861273, 4603, -14289, -4952, 4306, 2609, -650, -3564, 553, -2023, -1782, 872, 815, 423, 242, 447, 828, 157, 170
116866219, 4603, -14289, -4952, 4306, 2609, -650, -3564, 553, -2023, -1782, 872, 815, 423, 242, 447, 828, 157, 170
116867048, 4603, -14289, -4952, 4306, 2609, -650, -3564, 553, -2023, -1782, 872, 815, 423, 242, 447, 828, 157, 170
116867831, 4603, -14289, -4952, 4306, 2609, -650, -3564, 553, -2023, -1782, 872, 815, 423, 242, 447, 828, 157, 170
116868662, 4603, -14289, -4952, 4306, 2609, -650, -3564, 553, -2023, -1782, 872, 815, 423, 242, 447, 828, 157, 170
116873733, 4603, -14289, -4952, 4306, 2609, -650, -3564, 553, -2023, -1782, 872, 815, 423, 242, 447, 828, 157, 170
116874659, 4640, -14092, -5264, 4540, 2564, -832, -3446, 424, -1856, -1544, 872, 815, 423, 242, 447, 828, 157, 170
116875664, 4640, -14092, -5264, 4540, 2564, -832, -3446, 424, -1856, -1544, 851, 803, 471, 243, 457, 804, 163, 185
116876314, 4640, -14092, -5264, 4540, 2564, -832, -3446, 424, -1856, -1544, 851, 803, 471, 243, 457, 804, 163, 185
116881293, 4640, -14092, -5264, 4540, 2564, -832, -3446, 424, -1856, -1544, 851, 803, 471, 243, 457, 804, 163, 185
116882120, 4640, -14092, -5264, 4540, 2564, -832, -3446, 424, -1856, -1544, 851, 803, 471, 243, 457, 804, 163, 185
116882947, 4640, -14092, -5264, 4540, 2564, -832, -3446, 424, -1856, -1544, 851, 803, 471, 243, 457, 804, 163, 185
116883731, 4640, -14092, -5264, 4540, 2564, -832, -3446, 424, -1856, -1544, 851, 803, 471, 243, 457, 804, 163, 185
116888679, 4640, -14092, -5264, 4540, 2564, -832, -3446, 424, -1856, -1544, 851, 803, 471, 243, 457, 804, 163, 185
116889503, 4640, -14092, -5264, 4540, 2564, -832, -3446, 424, -1856, -1544, 851, 803, 471, 243, 457, 804, 163, 185
116890309, 4640, -14092, -5264, 4540, 2564, -832, -3446, 424, -1856, -1544, 851, 803, 471, 243, 457, 804, 163, 185
116891130, 4640, -14092, -5264, 4540, 2564, -832, -3446, 424, -1856, -1544, 851, 803, 471, 243, 457, 804, 163, 185
116896214, 4640, -14092, -5264, 4540, 2564, -832, -3446, 424, -1856, -1544, 851, 803, 471, 243, 457, 804, 163, 185
116897136, 4640, -14092, -5264, 4540, 2564, -832, -3446, 424, -1856, -1544, 800, 870, 529, 391, 537, 782, 167, 164
116897992, 4640, -14092, -5264, 4540, 2564, -832, -3446, 424, -1856, -1544, 851, 803, 471, 243, 457, 804, 163, 185
116898758, 4640, -14092, -5264, 4540, 2564, -832, -3446, 424, -1856, -1544, 800, 870, 529, 391, 537, 782, 167, 164
116903809, 4640, -14092, -5264, 4540, 2564, -832, -3446, 424, -1856, -1544, 800, 870, 529, 391, 537, 782, 167, 164
116904641, 4640, -14092, -5264, 4540, 2564, -832, -3446, 424, -1856, -1544, 800, 870, 529, 391, 537, 782, 167, 164
116905449, 4640, -14092, -5264, 4540, 2564, -832, -3446, 424, -1856, -1544, 800, 870, 529, 391, 537, 782, 167, 164
116906256, 4640, -14092, -5264, 4540, 2564, -832, -3446, 424, -1856, -1544, 800, 870, 529, 391, 537, 782, 167, 164
116911217, 4640, -14092, -5264, 4540, 2564, -832, -3446, 424, -1856, -1544, 800, 870, 529, 391, 537, 782, 167, 164
116912032, 4640, -14092, -5264, 4540, 2564, -832, -3446, 424, -1856, -1544, 800, 870, 529, 391, 537, 782, 167, 164
116912834, 4640, -14092, -5264, 4540, 2564, -832, -3446, 424, -1856, -1544, 800, 870, 529, 391, 537, 782, 167, 164
116913659, 4640, -14092, -5264, 4540, 2564, -832, -3446, 424, -1856, -1544, 800, 870, 529, 391, 537, 782, 167, 164
116918740, 4640, -14092, -5264, 4540, 2564, -832, -3446, 424, -1856, -1544, 800, 870, 529, 391, 537, 782, 167, 164
116919641, 4640, -14092, -5264, 4540, 2564, -832, -3446, 424, -1856, -1544, 820, 796, 549, 463, 552, 922, 177, 155
116920477, 4640, -14092, -5264, 4540, 2564, -832, -3446, 424, -1856, -1544, 820, 796, 549, 463, 552, 922, 177, 155
116921296, 4640, -14092, -5264, 4540, 2564, -832, -3446, 424, -1856, -1544, 820, 796, 549, 463, 552, 922, 177, 155
116926294, 4640, -14092, -5264, 4540, 2564, -832, -3446, 424, -1856, -1544, 820, 796, 549, 463, 552, 922, 177, 155
116927118, 4640, -14092, -5264, 4540, 2564, -832, -3446, 424, -1856, -1544, 820, 796, 549, 463, 552, 922, 177, 155
116927913, 4640, -14092, -5264, 4540, 2564, -832, -3446, 424, -1856, -1544, 820, 796, 549, 463, 552, 922, 177, 155
116928739, 4640, -14092, -5264, 4540, 2564, -832, -3446, 424, -1856, -1544, 820, 796, 549, 463, 552, 922, 177, 155
116932832, 4640, -14092, -5264, 4540, 2564, -832, -3446, 424, -1856, -1544, 820, 796, 549, 463, 552, 922, 177, 155
116933659, 4640, -14092, -5264, 4540, 2564, -832, -3446, 424, -1856, -1544, 820, 796, 549, 463, 552, 922, 177, 155
116934470, 4640, -14092, -5264, 4540, 2564, -832, -3446, 424, -1856, -1544, 820, 796, 549, 463, 552, 922, 177, 155
116941231, 4640, -14092, -5264, 4540, 2564, -832, -3446, 424, -1856, -1544, 820, 796, 549, 463, 552, 922, 177, 155
116942056, 4640, -14092, -5264, 4540, 2564, -832, -3446, 424, -1856, -1544, 820, 796, 549, 463, 552, 922, 177, 155
116942985, 4671, -13913, -5534, 4736, 2476, -792, -3384, 369, -1597, -1360, 820, 796, 549, 463, 552, 922, 177, 155
116943806, 4671, -13913, -5534, 4736, 2476, -792, -3384, 369, -1597, -1360, 808, 714, 501, 523, 554, 964, 187, 142
116948809, 4671, -13913, -5534, 4736, 2476, -792, -3384, 369, -1597, -1360, 808, 714, 501, 523, 554, 964, 187, 142
116949635, 4671, -13913, -5534, 4736, 2476, -792, -3384, 369, -1597, -1360, 808, 714, 501, 523, 554, 964, 187, 142
116950442, 4671, -13913, -5534, 4736, 2476, -792, -3384, 369, -1597, -1360, 808, 714, 501, 523, 554, 964, 187, 142
116951258, 4671, -13913, -5534, 4736, 2476, -792, -3384, 369, -1597, -1360, 808, 714, 501, 523, 554, 964, 187, 142
116956211, 4671, -13913, -5534, 4736, 2476, -792, -3384, 369, -1597, -1360, 808, 714, 501, 523, 554, 964, 187, 142
116957036, 4671, -13913, -5534, 4736, 2476, -792, -3384, 369, -1597, -1360, 808, 714, 501, 523, 554, 964, 187, 142
116957835, 4671, -13913, -5534, 4736, 2476, -792, -3384, 369, -1597, -1360, 808, 714, 501, 523, 554, 964, 187, 142
116958660, 4671, -13913, -5534, 4736, 2476, -792, -3384, 369, -1597, -1360, 808, 714, 501, 523, 554, 964, 187, 142
116963714, 4671, -13913, -5534, 4736, 2476, -792, -3384, 369, -1597, -1360, 808, 714, 501, 523, 554, 964, 187, 142
116964631, 4671, -13913, -5534, 4736, 2476, -792, -3384, 369, -1597, -1360, 878, 768, 538, 541, 550, 907, 169, 135
116965466, 4671, -13913, -5534, 4736, 2476, -792, -3384, 369, -1597, -1360, 878, 768, 538, 541, 550, 907, 169, 135
116966286, 4671, -13913, -5534, 4736, 2476, -792, -3384, 369, -1597, -1360, 878, 768, 538, 541, 550, 907, 169, 135
116971286, 4671, -13913, -5534, 4736, 2476, -792, -3384, 369, -1597, -1360, 878, 768, 538, 541, 550, 907, 169, 135
116972082, 4671, -13913, -5534, 4736, 2476, -792, -3384, 369, -1597, -1360, 878, 768, 538, 541, 550, 907, 169, 135
116972910, 4671, -13913, -5534, 4736, 2476, -792, -3384, 369, -1597, -1360, 878, 768, 538, 541, 550, 907, 169, 135
116973737, 4671, -13913, -5534, 4736, 2476, -792, -3384, 369, -1597, -1360, 878, 768, 538, 541, 550, 907, 169, 135
116978687, 4671, -13913, -5534, 4736, 2476, -792, -3384, 369, -1597, -1360, 878, 768, 538, 541, 550, 907, 169, 135
116979498, 4671, -13913, -5534, 4736, 2476, -792, -3384, 369, -1597, -1360, 878, 768, 538, 541, 550, 907, 169, 135
116980307, 4671, -13913, -5534, 4736, 2476, -792, -3384, 369, -1597, -1360, 878, 768, 538, 541, 550, 907, 169, 135
116981107, 4671, -13913, -5534, 4736, 2476, -792, -3384, 369, -1597, -1360, 878, 768, 538, 541, 550, 907, 169, 135
116986185, 4671, -13913, -5534, 4736, 2476, -792, -3384, 369, -1597, -1360, 878, 768, 538, 541, 550, 907, 169, 135
116987112, 4671, -13913, -5534, 4736, 2476, -792, -3384, 369, -1597, -1360, 885, 837, 492, 549, 520, 960, 164, 116
116987905, 4671, -13913, -5534, 4736, 2476, -792, -3384, 369, -1597, -1360, 885, 837, 492, 549, 520, 960, 164, 116
116988736, 4671, -13913, -5534, 4736, 2476, -792, -3384, 369, -1597, -1360, 885, 837, 492, 549, 520, 960, 164, 116
116993815, 4671, -13913, -5534, 4736, 2476, -792, -3384, 369, -1597, -1360, 885, 837, 492, 549, 520, 960, 164, 116
116994641, 4671, -13913, -5534, 4736, 2476, -792, -3384, 369, -1597, -1360, 885, 837, 492, 549, 520, 960, 164, 116
116995450, 4671, -13913, -5534, 4736, 2476, -792, -3384, 369, -1597, -1360, 885, 837, 492, 549, 520, 960, 164, 116
116996266, 4671, -13913, -5534, 4736, 2476, -792, -3384, 369, -1597, -1360, 885, 837, 492, 549, 520, 960, 164, 116
117001200, 4671, -13913, -5534, 4736, 2476, -792, -3384, 369, -1597, -1360, 885, 837, 492, 549, 520, 960, 164, 116
117002016, 4671, -13913, -5534, 4736, 2476, -792, -3384, 369, -1597, -1360, 885, 837, 492, 549, 520, 960, 164, 116
117002836, 4671, -13913, -5534, 4736, 2476, -792, -3384, 369, -1597, -1360, 885, 837, 492, 549, 520, 960, 164, 116
117003642, 4671, -13913, -5534, 4736, 2476, -792, -3384, 369, -1597, -1360, 885, 837, 492, 549, 520, 960, 164, 116
117008716, 4671, -13913, -5534, 4736, 2476, -792, -3384, 369, -1597, -1360, 885, 837, 492, 549, 520, 960, 164, 116
117009631, 4670, -13764, -5772, 4886, 2434, -906, -3331, 129, -1337, -1169, 885, 837, 492, 549, 520, 960, 164, 116
117010454, 4670, -13764, -5772, 4886, 2434, -906, -3331, 129, -1337, -1169, 1083, 721, 446, 528, 432, 910, 163, 141
117011277, 4670, -13764, -5772, 4886, 2434, -906, -3331, 129, -1337, -1169, 1083, 721, 446, 528, 432, 910, 163, 141
117016281, 4670, -13764, -5772, 4886, 2434, -906, -3331, 129, -1337, -1169, 1083, 721, 446, 528, 432, 910, 163, 141
117017081, 4670, -13764, -5772, 4886, 2434, -906, -3331, 129, -1337, -1169, 1083, 721, 446, 528, 432, 910, 163, 141
117017905, 4670, -13764, -5772, 4886, 2434, -906, -3331, 129, -1337, -1169, 1083, 721, 446, 528, 432, 910, 163, 141
117018727, 4670, -13764, -5772, 4886, 2434, -906, -3331, 129, -1337, -1169, 1083, 721, 446, 528, 432, 910, 163, 141
117023678, 4670, -13764, -5772, 4886, 2434, -906, -3331, 129, -1337, -1169, 1083, 721, 446, 528, 432, 910, 163, 141
117024469, 4670, -13764, -5772, 4886, 2434, -906, -3331, 129, -1337, -1169, 1083, 721, 446, 528, 432, 910, 163, 141
117025323, 4670, -13764, -5772, 4886, 2434, -906, -3331, 129, -1337, -1169, 1083, 721, 446, 528, 432, 910, 163, 141
117026102, 4670, -13764, -5772, 4886, 2434, -906, -3331, 129, -1337, -1169, 1083, 721, 446, 528, 432, 910, 163, 141
117031236, 4670, -13764, -5772, 4886, 2434, -906, -3331, 129, -1337, -1169, 1083, 721, 446, 528, 432, 910, 163, 141
117032197, 4655, -13643, -5972, 4997, 2358, -1126, -3278, 6, -1073, -977, 1083, 721, 446, 528, 432, 910, 163, 141
117032999, 4655, -13643, -5972, 4997, 2358, -1126, -3278, 6, -1073, -977, 996, 636, 391, 548, 572, 938, 179, 144
117033813, 4655, -13643, -5972, 4997, 2358, -1126, -3278, 6, -1073, -977, 996, 636, 391, 548, 572, 938, 179, 144
117038816, 4655, -13643, -5972, 4997, 2358, -1126, -3278, 6, -1073, -977, 996, 636, 391, 548, 572, 938, 179, 144
117039638, 4655, -13643, -5972, 4997, 2358, -1126, -3278, 6, -1073, -977, 996, 636, 391, 548, 572, 938, 179, 144
117040453, 4655, -13643, -5972, 4997, 2358, -1126, -3278, 6, -1073, -977, 996, 636, 391, 548, 572, 938, 179, 144
117041255, 4655, -13643, -5972, 4997, 2358, -1126, -3278, 6, -1073, -977, 996, 636, 391, 548, 572, 938, 179, 144
117046215, 4655, -13643, -5972, 4997, 2358, -1126, -3278, 6, -1073, -977, 996, 636, 391, 548, 572, 938, 179, 144
117047035, 4655, -13643, -5972, 4997, 2358, -1126, -3278, 6, -1073, -977, 996, 636, 391, 548, 572, 938, 179, 144
117047836, 4655, -13643, -5972, 4997, 2358, -1126, -3278, 6, -1073, -977, 996, 636, 391, 548, 572, 938, 179, 144
117048662, 4655, -13643, -5972, 4997, 2358, -1126, -3278, 6, -1073, -977, 996, 636, 391, 548, 572, 938, 179, 144
117053735, 4655, -13643, -5972, 4997, 2358, -1126, -3278, 6, -1073, -977, 996, 636, 391, 548, 572, 938, 179, 144
117054663, 4670, -13537, -6129, 5082, 2276, -1126, -3273, 146, -796, -839, 996, 636, 391, 548, 572, 938, 179, 144
117055469, 4670, -13537, -6129, 5082, 2276, -1126, -3273, 146, -796, -839, 1022, 699, 399, 492, 584, 927, 173, 156
117056285, 4670, -13537, -6129, 5082, 2276, -1126, -3273, 146, -796, -839, 1022, 699, 399, 492, 584, 927, 173, 156
117061313, 4670, -13537, -6129, 5082, 2276, -1126, -3273, 146, -796, -839, 1022, 699, 399, 492, 584, 927, 173, 156
117062112, 4670, -13537, -6129, 5082, 2276, -1126, -3273, 146, -796, -839, 1022, 699, 399, 492, 584, 927, 173, 156
117062952, 4670, -13537, -6129, 5082, 2276, -1126, -3273, 146, -796, -839, 1022, 699, 399, 492, 584, 927, 173, 156
117063733, 4670, -13537, -6129, 5082, 2276, -1126, -3273, 146, -796, -839, 1022, 699, 399, 492, 584, 927, 173, 156
117068688, 4670, -13537, -6129, 5082, 2276, -1126, -3273, 146, -796, -839, 1022, 699, 399, 492, 584, 927, 173, 156
117069517, 4670, -13537, -6129, 5082, 2276, -1126, -3273, 146, -796, -839, 1022, 699, 399, 492, 584, 927, 173, 156
117070337, 4670, -13537, -6129, 5082, 2276, -1126, -3273, 146, -796, -839, 1022, 699, 399, 492, 584, 927, 173, 156
117071131, 4670, -13537, -6129, 5082, 2276, -1126, -3273, 146, -796, -839, 1022, 699, 399, 492, 584, 927, 173, 156
117076223, 4670, -13537, -6129, 5082, 2276, -1126, -3273, 146, -796, -839, 1022, 699, 399, 492, 584, 927, 173, 156
117077133, 4679, -13448, -6258, 5150, 2256, -988, -3301, 100, -656, -692, 1022, 699, 399, 492, 584, 927, 173, 156
117077959, 4679, -13448, -6258, 5150, 2256, -988, -3301, 100, -656, -692, 1051, 673, 328, 481, 623, 950, 172, 174
117078782, 4679, -13448, -6258, 5150, 2256, -988, -3301, 100, -656, -692, 1051, 673, 328, 481, 623, 950, 172, 174
117083779, 4679, -13448, -6258, 5150, 2256, -988, -3301, 100, -656, -692, 1051, 673, 328, 481, 623, 950, 172, 174
117084630, 4679, -13448, -6258, 5150, 2256, -988, -3301, 100, -656, -692, 1051, 673, 328, 481, 623, 950, 172, 174
117085391, 4679, -13448, -6258, 5150, 2256, -988, -3301, 100, -656, -692, 1051, 673, 328, 481, 623, 950, 172, 174
117086234, 4679, -13448, -6258, 5150, 2256, -988, -3301, 100, -656, -692, 1051, 673, 328, 481, 623, 950, 172, 174
117091184, 4679, -13448, -6258, 5150, 2256, -988, -3301, 100, -656, -692, 1051, 673, 328, 481, 623, 950, 172, 174
117091985, 4679, -13448, -6258, 5150, 2256, -988, -3301, 100, -656, -692, 1051, 673, 328, 481, 623, 950, 172, 174
117092834, 4679, -13448, -6258, 5150, 2256, -988, -3301, 100, -656, -692, 1051, 673, 328, 481, 623, 950, 172, 174
117093633, 4679, -13448, -6258, 5150, 2256, -988, -3301, 100, -656, -692, 1051, 673, 328, 481, 623, 950, 172, 174
117098735, 4679, -13448, -6258, 5150, 2256, -988, -3301, 100, -656, -692, 1051, 673, 328, 481, 623, 950, 172, 174
117099690, 4676, -13387, -6354, 5195, 2286, -1006, -3334, 11, -474, -495, 1051, 673, 328, 481, 623, 950, 172, 174
117100494, 4676, -13387, -6354, 5195, 2286, -1006, -3334, 11, -474, -495, 1012, 552, 331, 535, 639, 877, 174, 174
117101313, 4676, -13387, -6354, 5195, 2286, -1006, -3334, 11, -474, -495, 1012, 552, 331, 535, 639, 877, 174, 174
117106307, 4676, -13387, -6354, 5195, 2286, -1006, -3334, 11, -474, -495, 1012, 552, 331, 535, 639, 877, 174, 174
117107136, 4676, -13387, -6354, 5195, 2286, -1006, -3334, 11, -474, -495, 1012, 552, 331, 535, 639, 877, 174, 174
117107961, 4676, -13387, -6354, 5195, 2286, -1006, -3334, 11, -474, -495, 1012, 552, 331, 535, 639, 877, 174, 174
117108759, 4676, -13387, -6354, 5195, 2286, -1006, -3334, 11, -474, -495, 1012, 552, 331, 535, 639, 877, 174, 174
117113710, 4676, -13387, -6354, 5195, 2286, -1006, -3334, 11, -474, -495, 1012, 552, 331, 535, 639, 877, 174, 174
117114528, 4676, -13387, -6354, 5195, 2286, -1006, -3334, 11, -474, -495, 1012, 552, 331, 535, 639, 877, 174, 174
117115328, 4676, -13387, -6354, 5195, 2286, -1006, -3334, 11, -474, -495, 1012, 552, 331, 535, 639, 877, 174, 174
117116159, 4676, -13387, -6354, 5195, 2286, -1006, -3334, 11, -474, -495, 1012, 552, 331, 535, 639, 877, 174, 174
117121214, 4676, -13387, -6354, 5195, 2286, -1006, -3334, 11, -474, -495, 1012, 552, 331, 535, 639, 877, 174, 174
117122158, 4661, -13347, -6424, 5226, 2305, -1061, -3374, -60, -355, -327, 1012, 552, 331, 535, 639, 877, 174, 174
117122987, 4647, -13325, -6463, 5246, 2307, -1119, -3397, -58, -228, -172, 1012, 552, 331, 535, 639, 877, 174, 174
117123806, 4647, -13325, -6463, 5246, 2307, -1119, -3397, -58, -228, -172, 763, 672, 251, 464, 656, 950, 178, 154
117128818, 4647, -13325, -6463, 5246, 2307, -1119, -3397, -58, -228, -172, 763, 672, 251, 464, 656, 950, 178, 154
117129631, 4647, -13325, -6463, 5246, 2307, -1119, -3397, -58, -228, -172, 763, 672, 251, 464, 656, 950, 178, 154
117130445, 4647, -13325, -6463, 5246, 2307, -1119, -3397, -58, -228, -172, 763, 672, 251, 464, 656, 950, 178, 154
117131262, 4647, -13325, -6463, 5246, 2307, -1119, -3397, -58, -228, -172, 763, 672, 251, 464, 656, 950, 178, 154
117136208, 4647, -13325, -6463, 5246, 2307, -1119, -3397, -58, -228, -172, 763, 672, 251, 464, 656, 950, 178, 154
117137009, 4647, -13325, -6463, 5246, 2307, -1119, -3397, -58, -228, -172, 763, 672, 251, 464, 656, 950, 178, 154
117137831, 4647, -13325, -6463, 5246, 2307, -1119, -3397, -58, -228, -172, 763, 672, 251, 464, 656, 950, 178, 154
117138660, 4647, -13325, -6463, 5246, 2307, -1119, -3397, -58, -228, -172, 763, 672, 251, 464, 656, 950, 178, 154
117143707, 4647, -13325, -6463, 5246, 2307, -1119, -3397, -58, -228, -172, 763, 672, 251, 464, 656, 950, 178, 154
117144663, 4633, -13314, -6484, 5260, 2283, -1065, -3401, -54, -148, -72, 763, 672, 251, 464, 656, 950, 178, 154
117145468, 4633, -13314, -6484, 5260, 2283, -1065, -3401, -54, -148, -72, 931, 684, 290, 384, 560, 834, 174, 159
117146281, 4633, -13314, -6484, 5260, 2283, -1065, -3401, -54, -148, -72, 931, 684, 290, 384, 560, 834, 174, 159
117151282, 4633, -13314, -6484, 5260, 2283, -1065, -3401, -54, -148, -72, 931, 684, 290, 384, 560, 834, 174, 159
117152113, 4633, -13314, -6484, 5260, 2283, -1065, -3401, -54, -148, -72, 931, 684, 290, 384, 560, 834, 174, 159
117152926, 4633, -13314, -6484, 5260, 2283, -1065, -3401, -54, -148, -72, 931, 684, 290, 384, 560, 834, 174, 159
117153737, 4633, -13314, -6484, 5260, 2283, -1065, -3401, -54, -148, -72, 931, 684, 290, 384, 560, 834, 174, 159
117158686, 4633, -13314, -6484, 5260, 2283, -1065, -3401, -54, -148, -72, 931, 684, 290, 384, 560, 834, 174, 159
117159498, 4633, -13314, -6484, 5260, 2283, -1065, -3401, -54, -148, -72, 931, 684, 290, 384, 560, 834, 174, 159
117160303, 4633, -13314, -6484, 5260, 2283, -1065, -3401, -54, -148, -72, 931, 684, 290, 384, 560, 834, 174, 159
117161112, 4633, -13314, -6484, 5260, 2283, -1065, -3401, -54, -148, -72, 931, 684, 290, 384, 560, 834, 174, 159
117166253, 4633, -13314, -6484, 5260, 2283, -1065, -3401, -54, -148, -72, 931, 684, 290, 384, 560, 834, 174, 159
117167191, 4611, -13316, -6493, 5265, 2294, -1030, -3399, -106, -83, 11, 931, 684, 290, 384, 560, 834, 174, 159
117168012, 4611, -13316, -6493, 5265, 2294, -1030, -3399, -106, -83, 11, 865, 588, 253, 402, 544, 736, 161, 148
117168812, 4611, -13316, -6493, 5265, 2294, -1030, -3399, -106, -83, 11, 865, 588, 253, 402, 544, 736, 161, 148
117173832, 4611, -13316, -6493, 5265, 2294, -1030, -3399, -106, -83, 11, 865, 588, 253, 402, 544, 736, 161, 148
117174632, 4611, -13316, -6493, 5265, 2294, -1030, -3399, -106, -83, 11, 865, 588, 253, 402, 544, 736, 161, 148
117175534, 4611, -13316, -6493, 5265, 2294, -1030, -3399, -106, -83, 11, 865, 588, 253, 402, 544, 736, 161, 148
117176263, 4611, -13316, -6493, 5265, 2294, -1030, -3399, -106, -83, 11, 865, 588, 253, 402, 544, 736, 161, 148
117179663, 4611, -13316, -6493, 5265, 2294, -1030, -3399, -106, -83, 11, 865, 588, 253, 402, 544, 736, 161, 148
117180464, 4611, -13316, -6493, 5265, 2294, -1030, -3399, -106, -83, 11, 865, 588, 253, 402, 544, 736, 161, 148
117188710, 4611, -13316, -6493, 5265, 2294, -1030, -3399, -106, -83, 11, 865, 588, 253, 402, 544, 736, 161, 148
117189544, 4611, -13316, -6493, 5265, 2294, -1030, -3399, -106, -83, 11, 865, 588, 253, 402, 544, 736, 161, 148
117190359, 4611, -13316, -6493, 5265, 2294, -1030, -3399, -106, -83, 11, 865, 588, 253, 402, 544, 736, 161, 148
117191287, 4594, -13326, -6486, 5262, 2240, -1101, -3420, -88, 5, 78, 865, 588, 253, 402, 544, 736, 161, 148
117196309, 4584, -13337, -6472, 5258, 2216, -1114, -3417, -47, 40, 98, 865, 588, 253, 402, 544, 736, 161, 148
117197133, 4584, -13337, -6472, 5258, 2216, -1114, -3417, -47, 40, 98, 726, 560, 264, 438, 460, 715, 162, 123
117197934, 4584, -13337, -6472, 5258, 2216, -1114, -3417, -47, 40, 98, 726, 560, 264, 438, 460, 715, 162, 123
117198758, 4584, -13337, -6472, 5258, 2216, -1114, -3417, -47, 40, 98, 726, 560, 264, 438, 460, 715, 162, 123
117203707, 4584, -13337, -6472, 5258, 2216, -1114, -3417, -47, 40, 98, 726, 560, 264, 438, 460, 715, 162, 123
117204515, 4584, -13337, -6472, 5258, 2216, -1114, -3417, -47, 40, 98, 726, 560, 264, 438, 460, 715, 162, 123
117205332, 4584, -13337, -6472, 5258, 2216, -1114, -3417, -47, 40, 98, 726, 560, 264, 438, 460, 715, 162, 123
117206138, 4584, -13337, -6472, 5258, 2216, -1114, -3417, -47, 40, 98, 726, 560, 264, 438, 460, 715, 162, 123
117211212, 4584, -13337, -6472, 5258, 2216, -1114, -3417, -47, 40, 98, 726, 560, 264, 438, 460, 715, 162, 123
117212165, 4583, -13350, -6452, 5251, 2210, -1079, -3427, -4, 83, 111, 726, 560, 264, 438, 460, 715, 162, 123
117212958, 4583, -13350, -6452, 5251, 2210, -1079, -3427, -4, 83, 111, 747, 610, 260, 375, 445, 701, 152, 123
117213782, 4583, -13350, -6452, 5251, 2210, -1079, -3427, -4, 83, 111, 747, 610, 260, 375, 445, 701, 152, 123
117218787, 4583, -13350, -6452, 5251, 2210, -1079, -3427, -4, 83, 111, 747, 610, 260, 375, 445, 701, 152, 123
117219630, 4583, -13350, -6452, 5251, 2210, -1079, -3427, -4, 83, 111, 747, 610, 260, 375, 445, 701, 152, 123
117220426, 4583, -13350, -6452, 5251, 2210, -1079, -3427, -4, 83, 111, 747, 610, 260, 375, 445, 701, 152, 123
117221234, 4583, -13350, -6452, 5251, 2210, -1079, -3427, -4, 83, 111, 747, 610, 260, 375, 445, 701, 152, 123
117226183, 4583, -13350, -6452, 5251, 2210, -1079, -3427, -4, 83, 111, 747, 610, 260, 375, 445, 701, 152, 123
117226981, 4583, -13350, -6452, 5251, 2210, -1079, -3427, -4, 83, 111, 747, 610, 260, 375, 445, 701, 152, 123
117227808, 4583, -13350, -6452, 5251, 2210, -1079, -3427, -4, 83, 111, 747, 610, 260, 375, 445, 701, 152, 123
117228634, 4583, -13350, -6452, 5251, 2210, -1079, -3427, -4, 83, 111, 747, 610, 260, 375, 445, 701, 152, 123
117233765, 4583, -13350, -6452, 5251, 2210, -1079, -3427, -4, 83, 111, 747, 610, 260, 375, 445, 701, 152, 123
117234683, 4588, -13363, -6429, 5242, 2222, -1061, -3431, 22, 112, 108, 747, 610, 260, 375, 445, 701, 152, 123
117235495, 4588, -13363, -6429, 5242, 2222, -1061, -3431, 22, 112, 108, 760, 468, 242, 368, 421, 580, 128, 118
117236305, 4588, -13363, -6429, 5242, 2222, -1061, -3431, 22, 112, 108, 760, 468, 242, 368, 421, 580, 128, 118