Timestamp, Orientation x, Orientation y, Orientation z, Orientation w, Acceleration x, Acceleration y, Acceleration z, Rotation x, Rotation y, Rotation z, EMG 0, EMG 1, EMG 2, EMG 3, EMG 4, EMG 5, EMG 6, EMG 7
109018575, -8510, 936, 13969, -50, 3958, -250, -2133, 94, -43, -30, 0, 0, 0, 0, 0, 0, 0, 0
109019359, -8500, 920, 13976, -59, 3960, -250, -2126, 97, -43, -34, 0, 0, 0, 0, 0, 0, 0, 0
109040401, -8489, 906, 13983, -65, 3939, -238, -2120, 83, -46, -31, 0, 0, 0, 0, 0, 0, 0, 0
109062877, -8479, 894, 13990, -70, 3946, -245, -2128, 67, -45, -25, 0, 0, 0, 0, 0, 0, 0, 0
109077843, -8469, 883, 13997, -76, 3952, -260, -2156, 65, -39, -21, 0, 0, 0, 0, 0, 0, 0, 0
109085995, -8469, 883, 13997, -76, 3952, -260, -2156, 65, -39, -21, 22, 23, 23, 24, 25, 23, 21, 23
109086808, -8469, 883, 13997, -76, 3952, -260, -2156, 65, -39, -21, 22, 23, 23, 24, 25, 23, 21, 23
109100433, -8459, 872, 14004, -86, 3960, -264, -2167, 81, -35, -18, 22, 23, 23, 24, 25, 23, 21, 23
109108517, -8459, 872, 14004, -86, 3960, -264, -2167, 81, -35, -18, 24, 24, 24, 28, 28, 28, 36, 27
109109283, -8459, 872, 14004, -86, 3960, -264, -2167, 81, -35, -18, 24, 24, 24, 28, 28, 28, 36, 27
109122870, -8451, 861, 14009, -96, 3955, -261, -2136, 88, -39, -12, 24, 24, 24, 28, 28, 28, 36, 27
109130985, -8451, 861, 14009, -96, 3955, -261, -2136, 88, -39, -12, 31, 26, 25, 42, 54, 43, 58, 45
109131787, -8451, 861, 14009, -96, 3955, -261, -2136, 88, -39, -12, 31, 26, 25, 42, 54, 43, 58, 45
109137992, -8436, 852, 14019, -101, 3938, -177, -2124, 74, -91, 24, 31, 26, 25, 42, 54, 43, 58, 45
109145988, -8436, 852, 14019, -101, 3938, -177, -2124, 74, -91, 24, 38, 28, 26, 87, 93, 64, 68, 51
109146782, -8436, 852, 14019, -101, 3938, -177, -2124, 74, -91, 24, 38, 28, 26, 87, 93, 64, 68, 51
109160362, -8418, 888, 14028, -58, 4021, -46, -2126, -255, -115, 167, 38, 28, 26, 87, 93, 64, 68, 51
109168459, -8418, 888, 14028, -58, 4021, -46, -2126, -255, -115, 167, 46, 33, 42, 127, 141, 78, 131, 81
109169282, -8418, 888, 14028, -58, 4021, -46, -2126, -255, -115, 167, 46, 33, 42, 127, 141, 78, 131, 81
109182917, -8389, 974, 14040, 2, 4033, -266, -2104, -541, -196, 243, 46, 33, 42, 127, 141, 78, 131, 81
109191023, -8389, 974, 14040, 2, 4033, -266, -2104, -541, -196, 243, 48, 38, 48, 143, 169, 104, 157, 101
109191837, -8389, 974, 14040, 2, 4033, -266, -2104, -541, -196, 243, 48, 38, 48, 143, 169, 104, 157, 101
109198037, -8324, 1096, 14069, 13, 3963, -466, -2024, -478, -474, 461, 48, 38, 48, 143, 169, 104, 157, 101
109206037, -8324, 1096, 14069, 13, 3963, -466, -2024, -478, -474, 461, 61, 45, 67, 193, 333, 173, 248, 133
109206825, -8324, 1096, 14069, 13, 3963, -466, -2024, -478, -474, 461, 61, 45, 67, 193, 333, 173, 248, 133
109220369, -8225, 1227, 14116, -28, 3865, -485, -2053, -256, -709, 661, 61, 45, 67, 193, 333, 173, 248, 133
109228458, -8225, 1227, 14116, -28, 3865, -485, -2053, -256, -709, 661, 78, 52, 73, 216, 421, 225, 465, 154
109229278, -8225, 1227, 14116, -28, 3865, -485, -2053, -256, -709, 661, 78, 52, 73, 216, 421, 225, 465, 154
109242834, -8075, 1392, 14187, -119, 3839, -515, -2177, -118, -1028, 982, 78, 52, 73, 216, 421, 225, 465, 154
109250995, -8075, 1392, 14187, -119, 3839, -515, -2177, -118, -1028, 982, 97, 64, 82, 247, 457, 250, 548, 200
109251763, -8075, 1392, 14187, -119, 3839, -515, -2177, -118, -1028, 982, 97, 64, 82, 247, 457, 250, 548, 200
109257909, -7879, 1628, 14270, -244, 3923, -810, -2338, -225, -1317, 1341, 97, 64, 82, 247, 457, 250, 548, 200
109265979, -7879, 1628, 14270, -244, 3923, -810, -2338, -225, -1317, 1341, 99, 63, 80, 280, 483, 253, 560, 209
109266781, -7879, 1628, 14270, -244, 3923, -810, -2338, -225, -1317, 1341, 99, 63, 80, 280, 483, 253, 560, 209
109280345, -7647, 1879, 14361, -427, 3897, -1199, -2448, 38, -1490, 1636, 99, 63, 80, 280, 483, 253, 560, 209
109288457, -7647, 1879, 14361, -427, 3897, -1199, -2448, 38, -1490, 1636, 102, 63, 81, 285, 524, 253, 571, 208
109289254, -7647, 1879, 14361, -427, 3897, -1199, -2448, 38, -1490, 1636, 102, 63, 81, 285, 524, 253, 571, 208
109302831, -7394, 2152, 14445, -688, 3773, -1337, -2621, 356, -1608, 1955, 102, 63, 81, 285, 524, 253, 571, 208
109311007, -7394, 2152, 14445, -688, 3773, -1337, -2621, 356, -1608, 1955, 98, 63, 76, 320, 470, 234, 562, 223
109311806, -7394, 2152, 14445, -688, 3773, -1337, -2621, 356, -1608, 1955, 98, 63, 76, 320, 470, 234, 562, 223
109317982, -7128, 2457, 14511, -1009, 3602, -1350, -2627, 579, -1677, 2310, 98, 63, 76, 320, 470, 234, 562, 223
109325980, -7128, 2457, 14511, -1009, 3602, -1350, -2627, 579, -1677, 2310, 88, 57, 72, 312, 458, 198, 401, 224
109326755, -7128, 2457, 14511, -1009, 3602, -1350, -2627, 579, -1677, 2310, 88, 57, 72, 312, 458, 198, 401, 224
109340331, -6857, 2786, 14554, -1352, 3488, -1452, -2718, 641, -1664, 2518, 88, 57, 72, 312, 458, 198, 401, 224
109348436, -6857, 2786, 14554, -1352, 3488, -1452, -2718, 641, -1664, 2518, 81, 51, 67, 293, 432, 166, 287, 241
109349253, -6857, 2786, 14554, -1352, 3488, -1452, -2718, 641, -1664, 2518, 81, 51, 67, 293, 432, 166, 287, 241
109362844, -6582, 3135, 14573, -1705, 3416, -1422, -2760, 664, -1638, 2700, 81, 51, 67, 293, 432, 166, 287, 241
109370982, -6582, 3135, 14573, -1705, 3416, -1422, -2760, 664, -1638, 2700, 86, 53, 67, 271, 408, 166, 269, 236
109371804, -6582, 3135, 14573, -1705, 3416, -1422, -2760, 664, -1638, 2700, 86, 53, 67, 271, 408, 166, 269, 236
109378006, -6316, 3519, 14557, -2056, 3292, -1532, -2799, 617, -1503, 2915, 86, 53, 67, 271, 408, 166, 269, 236
109386005, -6316, 3519, 14557, -2056, 3292, -1532, -2799, 617, -1503, 2915, 87, 60, 70, 310, 374, 170, 243, 245
109386762, -6316, 3519, 14557, -2056, 3292, -1532, -2799, 617, -1503, 2915, 87, 60, 70, 310, 374, 170, 243, 245
109400371, -6048, 3920, 14515, -2406, 3110, -1608, -2755, 598, -1456, 3047, 87, 60, 70, 310, 374, 170, 243, 245
109408507, -6048, 3920, 14515, -2406, 3110, -1608, -2755, 598, -1456, 3047, 87, 58, 101, 301, 361, 160, 188, 222
109409319, -6048, 3920, 14515, -2406, 3110, -1608, -2755, 598, -1456, 3047, 87, 58, 101, 301, 361, 160, 188, 222
109422833, -5775, 4316, 14454, -2745, 3065, -1540, -2750, 584, -1443, 3060, 87, 58, 101, 301, 361, 160, 188, 222
109430989, -5775, 4316, 14454, -2745, 3065, -1540, -2750, 584, -1443, 3060, 98, 75, 134, 308, 293, 163, 207, 251
109431782, -5775, 4316, 14454, -2745, 3065, -1540, -2750, 584, -1443, 3060, 98, 75, 134, 308, 293, 163, 207, 251
109437993, -5514, 4713, 14368, -3062, 3036, -1573, -2771, 528, -1324, 3068, 98, 75, 134, 308, 293, 163, 207, 251
109445987, -5514, 4713, 14368, -3062, 3036, -1573, -2771, 528, -1324, 3068, 104, 104, 199, 319, 304, 170, 212, 258
109446815, -5514, 4713, 14368, -3062, 3036, -1573, -2771, 528, -1324, 3068, 104, 104, 199, 319, 304, 170, 212, 258
109460313, -5260, 5110, 14255, -3381, 2938, -1656, -2769, 579, -1258, 3123, 104, 104, 199, 319, 304, 170, 212, 258
109468490, -5260, 5110, 14255, -3381, 2938, -1656, -2769, 579, -1258, 3123, 98, 109, 219, 317, 310, 169, 187, 273
109469285, -5260, 5110, 14255, -3381, 2938, -1656, -2769, 579, -1258, 3123, 98, 109, 219, 317, 310, 169, 187, 273
109482820, -5021, 5490, 14120, -3701, 2924, -1671, -2794, 682, -1178, 3094, 98, 109, 219, 317, 310, 169, 187, 273
109490992, -5021, 5490, 14120, -3701, 2924, -1671, -2794, 682, -1178, 3094, 102, 132, 306, 296, 282, 169, 191, 279
109491787, -5021, 5490, 14120, -3701, 2924, -1671, -2794, 682, -1178, 3094, 102, 132, 306, 296, 282, 169, 191, 279
109497985, -4786, 5860, 13968, -4009, 2754, -1532, -2798, 691, -1124, 3061, 102, 132, 306, 296, 282, 169, 191, 279
109505989, -4786, 5860, 13968, -4009, 2754, -1532, -2798, 691, -1124, 3061, 110, 137, 319, 257, 262, 157, 195, 282
109506785, -4786, 5860, 13968, -4009, 2754, -1532, -2798, 691, -1124, 3061, 110, 137, 319, 257, 262, 157, 195, 282
109520376, -4544, 6220, 13814, -4271, 2746, -1555, -2780, 489, -1096, 2972, 110, 137, 319, 257, 262, 157, 195, 282
109528498, -4544, 6220, 13814, -4271, 2746, -1555, -2780, 489, -1096, 2972, 104, 132, 314, 253, 239, 149, 180, 283
109529282, -4544, 6220, 13814, -4271, 2746, -1555, -2780, 489, -1096, 2972, 104, 132, 314, 253, 239, 149, 180, 283
109542902, -4314, 6564, 13653, -4508, 2650, -1603, -2706, 422, -1015, 2861, 104, 132, 314, 253, 239, 149, 180, 283
109551014, -4314, 6564, 13653, -4508, 2650, -1603, -2706, 422, -1015, 2861, 89, 108, 280, 249, 196, 149, 164, 251
109551785, -4314, 6564, 13653, -4508, 2650, -1603, -2706, 422, -1015, 2861, 89, 108, 280, 249, 196, 149, 164, 251
109566776, -4110, 6883, 13481, -4736, 2626, -1654, -2696, 501, -904, 2729, 89, 108, 280, 249, 196, 149, 164, 251
109567556, -4110, 6883, 13481, -4736, 2626, -1654, -2696, 501, -904, 2729, 91, 103, 274, 265, 152, 153, 152, 244
109568384, -4110, 6883, 13481, -4736, 2626, -1654, -2696, 501, -904, 2729, 91, 103, 274, 265, 152, 153, 152, 244
109574157, -4110, 6883, 13481, -4736, 2626, -1654, -2696, 501, -904, 2729, 91, 103, 274, 265, 152, 153, 152, 244
109574986, -4110, 6883, 13481, -4736, 2626, -1654, -2696, 501, -904, 2729, 91, 103, 274, 265, 152, 153, 152, 244
109575762, -4110, 6883, 13481, -4736, 2626, -1654, -2696, 501, -904, 2729, 91, 103, 274, 265, 152, 153, 152, 244
109580504, -3945, 7155, 13304, -4967, 2547, -1582, -2625, 682, -811, 2478, 91, 103, 274, 265, 152, 153, 152, 244
109588500, -3945, 7155, 13304, -4967, 2547, -1582, -2625, 682, -811, 2478, 92, 69, 185, 266, 192, 136, 136, 256
109589310, -3945, 7155, 13304, -4967, 2547, -1582, -2625, 682, -811, 2478, 92, 69, 185, 266, 192, 136, 136, 256
109602887, -3805, 7378, 13139, -5184, 2503, -1521, -2606, 732, -771, 2167, 92, 69, 185, 266, 192, 136, 136, 256
109611031, -3805, 7378, 13139, -5184, 2503, -1521, -2606, 732, -771, 2167, 98, 59, 154, 277, 210, 138, 137, 306
109611789, -3805, 7378, 13139, -5184, 2503, -1521, -2606, 732, -771, 2167, 98, 59, 154, 277, 210, 138, 137, 306
109617988, -3688, 7557, 12989, -5386, 2498, -1506, -2570, 764, -736, 1887, 98, 59, 154, 277, 210, 138, 137, 306
109626028, -3688, 7557, 12989, -5386, 2498, -1506, -2570, 764, -736, 1887, 102, 54, 154, 296, 216, 124, 129, 273
109626740, -3688, 7557, 12989, -5386, 2498, -1506, -2570, 764, -736, 1887, 102, 54, 154, 296, 216, 124, 129, 273
109640502, -3593, 7694, 12855, -5573, 2429, -1428, -2531, 780, -692, 1600, 102, 54, 154, 296, 216, 124, 129, 273
109648455, -3593, 7694, 12855, -5573, 2429, -1428, -2531, 780, -692, 1600, 105, 59, 163, 282, 219, 116, 123, 283
109649263, -3593, 7694, 12855, -5573, 2429, -1428, -2531, 780, -692, 1600, 105, 59, 163, 282, 219, 116, 123, 283
109662873, -3622, 7747, 12808, -5590, 2373, -1286, -2509, 737, -613, 1279, 105, 59, 163, 282, 219, 116, 123, 283
109671025, -3622, 7747, 12808, -5590, 2373, -1286, -2509, 737, -613, 1279, 102, 60, 155, 280, 240, 104, 128, 291
109671754, -3622, 7747, 12808, -5590, 2373, -1286, -2509, 737, -613, 1279, 102, 60, 155, 280, 240, 104, 128, 291
109678024, -3666, 7769, 12783, -5588, 2319, -1266, -2453, 678, -551, 1011, 102, 60, 155, 280, 240, 104, 128, 291
109685298, -3666, 7769, 12783, -5588, 2319, -1266, -2453, 678, -551, 1011, 97, 58, 149, 261, 247, 107, 117, 287
109692823, -3666, 7769, 12783, -5588, 2319, -1266, -2453, 678, -551, 1011, 97, 58, 149, 261, 247, 107, 117, 287
109709177, -3725, 7762, 12775, -5576, 2240, -1290, -2410, 650, -500, 765, 97, 58, 149, 261, 247, 107, 117, 287
109709978, -3725, 7762, 12775, -5576, 2240, -1290, -2410, 650, -500, 765, 80, 57, 139, 238, 234, 97, 99, 232
109710779, -3725, 7762, 12775, -5576, 2240, -1290, -2410, 650, -500, 765, 80, 57, 139, 238, 234, 97, 99, 232
109731723, -3804, 7727, 12781, -5559, 2175, -1287, -2374, 676, -430, 529, 80, 57, 139, 238, 234, 97, 99, 232
109732480, -3804, 7727, 12781, -5559, 2175, -1287, -2374, 676, -430, 529, 73, 77, 139, 234, 255, 105, 110, 246
109733304, -3804, 7727, 12781, -5559, 2175, -1287, -2374, 676, -430, 529, 73, 77, 139, 234, 255, 105, 110, 246
109745372, -3889, 7676, 12800, -5526, 2072, -1256, -2376, 640, -356, 339, 73, 77, 139, 234, 255, 105, 110, 246
109753478, -3889, 7676, 12800, -5526, 2072, -1256, -2376, 640, -356, 339, 68, 71, 148, 256, 253, 101, 103, 222
109754285, -3889, 7676, 12800, -5526, 2072, -1256, -2376, 640, -356, 339, 68, 71, 148, 256, 253, 101, 103, 222
109767882, -3985, 7613, 12831, -5472, 2031, -1248, -2375, 570, -251, 184, 68, 71, 148, 256, 253, 101, 103, 222
109776032, -3985, 7613, 12831, -5472, 2031, -1248, -2375, 570, -251, 184, 72, 78, 176, 264, 242, 107, 115, 213
109776739, -3985, 7613, 12831, -5472, 2031, -1248, -2375, 570, -251, 184, 72, 78, 176, 264, 242, 107, 115, 213
109791693, -4080, 7545, 12872, -5400, 1965, -1214, -2390, 490, -185, 73, 72, 78, 176, 264, 242, 107, 115, 213
109792477, -4080, 7545, 12872, -5400, 1965, -1214, -2390, 490, -185, 73, 101, 116, 288, 301, 214, 142, 125, 185
109793286, -4080, 7545, 12872, -5400, 1965, -1214, -2390, 490, -185, 73, 101, 116, 288, 301, 214, 142, 125, 185
109814221, -4157, 7488, 12922, -5300, 1856, -1228, -2428, 293, -116, 29, 101, 116, 288, 301, 214, 142, 125, 185
109814981, -4157, 7488, 12922, -5300, 1856, -1228, -2428, 293, -116, 29, 118, 169, 537, 347, 201, 163, 125, 182
109815805, -4157, 7488, 12922, -5300, 1856, -1228, -2428, 293, -116, 29, 118, 169, 537, 347, 201, 163, 125, 182
109820460, -4218, 7446, 12985, -5155, 1852, -1139, -2538, 70, -47, 12, 118, 169, 537, 347, 201, 163, 125, 182
109828490, -4218, 7446, 12985, -5155, 1852, -1139, -2538, 70, -47, 12, 257, 202, 611, 332, 178, 170, 124, 164
109829291, -4218, 7446, 12985, -5155, 1852, -1139, -2538, 70, -47, 12, 257, 202, 611, 332, 178, 170, 124, 164
109842900, -4242, 7425, 13061, -4972, 1782, -1158, -2616, -247, -48, 30, 257, 202, 611, 332, 178, 170, 124, 164
109850998, -4242, 7425, 13061, -4972, 1782, -1158, -2616, -247, -48, 30, 405, 347, 740, 384, 198, 204, 180, 166
109851875, -4242, 7425, 13061, -4972, 1782, -1158, -2616, -247, -48, 30, 405, 347, 740, 384, 198, 204, 180, 166
109858000, -4224, 7432, 13143, -4756, 1719, -1165, -2583, -607, -88, 117, 405, 347, 740, 384, 198, 204, 180, 166
109873489, -4224, 7432, 13143, -4756, 1719, -1165, -2583, -607, -88, 117, 432, 404, 760, 379, 186, 251, 230, 159
109874273, -4224, 7432, 13143, -4756, 1719, -1165, -2583, -607, -88, 117, 432, 404, 760, 379, 186, 251, 230, 159
109880407, -4182, 7464, 13229, -4498, 1758, -1110, -2675, -887, -62, 186, 432, 404, 760, 379, 186, 251, 230, 159
109888453, -4182, 7464, 13229, -4498, 1758, -1110, -2675, -887, -62, 186, 429, 399, 753, 397, 193, 288, 273, 180
109889287, -4182, 7464, 13229, -4498, 1758, -1110, -2675, -887, -62, 186, 429, 399, 753, 397, 193, 288, 273, 180
109902854, -4092, 7532, 13312, -4213, 1744, -1387, -2734, -1331, -154, 336, 429, 399, 753, 397, 193, 288, 273, 180
109919134, -4092, 7532, 13312, -4213, 1744, -1387, -2734, -1331, -154, 336, 428, 382, 627, 382, 197, 282, 275, 179
109919978, -4092, 7532, 13312, -4213, 1744, -1387, -2734, -1331, -154, 336, 428, 382, 627, 382, 197, 282, 275, 179
109920885, -3889, 7698, 13347, -3986, 1638, -1416, -2769, -1752, -255, 747, 428, 382, 627, 382, 197, 282, 275, 179
109933480, -3889, 7698, 13347, -3986, 1638, -1416, -2769, -1752, -255, 747, 369, 370, 582, 382, 192, 283, 279, 175
109934278, -3889, 7698, 13347, -3986, 1638, -1416, -2769, -1752, -255, 747, 369, 370, 582, 382, 192, 283, 279, 175
109940429, -3607, 7970, 13349, -3702, 1416, -1363, -2768, -2332, -271, 1330, 369, 370, 582, 382, 192, 283, 279, 175
109948429, -3607, 7970, 13349, -3702, 1416, -1363, -2768, -2332, -271, 1330, 208, 258, 475, 329, 170, 264, 250, 167
109949228, -3607, 7970, 13349, -3702, 1416, -1363, -2768, -2332, -271, 1330, 208, 258, 475, 329, 170, 264, 250, 167
109962813, -3291, 8310, 13326, -3308, 1312, -1266, -2606, -3000, -13, 1604, 208, 258, 475, 329, 170, 264, 250, 167
109970904, -3291, 8310, 13326, -3308, 1312, -1266, -2606, -3000, -13, 1604, 161, 171, 444, 320, 180, 236, 218, 176
109971728, -3291, 8310, 13326, -3308, 1312, -1266, -2606, -3000, -13, 1604, 161, 171, 444, 320, 180, 236, 218, 176
109977991, -3005, 8631, 13303, -2817, 1307, -1523, -2708, -3392, 370, 1363, 161, 171, 444, 320, 180, 236, 218, 176
110001668, -3005, 8631, 13303, -2817, 1307, -1523, -2708, -3392, 370, 1363, 169, 175, 427, 305, 163, 197, 215, 196
110002479, -3005, 8631, 13303, -2817, 1307, -1523, -2708, -3392, 370, 1363, 169, 175, 427, 305, 163, 197, 215, 196
110003414, -2785, 8902, 13271, -2303, 1359, -1580, -2775, -3270, 690, 1068, 169, 175, 427, 305, 163, 197, 215, 196
110015983, -2785, 8902, 13271, -2303, 1359, -1580, -2775, -3270, 690, 1068, 175, 177, 404, 291, 167, 216, 254, 233
110016757, -2785, 8902, 13271, -2303, 1359, -1580, -2775, -3270, 690, 1068, 175, 177, 404, 291, 167, 216, 254, 233
110022911, -2599, 9084, 13256, -1853, 1398, -1118, -3064, -2759, 565, 638, 175, 177, 404, 291, 167, 216, 254, 233
110030980, -2599, 9084, 13256, -1853, 1398, -1118, -3064, -2759, 565, 638, 168, 168, 373, 312, 174, 217, 261, 244
110031756, -2599, 9084, 13256, -1853, 1398, -1118, -3064, -2759, 565, 638, 168, 168, 373, 312, 174, 217, 261, 244
110037906, -2417, 9193, 13260, -1502, 1753, -1411, -3098, -2298, 161, 336, 168, 168, 373, 312, 174, 217, 261, 244
110053441, -2417, 9193, 13260, -1502, 1753, -1411, -3098, -2298, 161, 336, 159, 143, 285, 315, 184, 225, 276, 257
110054262, -2417, 9193, 13260, -1502, 1753, -1411, -3098, -2298, 161, 336, 159, 143, 285, 315, 184, 225, 276, 257
110060407, -2471, 9213, 13253, -1342, 1553, -1792, -3038, -999, 205, 70, 159, 143, 285, 315, 184, 225, 276, 257
110075996, -2471, 9213, 13253, -1342, 1553, -1792, -3038, -999, 205, 70, 149, 121, 279, 305, 172, 214, 269, 248
110076745, -2471, 9213, 13253, -1342, 1553, -1792, -3038, -999, 205, 70, 149, 121, 279, 305, 172, 214, 269, 248
110082888, -2572, 9222, 13233, -1284, 1282, -1182, -3212, -20, 281, 119, 149, 121, 279, 305, 172, 214, 269, 248
110090981, -2572, 9222, 13233, -1284, 1282, -1182, -3212, -20, 281, 119, 129, 104, 229, 276, 166, 186, 230, 216
110091756, -2572, 9222, 13233, -1284, 1282, -1182, -3212, -20, 281, 119, 129, 104, 229, 276, 166, 186, 230, 216
110097905, -2594, 9250, 13220, -1163, 1324, -801, -3323, -371, 132, 190, 129, 104, 229, 276, 166, 186, 230, 216
110113434, -2594, 9250, 13220, -1163, 1324, -801, -3323, -371, 132, 190, 115, 103, 228, 253, 153, 168, 203, 189
110114227, -2594, 9250, 13220, -1163, 1324, -801, -3323, -371, 132, 190, 115, 103, 228, 253, 153, 168, 203, 189
110120389, -2552, 9285, 13215, -1021, 1274, -1117, -3233, -891, -72, 152, 115, 103, 228, 253, 153, 168, 203, 189
110135917, -2552, 9285, 13215, -1021, 1274, -1117, -3233, -891, -72, 152, 102, 93, 222, 231, 153, 164, 184, 174
110136734, -2552, 9285, 13215, -1021, 1274, -1117, -3233, -891, -72, 152, 102, 93, 222, 231, 153, 164, 184, 174
110142884, -2551, 9303, 13208, -949, 1219, -1470, -3146, -644, -78, 75, 102, 93, 222, 231, 153, 164, 184, 174
110150980, -2551, 9303, 13208, -949, 1219, -1470, -3146, -644, -78, 75, 90, 89, 215, 199, 141, 145, 165, 154
110151729, -2551, 9303, 13208, -949, 1219, -1470, -3146, -644, -78, 75, 90, 89, 215, 199, 141, 145, 165, 154
110157885, -2612, 9300, 13200, -929, 1209, -1396, -3123, -152, 38, 6, 90, 89, 215, 199, 141, 145, 165, 154
110173495, -2612, 9300, 13200, -929, 1209, -1396, -3123, -152, 38, 6, 76, 88, 192, 185, 131, 131, 146, 133
110174266, -2612, 9300, 13200, -929, 1209, -1396, -3123, -152, 38, 6, 76, 88, 192, 185, 131, 131, 146, 133
110180429, -2681, 9283, 13201, -897, 1258, -1122, -3188, -16, 105, -62, 76, 88, 192, 185, 131, 131, 146, 133
110196027, -2681, 9283, 13201, -897, 1258, -1122, -3188, -16, 105, -62, 74, 83, 186, 157, 117, 125, 133, 126
110196799, -2681, 9283, 13201, -897, 1258, -1122, -3188, -16, 105, -62, 74, 83, 186, 157, 117, 125, 133, 126
110203150, -2730, 9268, 13205, -839, 1315, -1121, -3195, -199, 81, -80, 74, 83, 186, 157, 117, 125, 133, 126
110210296, -2730, 9268, 13205, -839, 1315, -1121, -3195, -199, 81, -80, 58, 61, 153, 160, 108, 102, 101, 94
110218492, -2730, 9268, 13205, -839, 1315, -1121, -3195, -199, 81, -80, 58, 61, 153, 160, 108, 102, 101, 94
110219419, -2788, 9253, 13206, -784, 1374, -1209, -3201, -204, 101, -79, 58, 61, 153, 160, 108, 102, 101, 94
110233493, -2788, 9253, 13206, -784, 1374, -1209, -3201, -204, 101, -79, 57, 59, 136, 129, 85, 87, 103, 93
110234291, -2788, 9253, 13206, -784, 1374, -1209, -3201, -204, 101, -79, 57, 59, 136, 129, 85, 87, 103, 93
110240439, -2860, 9234, 13207, -743, 1388, -1181, -3191, -73, 134, -92, 57, 59, 136, 129, 85, 87, 103, 93
110255991, -2860, 9234, 13207, -743, 1388, -1181, -3191, -73, 134, -92, 51, 52, 108, 124, 71, 77, 86, 77
110256767, -2860, 9234, 13207, -743, 1388, -1181, -3191, -73, 134, -92, 51, 52, 108, 124, 71, 77, 86, 77
110262986, -2946, 9206, 13210, -703, 1471, -1107, -3206, 26, 165, -120, 51, 52, 108, 124, 71, 77, 86, 77
110278215, -2946, 9206, 13210, -703, 1471, -1107, -3206, 26, 165, -120, 50, 46, 103, 117, 66, 71, 82, 76
110285991, -2946, 9206, 13210, -703, 1471, -1107, -3206, 26, 165, -120, 50, 46, 103, 117, 66, 71, 82, 76
110286897, -3031, 9171, 13217, -660, 1502, -1086, -3200, 23, 176, -168, 50, 46, 103, 117, 66, 71, 82, 76
110295535, -3031, 9171, 13217, -660, 1502, -1086, -3200, 23, 176, -168, 45, 46, 88, 91, 58, 69, 81, 71
110296359, -3031, 9171, 13217, -660, 1502, -1086, -3200, 23, 176, -168, 45, 46, 88, 91, 58, 69, 81, 71
110297182, -3031, 9171, 13217, -660, 1502, -1086, -3200, 23, 176, -168, 45, 46, 88, 91, 58, 69, 81, 71
110297981, -3031, 9171, 13217, -660, 1502, -1086, -3200, 23, 176, -168, 45, 46, 88, 91, 58, 69, 81, 71
110302986, -3031, 9171, 13217, -660, 1502, -1086, -3200, 23, 176, -168, 45, 46, 88, 91, 58, 69, 81, 71
110303761, -3031, 9171, 13217, -660, 1502, -1086, -3200, 23, 176, -168, 45, 46, 88, 91, 58, 69, 81, 71
110304556, -3031, 9171, 13217, -660, 1502, -1086, -3200, 23, 176, -168, 45, 46, 88, 91, 58, 69, 81, 71
110305378, -3031, 9171, 13217, -660, 1502, -1086, -3200, 23, 176, -168, 45, 46, 88, 91, 58, 69, 81, 71
110307885, -3114, 9131, 13227, -622, 1487, -1097, -3193, 51, 179, -206, 45, 46, 88, 91, 58, 69, 81, 71
110315978, -3114, 9131, 13227, -622, 1487, -1097, -3193, 51, 179, -206, 44, 45, 82, 73, 51, 65, 78, 72
110316735, -3114, 9131, 13227, -622, 1487, -1097, -3193, 51, 179, -206, 44, 45, 82, 73, 51, 65, 78, 72
110322883, -3195, 9090, 13238, -583, 1496, -1073, -3222, 55, 188, -219, 44, 45, 82, 73, 51, 65, 78, 72
110339137, -3195, 9090, 13238, -583, 1496, -1073, -3222, 55, 188, -219, 37, 41, 64, 74, 47, 52, 58, 58
110339978, -3195, 9090, 13238, -583, 1496, -1073, -3222, 55, 188, -219, 37, 41, 64, 74, 47, 52, 58, 58
110340883, -3280, 9048, 13247, -544, 1518, -1067, -3213, 78, 226, -213, 37, 41, 64, 74, 47, 52, 58, 58
110353413, -3280, 9048, 13247, -544, 1518, -1067, -3213, 78, 226, -213, 36, 39, 59, 66, 55, 50, 59, 57
110354296, -3280, 9048, 13247, -544, 1518, -1067, -3213, 78, 226, -213, 36, 39, 59, 66, 55, 50, 59, 57
110360391, -3371, 9004, 13256, -498, 1552, -1048, -3232, 81, 279, -230, 36, 39, 59, 66, 55, 50, 59, 57
110376038, -3371, 9004, 13256, -498, 1552, -1048, -3232, 81, 279, -230, 34, 41, 57, 64, 63, 51, 58, 52
110376776, -3371, 9004, 13256, -498, 1552, -1048, -3232, 81, 279, -230, 34, 41, 57, 64, 63, 51, 58, 52
110383050, -3467, 8947, 13272, -449, 1610, -1057, -3241, 97, 303, -321, 34, 41, 57, 64, 63, 51, 58, 52
110399170, -3467, 8947, 13272, -449, 1610, -1057, -3241, 97, 303, -321, 31, 37, 53, 61, 75, 47, 51, 45
110400002, -3467, 8947, 13272, -449, 1610, -1057, -3241, 97, 303, -321, 31, 37, 53, 61, 75, 47, 51, 45
110400878, -3569, 8878, 13293, -398, 1669, -1024, -3213, 135, 328, -382, 31, 37, 53, 61, 75, 47, 51, 45
110413481, -3569, 8878, 13293, -398, 1669, -1024, -3213, 135, 328, -382, 28, 38, 49, 61, 75, 46, 47, 35
110414260, -3569, 8878, 13293, -398, 1669, -1024, -3213, 135, 328, -382, 28, 38, 49, 61, 75, 46, 47, 35
110420408, -3682, 8801, 13315, -347, 1717, -1041, -3193, 174, 376, -430, 28, 38, 49, 61, 75, 46, 47, 35
110435987, -3682, 8801, 13315, -347, 1717, -1041, -3193, 174, 376, -430, 28, 35, 50, 68, 75, 45, 47, 33
110436732, -3682, 8801, 13315, -347, 1717, -1041, -3193, 174, 376, -430, 28, 35, 50, 68, 75, 45, 47, 33
110442891, -3798, 8718, 13338, -292, 1742, -1035, -3205, 174, 429, -467, 28, 35, 50, 68, 75, 45, 47, 33
110459141, -3798, 8718, 13338, -292, 1742, -1035, -3205, 174, 429, -467, 28, 36, 51, 74, 70, 45, 44, 39
110459984, -3798, 8718, 13338, -292, 1742, -1035, -3205, 174, 429, -467, 28, 36, 51, 74, 70, 45, 44, 39
110460889, -3918, 8626, 13364, -223, 1770, -1009, -3198, 150, 497, -538, 28, 36, 51, 74, 70, 45, 44, 39
110475532, -3918, 8626, 13364, -223, 1770, -1009, -3198, 150, 497, -538, 27, 33, 49, 76, 63, 36, 37, 38
110476359, -3918, 8626, 13364, -223, 1770, -1009, -3198, 150, 497, -538, 27, 33, 49, 76, 63, 36, 37, 38
110477149, -3918, 8626, 13364, -223, 1770, -1009, -3198, 150, 497, -538, 27, 33, 49, 76, 63, 36, 37, 38
110477987, -3918, 8626, 13364, -223, 1770, -1009, -3198, 150, 497, -538, 27, 33, 49, 76, 63, 36, 37, 38
110483000, -3918, 8626, 13364, -223, 1770, -1009, -3198, 150, 497, -538, 27, 33, 49, 76, 63, 36, 37, 38
110483791, -3918, 8626, 13364, -223, 1770, -1009, -3198, 150, 497, -538, 27, 33, 49, 76, 63, 36, 37, 38
110484596, -3918, 8626, 13364, -223, 1770, -1009, -3198, 150, 497, -538, 27, 33, 49, 76, 63, 36, 37, 38
110485531, -3918, 8626, 13364, -223, 1770, -1009, -3198, 150, 497, -538, 27, 33, 49, 76, 63, 36, 37, 38
110487914, -4050, 8521, 13393, -146, 1836, -1036, -3191, 149, 582, -627, 27, 33, 49, 76, 63, 36, 37, 38
110496004, -4050, 8521, 13393, -146, 1836, -1036, -3191, 149, 582, -627, 30, 28, 48, 74, 46, 31, 37, 39
110496762, -4050, 8521, 13393, -146, 1836, -1036, -3191, 149, 582, -627, 30, 28, 48, 74, 46, 31, 37, 39
110502915, -4200, 8402, 13423, -72, 1870, -1068, -3195, 226, 689, -711, 30, 28, 48, 74, 46, 31, 37, 39
110519197, -4200, 8402, 13423, -72, 1870, -1068, -3195, 226, 689, -711, 29, 28, 46, 70, 43, 30, 38, 41
110520042, -4200, 8402, 13423, -72, 1870, -1068, -3195, 226, 689, -711, 29, 28, 46, 70, 43, 30, 38, 41
110521027, -4360, 8267, 13456, 4, 1915, -1030, -3235, 289, 774, -789, 29, 28, 46, 70, 43, 30, 38, 41
110533484, -4360, 8267, 13456, 4, 1915, -1030, -3235, 289, 774, -789, 29, 27, 37, 57, 39, 29, 39, 41
110534264, -4360, 8267, 13456, 4, 1915, -1030, -3235, 289, 774, -789, 29, 27, 37, 57, 39, 29, 39, 41
110540455, -4510, 8130, 13489, 101, 1975, -943, -3268, 219, 815, -820, 29, 27, 37, 57, 39, 29, 39, 41
110555726, -4510, 8130, 13489, 101, 1975, -943, -3268, 219, 815, -820, 29, 26, 32, 45, 31, 27, 41, 34
110563455, -4510, 8130, 13489, 101, 1975, -943, -3268, 219, 815, -820, 29, 26, 32, 45, 31, 27, 41, 34
110564370, -4647, 8000, 13520, 222, 2056, -977, -3256, 26, 832, -835, 29, 26, 32, 45, 31, 27, 41, 34
110579180, -4647, 8000, 13520, 222, 2056, -977, -3256, 26, 832, -835, 30, 27, 56, 66, 28, 35, 45, 38
