Timestamp, Orientation x, Orientation y, Orientation z, Orientation w, Acceleration x, Acceleration y, Acceleration z, Rotation x, Rotation y, Rotation z, EMG 0, EMG 1, EMG 2, EMG 3, EMG 4, EMG 5, EMG 6, EMG 7
99995667, -8662, 308, 13903, 74, 4026, -76, -1959, 35, -2, 2, 0, 0, 0, 0, 0, 0, 0, 0
100003230, -8662, 304, 13903, 68, 4028, -57, -1968, 38, -8, -3, 0, 0, 0, 0, 0, 0, 0, 0
100025678, -8661, 300, 13904, 65, 4032, -63, -1984, 28, -8, -12, 0, 0, 0, 0, 0, 0, 0, 0
100040652, -8661, 295, 13904, 60, 4033, -74, -1991, 34, 3, -20, 0, 0, 0, 0, 0, 0, 0, 0
100064491, -8662, 287, 13904, 59, 4045, -13, -2037, 37, 29, -12, 0, 0, 0, 0, 0, 0, 0, 0
100065284, -8662, 287, 13904, 59, 4045, -13, -2037, 37, 29, -12, 24, 23, 29, 109, 56, 36, 28, 38
100066145, -8662, 287, 13904, 59, 4045, -13, -2037, 37, 29, -12, 24, 23, 29, 109, 56, 36, 28, 38
100078225, -8668, 305, 13900, 93, 4059, 146, -2124, -166, 110, 79, 24, 23, 29, 109, 56, 36, 28, 38
100086296, -8668, 305, 13900, 93, 4059, 146, -2124, -166, 110, 79, 36, 29, 47, 180, 138, 138, 57, 69
100087057, -8668, 305, 13900, 93, 4059, 146, -2124, -166, 110, 79, 36, 29, 47, 180, 138, 138, 57, 69
100100669, -8684, 394, 13886, 186, 4087, 224, -2053, -641, 157, 282, 36, 29, 47, 180, 138, 138, 57, 69
100108833, -8684, 394, 13886, 186, 4087, 224, -2053, -641, 157, 282, 41, 31, 61, 350, 249, 236, 128, 85
100109614, -8684, 394, 13886, 186, 4087, 224, -2053, -641, 157, 282, 41, 31, 61, 350, 249, 236, 128, 85
100124554, -8684, 578, 13876, 358, 4001, 190, -1946, -1317, 43, 460, 41, 31, 61, 350, 249, 236, 128, 85
100125342, -8684, 578, 13876, 358, 4001, 190, -1946, -1317, 43, 460, 47, 36, 65, 365, 311, 252, 173, 95
100126128, -8684, 578, 13876, 358, 4001, 190, -1946, -1317, 43, 460, 47, 36, 65, 365, 311, 252, 173, 95
100147023, -8627, 830, 13893, 551, 3870, -27, -1986, -1673, -304, 602, 47, 36, 65, 365, 311, 252, 173, 95
100147801, -8627, 830, 13893, 551, 3870, -27, -1986, -1673, -304, 602, 51, 39, 71, 370, 348, 260, 187, 98
100148608, -8627, 830, 13893, 551, 3870, -27, -1986, -1673, -304, 602, 51, 39, 71, 370, 348, 260, 187, 98
100160664, -8525, 1140, 13927, 693, 3889, -419, -2028, -1635, -601, 975, 51, 39, 71, 370, 348, 260, 187, 98
100168755, -8525, 1140, 13927, 693, 3889, -419, -2028, -1635, -601, 975, 52, 40, 71, 362, 415, 277, 223, 103
100169551, -8525, 1140, 13927, 693, 3889, -419, -2028, -1635, -601, 975, 52, 40, 71, 362, 415, 277, 223, 103
100184616, -8371, 1532, 13981, 737, 3902, -448, -2200, -1497, -919, 1495, 52, 40, 71, 362, 415, 277, 223, 103
100185338, -8371, 1532, 13981, 737, 3902, -448, -2200, -1497, -919, 1495, 45, 37, 67, 344, 415, 263, 230, 104
100186097, -8371, 1532, 13981, 737, 3902, -448, -2200, -1497, -919, 1495, 45, 37, 67, 344, 415, 263, 230, 104
100207007, -8163, 2046, 14034, 820, 3858, -498, -2495, -1982, -1204, 2096, 45, 37, 67, 344, 415, 263, 230, 104
100207809, -8163, 2046, 14034, 820, 3858, -498, -2495, -1982, -1204, 2096, 45, 36, 63, 188, 381, 196, 213, 96
100208605, -8163, 2046, 14034, 820, 3858, -498, -2495, -1982, -1204, 2096, 45, 36, 63, 188, 381, 196, 213, 96
100220657, -7904, 2673, 14068, 937, 3815, -741, -2721, -2516, -1394, 2532, 45, 36, 63, 188, 381, 196, 213, 96
100228781, -7904, 2673, 14068, 937, 3815, -741, -2721, -2516, -1394, 2532, 53, 40, 70, 185, 346, 196, 204, 116
100229587, -7904, 2673, 14068, 937, 3815, -741, -2721, -2516, -1394, 2532, 53, 40, 70, 185, 346, 196, 204, 116
100244466, -7614, 3377, 14070, 1042, 3711, -993, -2814, -2713, -1499, 2935, 53, 40, 70, 185, 346, 196, 204, 116
100245287, -7614, 3377, 14070, 1042, 3711, -993, -2814, -2713, -1499, 2935, 53, 40, 71, 187, 334, 194, 209, 124
100246107, -7614, 3377, 14070, 1042, 3711, -993, -2814, -2713, -1499, 2935, 53, 40, 71, 187, 334, 194, 209, 124
100267020, -7285, 4120, 14040, 1125, 3515, -1148, -2903, -2778, -1652, 3197, 53, 40, 71, 187, 334, 194, 209, 124
100267810, -7285, 4120, 14040, 1125, 3515, -1148, -2903, -2778, -1652, 3197, 56, 41, 73, 187, 277, 170, 178, 129
100268628, -7285, 4120, 14040, 1125, 3515, -1148, -2903, -2778, -1652, 3197, 56, 41, 73, 187, 277, 170, 178, 129
100280664, -6904, 4859, 13992, 1177, 3415, -1197, -3016, -2696, -1907, 3271, 56, 41, 73, 187, 277, 170, 178, 129
100288779, -6904, 4859, 13992, 1177, 3415, -1197, -3016, -2696, -1907, 3271, 99, 51, 81, 201, 292, 160, 175, 265
100289578, -6904, 4859, 13992, 1177, 3415, -1197, -3016, -2696, -1907, 3271, 99, 51, 81, 201, 292, 160, 175, 265
100304488, -6498, 5569, 13920, 1189, 3400, -1252, -2948, -2491, -2063, 3268, 99, 51, 81, 201, 292, 160, 175, 265
100305285, -6498, 5569, 13920, 1189, 3400, -1252, -2948, -2491, -2063, 3268, 100, 53, 81, 198, 295, 147, 162, 286
100306102, -6498, 5569, 13920, 1189, 3400, -1252, -2948, -2491, -2063, 3268, 100, 53, 81, 198, 295, 147, 162, 286
100326997, -6107, 6210, 13829, 1144, 3287, -1254, -2937, -2045, -2058, 3126, 100, 53, 81, 198, 295, 147, 162, 286
100327760, -6107, 6210, 13829, 1144, 3287, -1254, -2937, -2045, -2058, 3126, 110, 54, 81, 190, 312, 127, 138, 281
100328579, -6107, 6210, 13829, 1144, 3287, -1254, -2937, -2045, -2058, 3126, 110, 54, 81, 190, 312, 127, 138, 281
100340607, -5722, 6746, 13752, 1023, 3121, -1370, -3017, -1456, -2184, 2755, 110, 54, 81, 190, 312, 127, 138, 281
100348782, -5722, 6746, 13752, 1023, 3121, -1370, -3017, -1456, -2184, 2755, 131, 58, 79, 188, 298, 121, 114, 322
100349613, -5722, 6746, 13752, 1023, 3121, -1370, -3017, -1456, -2184, 2755, 131, 58, 79, 188, 298, 121, 114, 322
100364486, -5358, 7185, 13690, 824, 3265, -1280, -3066, -837, -2303, 2456, 131, 58, 79, 188, 298, 121, 114, 322
100365317, -5358, 7185, 13690, 824, 3265, -1280, -3066, -837, -2303, 2456, 140, 59, 79, 186, 310, 122, 106, 330
100366133, -5358, 7185, 13690, 824, 3265, -1280, -3066, -837, -2303, 2456, 140, 59, 79, 186, 310, 122, 106, 330
100386988, -5029, 7560, 13624, 593, 3251, -978, -3151, -436, -2216, 2273, 140, 59, 79, 186, 310, 122, 106, 330
100387758, -5029, 7560, 13624, 593, 3251, -978, -3151, -436, -2216, 2273, 114, 53, 66, 159, 285, 98, 91, 237
100388577, -5029, 7560, 13624, 593, 3251, -978, -3151, -436, -2216, 2273, 114, 53, 66, 159, 285, 98, 91, 237
100400642, -4706, 7908, 13550, 388, 3133, -851, -3184, -487, -2117, 2140, 114, 53, 66, 159, 285, 98, 91, 237
100408791, -4706, 7908, 13550, 388, 3133, -851, -3184, -487, -2117, 2140, 120, 53, 64, 145, 267, 96, 103, 215
100409602, -4706, 7908, 13550, 388, 3133, -851, -3184, -487, -2117, 2140, 120, 53, 64, 145, 267, 96, 103, 215
100424511, -4393, 8220, 13473, 212, 3007, -921, -3186, -543, -1997, 1939, 120, 53, 64, 145, 267, 96, 103, 215
100425303, -4393, 8220, 13473, 212, 3007, -921, -3186, -543, -1997, 1939, 116, 50, 58, 132, 290, 98, 103, 218
100426128, -4393, 8220, 13473, 212, 3007, -921, -3186, -543, -1997, 1939, 116, 50, 58, 132, 290, 98, 103, 218
100446995, -4114, 8472, 13406, 47, 2956, -904, -3189, -403, -1837, 1626, 116, 50, 58, 132, 290, 98, 103, 218
100447784, -4114, 8472, 13406, 47, 2956, -904, -3189, -403, -1837, 1626, 96, 44, 63, 152, 303, 96, 105, 161
100448613, -4114, 8472, 13406, 47, 2956, -904, -3189, -403, -1837, 1626, 96, 44, 63, 152, 303, 96, 105, 161
100460633, -3854, 8683, 13348, -93, 2892, -791, -3246, -386, -1701, 1391, 96, 44, 63, 152, 303, 96, 105, 161
100468745, -3854, 8683, 13348, -93, 2892, -791, -3246, -386, -1701, 1391, 90, 42, 62, 161, 277, 103, 105, 170
100469556, -3854, 8683, 13348, -93, 2892, -791, -3246, -386, -1701, 1391, 90, 42, 62, 161, 277, 103, 105, 170
100484471, -3707, 8846, 13282, -130, 2892, -822, -3239, -419, -1498, 1248, 90, 42, 62, 161, 277, 103, 105, 170
100485254, -3707, 8846, 13282, -130, 2892, -822, -3239, -419, -1498, 1248, 119, 46, 64, 175, 281, 109, 103, 174
100486078, -3707, 8846, 13282, -130, 2892, -822, -3239, -419, -1498, 1248, 119, 46, 64, 175, 281, 109, 103, 174
100506992, -3602, 8985, 13217, -153, 2782, -905, -3260, -373, -1239, 1090, 119, 46, 64, 175, 281, 109, 103, 174
100507794, -3602, 8985, 13217, -153, 2782, -905, -3260, -373, -1239, 1090, 123, 49, 65, 188, 283, 175, 140, 185
100508609, -3602, 8985, 13217, -153, 2782, -905, -3260, -373, -1239, 1090, 123, 49, 65, 188, 283, 175, 140, 185
100520714, -3505, 9087, 13173, -155, 2683, -869, -3278, -382, -1143, 825, 123, 49, 65, 188, 283, 175, 140, 185
100528789, -3505, 9087, 13173, -155, 2683, -869, -3278, -382, -1143, 825, 195, 72, 85, 218, 234, 200, 155, 188
100529614, -3505, 9087, 13173, -155, 2683, -869, -3278, -382, -1143, 825, 195, 72, 85, 218, 234, 200, 155, 188
100543179, -3422, 9133, 13163, -159, 2610, -864, -3303, -277, -1113, 461, 195, 72, 85, 218, 234, 200, 155, 188
100551271, -3422, 9133, 13163, -159, 2610, -864, -3303, -277, -1113, 461, 324, 107, 89, 221, 209, 204, 171, 223
100552057, -3422, 9133, 13163, -159, 2610, -864, -3303, -277, -1113, 461, 324, 107, 89, 221, 209, 204, 171, 223
100566052, -3390, 9167, 13148, -161, 2617, -968, -3257, -174, -888, 391, 324, 107, 89, 221, 209, 204, 171, 223
100573747, -3390, 9167, 13148, -161, 2617, -968, -3257, -174, -888, 391, 369, 138, 103, 227, 186, 224, 199, 252
100574565, -3390, 9167, 13148, -161, 2617, -968, -3257, -174, -888, 391, 369, 138, 103, 227, 186, 224, 199, 252
100580833, -3364, 9193, 13137, -122, 2582, -677, -3388, -170, -701, 339, 369, 138, 103, 227, 186, 224, 199, 252
100588775, -3364, 9193, 13137, -122, 2582, -677, -3388, -170, -701, 339, 376, 137, 115, 223, 190, 240, 200, 245
100589568, -3364, 9193, 13137, -122, 2582, -677, -3388, -170, -701, 339, 376, 137, 115, 223, 190, 240, 200, 245
100604509, -3389, 9190, 13133, -41, 2734, -767, -3232, -252, -443, 127, 376, 137, 115, 223, 190, 240, 200, 245
100605282, -3389, 9190, 13133, -41, 2734, -767, -3232, -252, -443, 127, 378, 136, 115, 226, 198, 196, 173, 243
100606091, -3389, 9190, 13133, -41, 2734, -767, -3232, -252, -443, 127, 378, 136, 115, 226, 198, 196, 173, 243
100627028, -3405, 9224, 13105, 30, 2426, -896, -3401, -319, -279, 311, 378, 136, 115, 226, 198, 196, 173, 243
100627804, -3405, 9224, 13105, 30, 2426, -896, -3401, -319, -279, 311, 352, 144, 102, 206, 269, 168, 157, 236
100628640, -3405, 9224, 13105, 30, 2426, -896, -3401, -319, -279, 311, 352, 144, 102, 206, 269, 168, 157, 236
100640709, -3447, 9217, 13099, 69, 2445, -1013, -3331, -125, -302, 63, 352, 144, 102, 206, 269, 168, 157, 236
100648828, -3447, 9217, 13099, 69, 2445, -1013, -3331, -125, -302, 63, 240, 193, 110, 207, 333, 170, 146, 202
100649606, -3447, 9217, 13099, 69, 2445, -1013, -3331, -125, -302, 63, 240, 193, 110, 207, 333, 170, 146, 202
100663847, -3515, 9193, 13097, 94, 2462, -854, -3372, 131, -214, 24, 240, 193, 110, 207, 333, 170, 146, 202
100664645, -3515, 9193, 13097, 94, 2462, -854, -3372, 131, -214, 24, 171, 210, 100, 208, 425, 145, 114, 166
100670630, -3515, 9193, 13097, 94, 2462, -854, -3372, 131, -214, 24, 171, 210, 100, 208, 425, 145, 114, 166
100687025, -3585, 9173, 13092, 126, 2411, -875, -3380, 98, -123, 31, 171, 210, 100, 208, 425, 145, 114, 166
100687760, -3585, 9173, 13092, 126, 2411, -875, -3380, 98, -123, 31, 136, 223, 85, 196, 428, 113, 110, 166
100688581, -3585, 9173, 13092, 126, 2411, -875, -3380, 98, -123, 31, 136, 223, 85, 196, 428, 113, 110, 166
100700675, -3649, 9161, 13082, 173, 2390, -936, -3374, -31, -70, 38, 136, 223, 85, 196, 428, 113, 110, 166
100708792, -3649, 9161, 13082, 173, 2390, -936, -3374, -31, -70, 38, 130, 233, 88, 184, 442, 112, 108, 152
100709610, -3649, 9161, 13082, 173, 2390, -936, -3374, -31, -70, 38, 130, 233, 88, 184, 442, 112, 108, 152
100723824, -3725, 9141, 13074, 247, 2369, -937, -3287, -118, 86, -43, 130, 233, 88, 184, 442, 112, 108, 152
100724593, -3725, 9141, 13074, 247, 2369, -937, -3287, -118, 86, -43, 102, 231, 85, 183, 460, 114, 103, 147
100730644, -3725, 9141, 13074, 247, 2369, -937, -3287, -118, 86, -43, 102, 231, 85, 183, 460, 114, 103, 147
100747044, -3813, 9118, 13062, 345, 2319, -921, -3316, -171, 290, -90, 102, 231, 85, 183, 460, 114, 103, 147
100747806, -3813, 9118, 13062, 345, 2319, -921, -3316, -171, 290, -90, 93, 178, 66, 162, 465, 105, 109, 142
100748758, -3813, 9118, 13062, 345, 2319, -921, -3316, -171, 290, -90, 93, 178, 66, 162, 465, 105, 109, 142
100760680, -3907, 9093, 13050, 434, 2267, -1042, -3346, -179, 354, -139, 93, 178, 66, 162, 465, 105, 109, 142
100768803, -3907, 9093, 13050, 434, 2267, -1042, -3346, -179, 354, -139, 72, 134, 59, 132, 391, 95, 99, 107
100769602, -3907, 9093, 13050, 434, 2267, -1042, -3346, -179, 354, -139, 72, 134, 59, 132, 391, 95, 99, 107
100783177, -4027, 9045, 13043, 510, 2333, -1026, -3330, 9, 430, -231, 72, 134, 59, 132, 391, 95, 99, 107
100791253, -4027, 9045, 13043, 510, 2333, -1026, -3330, 9, 430, -231, 64, 111, 63, 133, 379, 92, 98, 101
100792056, -4027, 9045, 13043, 510, 2333, -1026, -3330, 9, 430, -231, 64, 111, 63, 133, 379, 92, 98, 101
100807036, -4168, 8976, 13044, 584, 2405, -961, -3314, 143, 519, -323, 64, 111, 63, 133, 379, 92, 98, 101
100807786, -4168, 8976, 13044, 584, 2405, -961, -3314, 143, 519, -323, 46, 89, 54, 122, 352, 91, 89, 95
100808593, -4168, 8976, 13044, 584, 2405, -961, -3314, 143, 519, -323, 46, 89, 54, 122, 352, 91, 89, 95
100820682, -4317, 8896, 13047, 658, 2458, -919, -3323, 211, 580, -378, 46, 89, 54, 122, 352, 91, 89, 95
100828752, -4317, 8896, 13047, 658, 2458, -919, -3323, 211, 580, -378, 45, 63, 63, 94, 278, 85, 84, 93
100829555, -4317, 8896, 13047, 658, 2458, -919, -3323, 211, 580, -378, 45, 63, 63, 94, 278, 85, 84, 93
100843144, -4482, 8806, 13048, 730, 2528, -951, -3326, 277, 668, -416, 45, 63, 63, 94, 278, 85, 84, 93
100851302, -4482, 8806, 13048, 730, 2528, -951, -3326, 277, 668, -416, 43, 53, 59, 77, 181, 74, 54, 70
100852081, -4482, 8806, 13048, 730, 2528, -951, -3326, 277, 668, -416, 43, 53, 59, 77, 181, 74, 54, 70
100867019, -4670, 8702, 13048, 796, 2551, -982, -3316, 387, 811, -472, 43, 53, 59, 77, 181, 74, 54, 70
100867800, -4670, 8702, 13048, 796, 2551, -982, -3316, 387, 811, -472, 33, 43, 58, 68, 161, 66, 48, 51
100868609, -4670, 8702, 13048, 796, 2551, -982, -3316, 387, 811, -472, 33, 43, 58, 68, 161, 66, 48, 51
100880599, -4880, 8582, 13046, 865, 2565, -998, -3314, 474, 984, -549, 33, 43, 58, 68, 161, 66, 48, 51
100888762, -4880, 8582, 13046, 865, 2565, -998, -3314, 474, 984, -549, 30, 37, 51, 59, 165, 56, 43, 42
100889583, -4880, 8582, 13046, 865, 2565, -998, -3314, 474, 984, -549, 30, 37, 51, 59, 165, 56, 43, 42
100903134, -5101, 8441, 13049, 936, 2602, -977, -3314, 555, 1094, -659, 30, 37, 51, 59, 165, 56, 43, 42
100911263, -5101, 8441, 13049, 936, 2602, -977, -3314, 555, 1094, -659, 30, 33, 57, 64, 172, 49, 47, 47
100912058, -5101, 8441, 13049, 936, 2602, -977, -3314, 555, 1094, -659, 30, 33, 57, 64, 172, 49, 47, 47
100926987, -5333, 8283, 13052, 1010, 2677, -943, -3297, 630, 1189, -733, 30, 33, 57, 64, 172, 49, 47, 47
100927759, -5333, 8283, 13052, 1010, 2677, -943, -3297, 630, 1189, -733, 28, 30, 47, 87, 193, 48, 49, 46
100928578, -5333, 8283, 13052, 1010, 2677, -943, -3297, 630, 1189, -733, 28, 30, 47, 87, 193, 48, 49, 46
100940640, -5569, 8108, 13057, 1087, 2710, -987, -3259, 645, 1278, -835, 28, 30, 47, 87, 193, 48, 49, 46
100948731, -5569, 8108, 13057, 1087, 2710, -987, -3259, 645, 1278, -835, 31, 31, 52, 133, 217, 48, 51, 43
100949529, -5569, 8108, 13057, 1087, 2710, -987, -3259, 645, 1278, -835, 31, 31, 52, 133, 217, 48, 51, 43
100963112, -5819, 7902, 13068, 1156, 2732, -1017, -3214, 775, 1372, -1000, 31, 31, 52, 133, 217, 48, 51, 43
100971289, -5819, 7902, 13068, 1156, 2732, -1017, -3214, 775, 1372, -1000, 32, 32, 54, 144, 237, 52, 54, 42
100972088, -5819, 7902, 13068, 1156, 2732, -1017, -3214, 775, 1372, -1000, 32, 32, 54, 144, 237, 52, 54, 42
100985629, -6075, 7665, 13088, 1217, 2778, -1041, -3194, 888, 1439, -1163, 32, 32, 54, 144, 237, 52, 54, 42
100993758, -6075, 7665, 13088, 1217, 2778, -1041, -3194, 888, 1439, -1163, 32, 36, 60, 151, 245, 57, 54, 41
100994577, -6075, 7665, 13088, 1217, 2778, -1041, -3194, 888, 1439, -1163, 32, 36, 60, 151, 245, 57, 54, 41
101000740, -6340, 7400, 13111, 1256, 2823, -1049, -3142, 1072, 1473, -1261, 32, 36, 60, 151, 245, 57, 54, 41
101008719, -6340, 7400, 13111, 1256, 2823, -1049, -3142, 1072, 1473, -1261, 36, 37, 75, 191, 235, 56, 54, 35
101009530, -6340, 7400, 13111, 1256, 2823, -1049, -3142, 1072, 1473, -1261, 36, 37, 75, 191, 235, 56, 54, 35
101023125, -6618, 7096, 13139, 1284, 2866, -1054, -3105, 1250, 1568, -1431, 36, 37, 75, 191, 235, 56, 54, 35
101031262, -6618, 7096, 13139, 1284, 2866, -1054, -3105, 1250, 1568, -1431, 38, 43, 86, 239, 205, 51, 53, 40
101032082, -6618, 7096, 13139, 1284, 2866, -1054, -3105, 1250, 1568, -1431, 38, 43, 86, 239, 205, 51, 53, 40
101045596, -6927, 6734, 13166, 1318, 2924, -1094, -3103, 1424, 1633, -1658, 38, 43, 86, 239, 205, 51, 53, 40
101053764, -6927, 6734, 13166, 1318, 2924, -1094, -3103, 1424, 1633, -1658, 35, 44, 93, 244, 182, 51, 57, 40
101054578, -6927, 6734, 13166, 1318, 2924, -1094, -3103, 1424, 1633, -1658, 35, 44, 93, 244, 182, 51, 57, 40
101060733, -7247, 6313, 13200, 1342, 3028, -1082, -3014, 1638, 1675, -1911, 35, 44, 93, 244, 182, 51, 57, 40
101068765, -7247, 6313, 13200, 1342, 3028, -1082, -3014, 1638, 1675, -1911, 35, 46, 97, 258, 155, 43, 55, 39
101069582, -7247, 6313, 13200, 1342, 3028, -1082, -3014, 1638, 1675, -1911, 35, 46, 97, 258, 155, 43, 55, 39
101083120, -7563, 5840, 13239, 1360, 3138, -997, -2999, 1797, 1677, -2146, 35, 46, 97, 258, 155, 43, 55, 39
101091269, -7563, 5840, 13239, 1360, 3138, -997, -2999, 1797, 1677, -2146, 36, 50, 105, 325, 135, 47, 67, 41
101092084, -7563, 5840, 13239, 1360, 3138, -997, -2999, 1797, 1677, -2146, 36, 50, 105, 325, 135, 47, 67, 41
101105648, -7863, 5337, 13274, 1388, 3280, -922, -2915, 1796, 1652, -2299, 36, 50, 105, 325, 135, 47, 67, 41
101113767, -7863, 5337, 13274, 1388, 3280, -922, -2915, 1796, 1652, -2299, 33, 50, 101, 318, 128, 48, 70, 42
101114563, -7863, 5337, 13274, 1388, 3280, -922, -2915, 1796, 1652, -2299, 33, 50, 101, 318, 128, 48, 70, 42
101120729, -8148, 4814, 13296, 1440, 3391, -832, -2890, 1703, 1691, -2446, 33, 50, 101, 318, 128, 48, 70, 42
101136275, -8148, 4814, 13296, 1440, 3391, -832, -2890, 1703, 1691, -2446, 31, 44, 94, 289, 126, 52, 84, 43
101137061, -8148, 4814, 13296, 1440, 3391, -832, -2890, 1703, 1691, -2446, 31, 44, 94, 289, 126, 52, 84, 43
101143220, -8412, 4288, 13303, 1519, 3534, -737, -2777, 1545, 1678, -2519, 31, 44, 94, 289, 126, 52, 84, 43
101151329, -8412, 4288, 13303, 1519, 3534, -737, -2777, 1545, 1678, -2519, 29, 43, 99, 274, 132, 51, 84, 43
101152071, -8412, 4288, 13303, 1519, 3534, -737, -2777, 1545, 1678, -2519, 29, 43, 99, 274, 132, 51, 84, 43
101165640, -8642, 3797, 13291, 1634, 3704, -620, -2626, 1214, 1615, -2464, 29, 43, 99, 274, 132, 51, 84, 43
101173751, -8642, 3797, 13291, 1634, 3704, -620, -2626, 1214, 1615, -2464, 30, 39, 100, 264, 170, 57, 82, 43
101176120, -8642, 3797, 13291, 1634, 3704, -620, -2626, 1214, 1615, -2464, 30, 39, 100, 264, 170, 57, 82, 43
101180760, -8841, 3353, 13261, 1780, 3852, -577, -2454, 874, 1529, -2346, 30, 39, 100, 264, 170, 57, 82, 43
101188151, -8841, 3353, 13261, 1780, 3852, -577, -2454, 874, 1529, -2346, 31, 30, 89, 175, 156, 51, 78, 41
101195597, -8841, 3353, 13261, 1780, 3852, -577, -2454, 874, 1529, -2346, 31, 30, 89, 175, 156, 51, 78, 41
101203240, -9016, 2952, 13214, 1952, 3921, -545, -2294, 581, 1475, -2240, 31, 30, 89, 175, 156, 51, 78, 41
101211268, -9016, 2952, 13214, 1952, 3921, -545, -2294, 581, 1475, -2240, 28, 30, 85, 152, 176, 52, 73, 41
101212084, -9016, 2952, 13214, 1952, 3921, -545, -2294, 581, 1475, -2240, 28, 30, 85, 152, 176, 52, 73, 41
101225598, -9168, 2592, 13154, 2150, 3923, -499, -2229, 296, 1411, -2152, 28, 30, 85, 152, 176, 52, 73, 41
101233763, -9168, 2592, 13154, 2150, 3923, -499, -2229, 296, 1411, -2152, 28, 29, 84, 151, 178, 48, 60, 33
101234557, -9168, 2592, 13154, 2150, 3923, -499, -2229, 296, 1411, -2152, 28, 29, 84, 151, 178, 48, 60, 33
101240720, -9300, 2262, 13087, 2357, 3987, -629, -2147, 123, 1336, -2095, 28, 29, 84, 151, 178, 48, 60, 33
101256234, -9300, 2262, 13087, 2357, 3987, -629, -2147, 123, 1336, -2095, 27, 27, 68, 145, 176, 47, 55, 30
101257053, -9300, 2262, 13087, 2357, 3987, -629, -2147, 123, 1336, -2095, 27, 27, 68, 145, 176, 47, 55, 30
101263214, -9417, 1934, 13024, 2528, 4024, -662, -2121, 256, 1237, -2014, 27, 27, 68, 145, 176, 47, 55, 30
101271256, -9417, 1934, 13024, 2528, 4024, -662, -2121, 256, 1237, -2014, 24, 24, 57, 128, 140, 40, 54, 28
101272053, -9417, 1934, 13024, 2528, 4024, -662, -2121, 256, 1237, -2014, 24, 24, 57, 128, 140, 40, 54, 28
101285643, -9516, 1604, 12974, 2639, 4007, -620, -2079, 525, 1082, -1862, 24, 24, 57, 128, 140, 40, 54, 28
101293739, -9516, 1604, 12974, 2639, 4007, -620, -2079, 525, 1082, -1862, 21, 23, 54, 121, 136, 37, 43, 25
101294553, -9516, 1604, 12974, 2639, 4007, -620, -2079, 525, 1082, -1862, 21, 23, 54, 121, 136, 37, 43, 25
101300758, -9593, 1292, 12939, 2704, 4029, -504, -2029, 678, 895, -1660, 21, 23, 54, 121, 136, 37, 43, 25
