Timestamp, Orientation x, Orientation y, Orientation z, Orientation w, Acceleration x, Acceleration y, Acceleration z, Rotation x, Rotation y, Rotation z, EMG 0, EMG 1, EMG 2, EMG 3, EMG 4, EMG 5, EMG 6, EMG 7
688565668, -8212, 5891, 12653, 2488, 3873, -568, -1971, -45, 0, -15, 0, 0, 0, 0, 0, 0, 0, 0
688566448, -8213, 5890, 12653, 2489, 3865, -578, -1958, -8, -6, -22, 0, 0, 0, 0, 0, 0, 0, 0
688579935, -8212, 5886, 12655, 2489, 3860, -571, -1969, 6, -8, -30, 0, 0, 0, 0, 0, 0, 0, 0
688594924, -8212, 5881, 12657, 2488, 3864, -574, -1962, 11, -9, -37, 0, 0, 0, 0, 0, 0, 0, 0
688617427, -8214, 5877, 12658, 2486, 3853, -601, -1957, 9, -6, -43, 0, 0, 0, 0, 0, 0, 0, 0
688633784, -8214, 5877, 12658, 2486, 3853, -601, -1957, 9, -6, -43, 28, 51, 33, 123, 129, 85, 58, 47
688634619, -8214, 5877, 12658, 2486, 3853, -601, -1957, 9, -6, -43, 28, 51, 33, 123, 129, 85, 58, 47
688635499, -8223, 5872, 12659, 2464, 3810, -793, -1872, 60, -40, -75, 28, 51, 33, 123, 129, 85, 58, 47
688656232, -8223, 5872, 12659, 2464, 3810, -793, -1872, 60, -40, -75, 45, 73, 44, 142, 171, 108, 94, 88
688657030, -8223, 5872, 12659, 2464, 3810, -793, -1872, 60, -40, -75, 45, 73, 44, 142, 171, 108, 94, 88
688657987, -8226, 5847, 12685, 2376, 3673, -1026, -1884, 359, -220, -145, 45, 73, 44, 142, 171, 108, 94, 88
688678731, -8226, 5847, 12685, 2376, 3673, -1026, -1884, 359, -220, -145, 55, 76, 46, 160, 197, 122, 109, 118
688679660, -8226, 5847, 12685, 2376, 3673, -1026, -1884, 359, -220, -145, 55, 76, 46, 160, 197, 122, 109, 118
688680487, -8231, 5792, 12735, 2227, 3720, -1032, -1869, 734, -406, -127, 55, 76, 46, 160, 197, 122, 109, 118
688693015, -8231, 5792, 12735, 2227, 3720, -1032, -1869, 734, -406, -127, 90, 152, 58, 197, 260, 126, 119, 150
688693858, -8231, 5792, 12735, 2227, 3720, -1032, -1869, 734, -406, -127, 90, 152, 58, 197, 260, 126, 119, 150
688699988, -8248, 5727, 12790, 2007, 3631, -1214, -2017, 1084, -423, -28, 90, 152, 58, 197, 260, 126, 119, 150
688716242, -8248, 5727, 12790, 2007, 3631, -1214, -2017, 1084, -423, -28, 136, 171, 84, 238, 348, 140, 146, 237
688717059, -8248, 5727, 12790, 2007, 3631, -1214, -2017, 1084, -423, -28, 136, 171, 84, 238, 348, 140, 146, 237
688717990, -8282, 5602, 12863, 1728, 3572, -1381, -2075, 1648, -498, 42, 136, 171, 84, 238, 348, 140, 146, 237
688738759, -8282, 5602, 12863, 1728, 3572, -1381, -2075, 1648, -498, 42, 169, 216, 141, 301, 397, 206, 184, 318
688739633, -8282, 5602, 12863, 1728, 3572, -1381, -2075, 1648, -498, 42, 169, 216, 141, 301, 397, 206, 184, 318
688740498, -8301, 5462, 12952, 1393, 3545, -1371, -2061, 1926, -713, 114, 169, 216, 141, 301, 397, 206, 184, 318
688753057, -8301, 5462, 12952, 1393, 3545, -1371, -2061, 1926, -713, 114, 199, 276, 163, 402, 461, 247, 189, 319
688753810, -8301, 5462, 12952, 1393, 3545, -1371, -2061, 1926, -713, 114, 199, 276, 163, 402, 461, 247, 189, 319
688759959, -8295, 5362, 13031, 1021, 3626, -1287, -2135, 1940, -888, 428, 199, 276, 163, 402, 461, 247, 189, 319
688776234, -8295, 5362, 13031, 1021, 3626, -1287, -2135, 1940, -888, 428, 199, 313, 199, 425, 503, 250, 196, 318
688777047, -8295, 5362, 13031, 1021, 3626, -1287, -2135, 1940, -888, 428, 199, 313, 199, 425, 503, 250, 196, 318
688777985, -8322, 5251, 13090, 495, 3805, -1649, -2086, 2699, -985, 852, 199, 313, 199, 425, 503, 250, 196, 318
688798715, -8322, 5251, 13090, 495, 3805, -1649, -2086, 2699, -985, 852, 201, 314, 233, 427, 533, 262, 198, 320
688799532, -8322, 5251, 13090, 495, 3805, -1649, -2086, 2699, -985, 852, 201, 314, 233, 427, 533, 262, 198, 320
688800440, -8354, 5130, 13127, -78, 3931, -1219, -2066, 2981, -1000, 1070, 201, 314, 233, 427, 533, 262, 198, 320
688813025, -8354, 5130, 13127, -78, 3931, -1219, -2066, 2981, -1000, 1070, 224, 387, 235, 428, 523, 260, 186, 272
688813821, -8354, 5130, 13127, -78, 3931, -1219, -2066, 2981, -1000, 1070, 224, 387, 235, 428, 523, 260, 186, 272
688819974, -8366, 5096, 13120, -580, 3905, -1014, -2153, 2412, -831, 1382, 224, 387, 235, 428, 523, 260, 186, 272
688836232, -8366, 5096, 13120, -580, 3905, -1014, -2153, 2412, -831, 1382, 220, 398, 218, 390, 507, 208, 150, 202
688837098, -8366, 5096, 13120, -580, 3905, -1014, -2153, 2412, -831, 1382, 220, 398, 218, 390, 507, 208, 150, 202
688838006, -8340, 5190, 13073, -1018, 3749, -1256, -2202, 1707, -739, 1840, 220, 398, 218, 390, 507, 208, 150, 202
688858736, -8340, 5190, 13073, -1018, 3749, -1256, -2202, 1707, -739, 1840, 202, 384, 203, 326, 517, 152, 130, 191
688859509, -8340, 5190, 13073, -1018, 3749, -1256, -2202, 1707, -739, 1840, 202, 384, 203, 326, 517, 152, 130, 191
688860476, -8299, 5353, 12992, -1447, 3797, -1576, -2222, 1445, -675, 2193, 202, 384, 203, 326, 517, 152, 130, 191
688873032, -8299, 5353, 12992, -1447, 3797, -1576, -2222, 1445, -675, 2193, 217, 375, 184, 310, 494, 136, 110, 186
688873898, -8299, 5353, 12992, -1447, 3797, -1576, -2222, 1445, -675, 2193, 217, 375, 184, 310, 494, 136, 110, 186
688880023, -8271, 5525, 12885, -1861, 3770, -1597, -2158, 1403, -522, 2254, 217, 375, 184, 310, 494, 136, 110, 186
688896209, -8271, 5525, 12885, -1861, 3770, -1597, -2158, 1403, -522, 2254, 206, 364, 140, 304, 457, 111, 101, 174
688897007, -8271, 5525, 12885, -1861, 3770, -1597, -2158, 1403, -522, 2254, 206, 364, 140, 304, 457, 111, 101, 174
688897952, -8247, 5708, 12753, -2277, 3739, -1622, -2166, 1418, -427, 2386, 206, 364, 140, 304, 457, 111, 101, 174
688918718, -8247, 5708, 12753, -2277, 3739, -1622, -2166, 1418, -427, 2386, 157, 330, 128, 296, 444, 89, 85, 165
688919534, -8247, 5708, 12753, -2277, 3739, -1622, -2166, 1418, -427, 2386, 157, 330, 128, 296, 444, 89, 85, 165
688920524, -8212, 5928, 12597, -2679, 3777, -1502, -2103, 1271, -372, 2604, 157, 330, 128, 296, 444, 89, 85, 165
688933057, -8212, 5928, 12597, -2679, 3777, -1502, -2103, 1271, -372, 2604, 130, 294, 110, 295, 431, 75, 70, 121
688933879, -8212, 5928, 12597, -2679, 3777, -1502, -2103, 1271, -372, 2604, 130, 294, 110, 295, 431, 75, 70, 121
688940009, -8163, 6175, 12425, -3046, 3815, -1615, -2104, 1040, -297, 2689, 130, 294, 110, 295, 431, 75, 70, 121
688956207, -8163, 6175, 12425, -3046, 3815, -1615, -2104, 1040, -297, 2689, 133, 293, 110, 284, 348, 69, 61, 124
688957036, -8163, 6175, 12425, -3046, 3815, -1615, -2104, 1040, -297, 2689, 133, 293, 110, 284, 348, 69, 61, 124
688957960, -8110, 6433, 12242, -3378, 3713, -1674, -2063, 865, -199, 2680, 133, 293, 110, 284, 348, 69, 61, 124
688978744, -8110, 6433, 12242, -3378, 3713, -1674, -2063, 865, -199, 2680, 110, 289, 86, 266, 331, 69, 60, 114
688979562, -8110, 6433, 12242, -3378, 3713, -1674, -2063, 865, -199, 2680, 110, 289, 86, 266, 331, 69, 60, 114
688980507, -8064, 6692, 12046, -3677, 3678, -1544, -2051, 779, -63, 2651, 110, 289, 86, 266, 331, 69, 60, 114
688993035, -8064, 6692, 12046, -3677, 3678, -1544, -2051, 779, -63, 2651, 109, 280, 88, 270, 301, 64, 52, 94
688993806, -8064, 6692, 12046, -3677, 3678, -1544, -2051, 779, -63, 2651, 109, 280, 88, 270, 301, 64, 52, 94
688999988, -8009, 6958, 11848, -3936, 3652, -1542, -1994, 576, -1, 2597, 109, 280, 88, 270, 301, 64, 52, 94
689016206, -8009, 6958, 11848, -3936, 3652, -1542, -1994, 576, -1, 2597, 101, 229, 108, 257, 288, 71, 55, 83
689017072, -8009, 6958, 11848, -3936, 3652, -1542, -1994, 576, -1, 2597, 101, 229, 108, 257, 288, 71, 55, 83
689017981, -7957, 7212, 11651, -4169, 3551, -1632, -1885, 505, 43, 2483, 101, 229, 108, 257, 288, 71, 55, 83
689038711, -7957, 7212, 11651, -4169, 3551, -1632, -1885, 505, 43, 2483, 100, 240, 125, 271, 273, 77, 57, 81
689039479, -7957, 7212, 11651, -4169, 3551, -1632, -1885, 505, 43, 2483, 100, 240, 125, 271, 273, 77, 57, 81
689040433, -7916, 7439, 11448, -4402, 3476, -1607, -1824, 617, 64, 2385, 100, 240, 125, 271, 273, 77, 57, 81
689053022, -7916, 7439, 11448, -4402, 3476, -1607, -1824, 617, 64, 2385, 108, 281, 133, 243, 301, 73, 53, 69
689053858, -7916, 7439, 11448, -4402, 3476, -1607, -1824, 617, 64, 2385, 108, 281, 133, 243, 301, 73, 53, 69
689060006, -7883, 7645, 11246, -4623, 3441, -1500, -1756, 648, 80, 2272, 108, 281, 133, 243, 301, 73, 53, 69
689076244, -7883, 7645, 11246, -4623, 3441, -1500, -1756, 648, 80, 2272, 106, 273, 141, 236, 303, 71, 50, 59
689077031, -7883, 7645, 11246, -4623, 3441, -1500, -1756, 648, 80, 2272, 106, 273, 141, 236, 303, 71, 50, 59
689078011, -7859, 7829, 11054, -4815, 3347, -1379, -1713, 616, 133, 2083, 106, 273, 141, 236, 303, 71, 50, 59
689098682, -7859, 7829, 11054, -4815, 3347, -1379, -1713, 616, 133, 2083, 113, 278, 139, 216, 310, 77, 49, 57
689099524, -7859, 7829, 11054, -4815, 3347, -1379, -1713, 616, 133, 2083, 113, 278, 139, 216, 310, 77, 49, 57
689100440, -7836, 7996, 10872, -4987, 3252, -1382, -1635, 567, 137, 1938, 113, 278, 139, 216, 310, 77, 49, 57
689113033, -7836, 7996, 10872, -4987, 3252, -1382, -1635, 567, 137, 1938, 114, 284, 125, 216, 267, 67, 46, 60
689113857, -7836, 7996, 10872, -4987, 3252, -1382, -1635, 567, 137, 1938, 114, 284, 125, 216, 267, 67, 46, 60
689135558, -7814, 8135, 10706, -5155, 3150, -1389, -1626, 606, 61, 1775, 114, 284, 125, 216, 267, 67, 46, 60
689136424, -7810, 8228, 10544, -5343, 3039, -1341, -1623, 847, -16, 1615, 114, 284, 125, 216, 267, 67, 46, 60
689143019, -7810, 8228, 10544, -5343, 3039, -1341, -1623, 847, -16, 1615, 142, 311, 136, 252, 273, 80, 56, 69
689143834, -7810, 8228, 10544, -5343, 3039, -1341, -1623, 847, -16, 1615, 142, 311, 136, 252, 273, 80, 56, 69
689158716, -7872, 8223, 10476, -5393, 2969, -1177, -1618, 1098, -27, 1486, 142, 311, 136, 252, 273, 80, 56, 69
689159537, -7872, 8223, 10476, -5393, 2969, -1177, -1618, 1098, -27, 1486, 117, 276, 142, 253, 257, 81, 57, 74
689160358, -7872, 8223, 10476, -5393, 2969, -1177, -1618, 1098, -27, 1486, 117, 276, 142, 253, 257, 81, 57, 74
689181275, -7926, 8216, 10428, -5419, 2869, -1150, -1635, 973, -8, 1337, 117, 276, 142, 253, 257, 81, 57, 74
689182078, -7926, 8216, 10428, -5419, 2869, -1150, -1635, 973, -8, 1337, 120, 279, 153, 272, 257, 86, 64, 76
689182921, -7926, 8216, 10428, -5419, 2869, -1150, -1635, 973, -8, 1337, 120, 279, 153, 272, 257, 86, 64, 76
689203731, -7988, 8199, 10388, -5430, 2776, -1259, -1577, 915, 45, 1153, 120, 279, 153, 272, 257, 86, 64, 76
689204564, -7988, 8199, 10388, -5430, 2776, -1259, -1577, 915, 45, 1153, 172, 342, 162, 318, 277, 89, 69, 75
689205356, -7988, 8199, 10388, -5430, 2776, -1259, -1577, 915, 45, 1153, 172, 342, 162, 318, 277, 89, 69, 75
689217411, -8075, 8159, 10351, -5433, 2730, -1164, -1574, 1038, 125, 993, 172, 342, 162, 318, 277, 89, 69, 75
689225482, -8075, 8159, 10351, -5433, 2730, -1164, -1574, 1038, 125, 993, 180, 375, 167, 316, 336, 101, 79, 76
689226344, -8075, 8159, 10351, -5433, 2730, -1164, -1574, 1038, 125, 993, 180, 375, 167, 316, 336, 101, 79, 76
689239884, -8179, 8104, 10322, -5414, 2705, -1008, -1509, 1031, 222, 826, 180, 375, 167, 316, 336, 101, 79, 76
689248086, -8179, 8104, 10322, -5414, 2705, -1008, -1509, 1031, 222, 826, 202, 381, 158, 315, 372, 114, 93, 85
689248886, -8179, 8104, 10322, -5414, 2705, -1008, -1509, 1031, 222, 826, 202, 381, 158, 315, 372, 114, 93, 85
689263690, -8270, 8059, 10319, -5349, 2609, -867, -1479, 766, 279, 649, 202, 381, 158, 315, 372, 114, 93, 85
689264537, -8270, 8059, 10319, -5349, 2609, -867, -1479, 766, 279, 649, 214, 458, 186, 330, 445, 118, 96, 104
689265313, -8270, 8059, 10319, -5349, 2609, -867, -1479, 766, 279, 649, 214, 458, 186, 330, 445, 118, 96, 104
689286253, -8334, 8031, 10341, -5247, 2514, -993, -1358, 380, 252, 503, 214, 458, 186, 330, 445, 118, 96, 104
689287058, -8334, 8031, 10341, -5247, 2514, -993, -1358, 380, 252, 503, 256, 521, 189, 352, 526, 145, 124, 264
689287879, -8334, 8031, 10341, -5247, 2514, -993, -1358, 380, 252, 503, 256, 521, 189, 352, 526, 145, 124, 264
689301221, -8413, 7985, 10364, -5145, 2503, -1338, -1258, 370, 265, 328, 256, 521, 189, 352, 526, 145, 124, 264
689302032, -8413, 7985, 10364, -5145, 2503, -1338, -1258, 370, 265, 328, 286, 614, 198, 388, 631, 277, 220, 333
689302859, -8413, 7985, 10364, -5145, 2503, -1338, -1258, 370, 265, 328, 286, 614, 198, 388, 631, 277, 220, 333
689323738, -8527, 7886, 10380, -5078, 2480, -1198, -1268, 777, 247, 197, 286, 614, 198, 388, 631, 277, 220, 333
689324538, -8527, 7886, 10380, -5078, 2480, -1198, -1268, 777, 247, 197, 298, 624, 206, 399, 631, 344, 253, 339
689325358, -8527, 7886, 10380, -5078, 2480, -1198, -1268, 777, 247, 197, 298, 624, 206, 399, 631, 344, 253, 339
689338733, -8602, 7811, 10429, -4967, 2376, -704, -1370, 512, 224, 154, 298, 624, 206, 399, 631, 344, 253, 339
689339577, -8602, 7811, 10429, -4967, 2376, -704, -1370, 512, 224, 154, 308, 644, 258, 445, 665, 368, 269, 404
689340356, -8602, 7811, 10429, -4967, 2376, -704, -1370, 512, 224, 154, 308, 644, 258, 445, 665, 368, 269, 404
689361231, -8629, 7793, 10493, -4810, 2300, -834, -1249, -60, 225, 186, 308, 644, 258, 445, 665, 368, 269, 404
689362009, -8629, 7793, 10493, -4810, 2300, -834, -1249, -60, 225, 186, 319, 661, 257, 471, 657, 381, 277, 439
689362834, -8629, 7793, 10493, -4810, 2300, -834, -1249, -60, 225, 186, 319, 661, 257, 471, 657, 381, 277, 439
689376185, -8656, 7776, 10539, -4686, 2299, -1451, -1052, -118, 146, 186, 319, 661, 257, 471, 657, 381, 277, 439
689376998, -8656, 7776, 10539, -4686, 2299, -1451, -1052, -118, 146, 186, 303, 621, 272, 484, 673, 523, 315, 431
689377782, -8656, 7776, 10539, -4686, 2299, -1451, -1052, -118, 146, 186, 303, 621, 272, 484, 673, 523, 315, 431
689398722, -8662, 7743, 10613, -4562, 2295, -996, -1005, -132, -44, 166, 303, 621, 272, 484, 673, 523, 315, 431
689399545, -8662, 7743, 10613, -4562, 2295, -996, -1005, -132, -44, 166, 258, 516, 268, 480, 603, 643, 367, 415
689400378, -8662, 7743, 10613, -4562, 2295, -996, -1005, -132, -44, 166, 258, 516, 268, 480, 603, 643, 367, 415
689421183, -8629, 7757, 10694, -4410, 2301, -1017, -1094, -464, -51, 275, 258, 516, 268, 480, 603, 643, 367, 415
689421997, -8629, 7757, 10694, -4410, 2301, -1017, -1094, -464, -51, 275, 284, 501, 286, 510, 620, 677, 389, 461
689422782, -8629, 7757, 10694, -4410, 2301, -1017, -1094, -464, -51, 275, 284, 501, 286, 510, 620, 677, 389, 461
689436233, -8579, 7788, 10759, -4291, 2323, -1517, -1140, -490, -138, 380, 284, 501, 286, 510, 620, 677, 389, 461
689437096, -8579, 7788, 10759, -4291, 2323, -1517, -1140, -490, -138, 380, 255, 500, 267, 497, 611, 667, 378, 410
689437856, -8579, 7788, 10759, -4291, 2323, -1517, -1140, -490, -138, 380, 255, 500, 267, 497, 611, 667, 378, 410
689458704, -8545, 7798, 10806, -4224, 2294, -1678, -1244, -160, -175, 420, 255, 500, 267, 497, 611, 667, 378, 410
689459528, -8545, 7798, 10806, -4224, 2294, -1678, -1244, -160, -175, 420, 230, 437, 243, 493, 622, 664, 373, 368
689460337, -8545, 7798, 10806, -4224, 2294, -1678, -1244, -160, -175, 420, 230, 437, 243, 493, 622, 664, 373, 368
689481192, -8525, 7799, 10847, -4155, 2219, -1594, -1261, -79, -102, 350, 230, 437, 243, 493, 622, 664, 373, 368
689481981, -8525, 7799, 10847, -4155, 2219, -1594, -1261, -79, -102, 350, 220, 506, 219, 466, 538, 563, 335, 294
689482828, -8525, 7799, 10847, -4155, 2219, -1594, -1261, -79, -102, 350, 220, 506, 219, 466, 538, 563, 335, 294
689496245, -8504, 7837, 10882, -4035, 2180, -1588, -1204, -407, 93, 324, 220, 506, 219, 466, 538, 563, 335, 294
689497065, -8504, 7837, 10882, -4035, 2180, -1588, -1204, -407, 93, 324, 205, 500, 238, 500, 522, 364, 214, 249
689497849, -8504, 7837, 10882, -4035, 2180, -1588, -1204, -407, 93, 324, 205, 500, 238, 500, 522, 364, 214, 249
689518736, -8457, 7941, 10915, -3837, 2140, -1529, -1284, -936, 312, 360, 205, 500, 238, 500, 522, 364, 214, 249
689519498, -8457, 7941, 10915, -3837, 2140, -1529, -1284, -936, 312, 360, 143, 477, 245, 485, 502, 236, 124, 151
689520314, -8457, 7941, 10915, -3837, 2140, -1529, -1284, -936, 312, 360, 143, 477, 245, 485, 502, 236, 124, 151
689541247, -8391, 8101, 10938, -3571, 2151, -1540, -1419, -1358, 539, 403, 143, 477, 245, 485, 502, 236, 124, 151
689542050, -8391, 8101, 10938, -3571, 2151, -1540, -1419, -1358, 539, 403, 135, 465, 279, 531, 525, 227, 111, 132
689542867, -8391, 8101, 10938, -3571, 2151, -1540, -1419, -1358, 539, 403, 135, 465, 279, 531, 525, 227, 111, 132
689554908, -8284, 8347, 10922, -3293, 2157, -1378, -1553, -1927, 698, 437, 135, 465, 279, 531, 525, 227, 111, 132
689563043, -8284, 8347, 10922, -3293, 2157, -1378, -1553, -1927, 698, 437, 142, 482, 301, 523, 476, 229, 114, 129
689563868, -8284, 8347, 10922, -3293, 2157, -1378, -1553, -1927, 698, 437, 142, 482, 301, 523, 476, 229, 114, 129
689577386, -8140, 8648, 10899, -2933, 2088, -1444, -1696, -2492, 879, 459, 142, 482, 301, 523, 476, 229, 114, 129
689585482, -8140, 8648, 10899, -2933, 2088, -1444, -1696, -2492, 879, 459, 132, 412, 393, 582, 580, 231, 128, 128
689586400, -8140, 8648, 10899, -2933, 2088, -1444, -1696, -2492, 879, 459, 132, 412, 393, 582, 580, 231, 128, 128
689601221, -7940, 9000, 10865, -2517, 2028, -1462, -1793, -3005, 919, 562, 132, 412, 393, 582, 580, 231, 128, 128
689601992, -7940, 9000, 10865, -2517, 2028, -1462, -1793, -3005, 919, 562, 148, 415, 405, 551, 611, 210, 120, 119
689602808, -7940, 9000, 10865, -2517, 2028, -1462, -1793, -3005, 919, 562, 148, 415, 405, 551, 611, 210, 120, 119
689614885, -7696, 9371, 10823, -2059, 2032, -1448, -2009, -3330, 927, 572, 148, 415, 405, 551, 611, 210, 120, 119
689623009, -7696, 9371, 10823, -2059, 2032, -1448, -2009, -3330, 927, 572, 145, 424, 417, 605, 622, 201, 112, 101
689623781, -7696, 9371, 10823, -2059, 2032, -1448, -2009, -3330, 927, 572, 145, 424, 417, 605, 622, 201, 112, 101
689637371, -7387, 9765, 10777, -1531, 2016, -1250, -2283, -3841, 942, 530, 145, 424, 417, 605, 622, 201, 112, 101
689645547, -7387, 9765, 10777, -1531, 2016, -1250, -2283, -3841, 942, 530, 156, 427, 490, 687, 592, 199, 121, 123
689646355, -7387, 9765, 10777, -1531, 2016, -1250, -2283, -3841, 942, 530, 156, 427, 490, 687, 592, 199, 121, 123
689661265, -7033, 10169, 10705, -979, 1910, -1437, -2419, -4117, 934, 584, 156, 427, 490, 687, 592, 199, 121, 123
689662078, -7033, 10169, 10705, -979, 1910, -1437, -2419, -4117, 934, 584, 176, 396, 546, 824, 619, 187, 121, 158
689662896, -7033, 10169, 10705, -979, 1910, -1437, -2419, -4117, 934, 584, 176, 396, 546, 824, 619, 187, 121, 158
689674835, -6686, 10546, 10597, -468, 1869, -1895, -2399, -3935, 882, 658, 176, 396, 546, 824, 619, 187, 121, 158
689683047, -6686, 10546, 10597, -468, 1869, -1895, -2399, -3935, 882, 658, 178, 504, 518, 852, 539, 172, 124, 157
689683832, -6686, 10546, 10597, -468, 1869, -1895, -2399, -3935, 882, 658, 178, 504, 518, 852, 539, 172, 124, 157
689697411, -6341, 10868, 10493, -1, 1825, -1917, -2545, -3662, 720, 526, 178, 504, 518, 852, 539, 172, 124, 157
689705483, -6341, 10868, 10493, -1, 1825, -1917, -2545, -3662, 720, 526, 167, 512, 569, 855, 514, 206, 152, 167
689706322, -6341, 10868, 10493, -1, 1825, -1917, -2545, -3662, 720, 526, 167, 512, 569, 855, 514, 206, 152, 167
689721211, -5980, 11145, 10405, 440, 1811, -1643, -2698, -3518, 534, 370, 167, 512, 569, 855, 514, 206, 152, 167
689722007, -5980, 11145, 10405, 440, 1811, -1643, -2698, -3518, 534, 370, 197, 558, 567, 858, 498, 422, 249, 178
689722832, -5980, 11145, 10405, 440, 1811, -1643, -2698, -3518, 534, 370, 197, 558, 567, 858, 498, 422, 249, 178
689734911, -5632, 11380, 10318, 850, 1880, -1489, -2806, -3275, 465, 277, 197, 558, 567, 858, 498, 422, 249, 178
689742981, -5632, 11380, 10318, 850, 1880, -1489, -2806, -3275, 465, 277, 187, 564, 506, 1001, 469, 522, 277, 171
689743837, -5632, 11380, 10318, 850, 1880, -1489, -2806, -3275, 465, 277, 187, 564, 506, 1001, 469, 522, 277, 171
689766259, -5320, 11588, 10213, 1235, 1880, -1551, -2942, -3018, 546, 297, 187, 564, 506, 1001, 469, 522, 277, 171
689767032, -5320, 11588, 10213, 1235, 1880, -1551, -2942, -3018, 546, 297, 191, 603, 473, 911, 436, 603, 323, 191
689767879, -5320, 11588, 10213, 1235, 1880, -1551, -2942, -3018, 546, 297, 191, 603, 473, 911, 436, 603, 323, 191
689781238, -5099, 11750, 10098, 1545, 1708, -1880, -3051, -2364, 627, 303, 191, 603, 473, 911, 436, 603, 323, 191
689782032, -5099, 11750, 10098, 1545, 1708, -1880, -3051, -2364, 627, 303, 185, 535, 500, 957, 440, 604, 315, 193
689782863, -5099, 11750, 10098, 1545, 1708, -1880, -3051, -2364, 627, 303, 185, 535, 500, 957, 440, 604, 315, 193
689794884, -4932, 11859, 10008, 1812, 1764, -1423, -3031, -1858, 617, 157, 185, 535, 500, 957, 440, 604, 315, 193
689803010, -4932, 11859, 10008, 1812, 1764, -1423, -3031, -1858, 617, 157, 189, 527, 458, 1042, 430, 728, 341, 192
689803807, -4932, 11859, 10008, 1812, 1764, -1423, -3031, -1858, 617, 157, 189, 527, 458, 1042, 430, 728, 341, 192
689817412, -4776, 11950, 9931, 2045, 1835, -1060, -3120, -1633, 514, 123, 189, 527, 458, 1042, 430, 728, 341, 192
689825482, -4776, 11950, 9931, 2045, 1835, -1060, -3120, -1633, 514, 123, 165, 476, 444, 1045, 439, 657, 309, 188
689826314, -4776, 11950, 9931, 2045, 1835, -1060, -3120, -1633, 514, 123, 165, 476, 444, 1045, 439, 657, 309, 188
689841184, -4601, 12052, 9845, 2251, 1851, -1245, -3333, -1661, 356, 207, 165, 476, 444, 1045, 439, 657, 309, 188
689842033, -4601, 12052, 9845, 2251, 1851, -1245, -3333, -1661, 356, 207, 182, 466, 457, 901, 468, 587, 288, 181
689842806, -4601, 12052, 9845, 2251, 1851, -1245, -3333, -1661, 356, 207, 182, 466, 457, 901, 468, 587, 288, 181
689854873, -4461, 12167, 9736, 2385, 1819, -1461, -3389, -1517, 360, 307, 182, 466, 457, 901, 468, 587, 288, 181
689863043, -4461, 12167, 9736, 2385, 1819, -1461, -3389, -1517, 360, 307, 157, 423, 432, 926, 447, 512, 235, 129
689863833, -4461, 12167, 9736, 2385, 1819, -1461, -3389, -1517, 360, 307, 157, 423, 432, 926, 447, 512, 235, 129
689877375, -4344, 12267, 9636, 2491, 1799, -1342, -3457, -1267, 349, 303, 157, 423, 432, 926, 447, 512, 235, 129
689885508, -4344, 12267, 9636, 2491, 1799, -1342, -3457, -1267, 349, 303, 158, 394, 404, 891, 445, 509, 236, 124
689886353, -4344, 12267, 9636, 2491, 1799, -1342, -3457, -1267, 349, 303, 158, 394, 404, 891, 445, 509, 236, 124
689901258, -4238, 12348, 9554, 2589, 1815, -1168, -3485, -1095, 335, 225, 158, 394, 404, 891, 445, 509, 236, 124
689902042, -4238, 12348, 9554, 2589, 1815, -1168, -3485, -1095, 335, 225, 157, 390, 414, 916, 463, 292, 181, 131
689902858, -4238, 12348, 9554, 2589, 1815, -1168, -3485, -1095, 335, 225, 157, 390, 414, 916, 463, 292, 181, 131
689914884, -4139, 12422, 9479, 2671, 1813, -1206, -3486, -1031, 283, 182, 157, 390, 414, 916, 463, 292, 181, 131
689922980, -4139, 12422, 9479, 2671, 1813, -1206, -3486, -1031, 283, 182, 155, 447, 522, 961, 465, 215, 129, 133
689923806, -4139, 12422, 9479, 2671, 1813, -1206, -3486, -1031, 283, 182, 155, 447, 522, 961, 465, 215, 129, 133
689937410, -4058, 12490, 9404, 2739, 1819, -1187, -3540, -913, 301, 194, 155, 447, 522, 961, 465, 215, 129, 133
689945495, -4058, 12490, 9404, 2739, 1819, -1187, -3540, -913, 301, 194, 141, 482, 510, 963, 464, 201, 115, 140
689946338, -4058, 12490, 9404, 2739, 1819, -1187, -3540, -913, 301, 194, 141, 482, 510, 963, 464, 201, 115, 140
689961209, -3980, 12550, 9335, 2817, 1882, -1045, -3536, -867, 325, 175, 141, 482, 510, 963, 464, 201, 115, 140
689962007, -3980, 12550, 9335, 2817, 1882, -1045, -3536, -867, 325, 175, 149, 457, 513, 985, 468, 174, 127, 149
689962835, -3980, 12550, 9335, 2817, 1882, -1045, -3536, -867, 325, 175, 149, 457, 513, 985, 468, 174, 127, 149
689974864, -3907, 12607, 9262, 2904, 1914, -991, -3525, -865, 372, 178, 149, 457, 513, 985, 468, 174, 127, 149
689982982, -3907, 12607, 9262, 2904, 1914, -991, -3525, -865, 372, 178, 145, 478, 500, 945, 473, 172, 132, 150
689983781, -3907, 12607, 9262, 2904, 1914, -991, -3525, -865, 372, 178, 145, 478, 500, 945, 473, 172, 132, 150
689997381, -3839, 12661, 9191, 2984, 1866, -1036, -3584, -854, 400, 149, 145, 478, 500, 945, 473, 172, 132, 150
690005530, -3839, 12661, 9191, 2984, 1866, -1036, -3584, -854, 400, 149, 140, 476, 505, 831, 432, 148, 125, 143
690006324, -3839, 12661, 9191, 2984, 1866, -1036, -3584, -854, 400, 149, 140, 476, 505, 831, 432, 148, 125, 143
690021199, -3771, 12704, 9133, 3065, 1869, -888, -3607, -772, 410, 92, 140, 476, 505, 831, 432, 148, 125, 143
690022036, -3771, 12704, 9133, 3065, 1869, -888, -3607, -772, 410, 92, 157, 470, 426, 794, 400, 134, 119, 131
690022893, -3771, 12704, 9133, 3065, 1869, -888, -3607, -772, 410, 92, 157, 470, 426, 794, 400, 134, 119, 131
690034866, -3704, 12736, 9081, 3166, 1948, -721, -3527, -767, 457, 52, 157, 470, 426, 794, 400, 134, 119, 131
690043004, -3704, 12736, 9081, 3166, 1948, -721, -3527, -767, 457, 52, 172, 457, 416, 780, 363, 136, 139, 149
690043807, -3704, 12736, 9081, 3166, 1948, -721, -3527, -767, 457, 52, 172, 457, 416, 780, 363, 136, 139, 149
690057401, -3625, 12776, 9016, 3279, 1969, -776, -3505, -931, 467, 72, 172, 457, 416, 780, 363, 136, 139, 149
690065479, -3625, 12776, 9016, 3279, 1969, -776, -3505, -931, 467, 72, 164, 441, 494, 800, 403, 157, 127, 139
690066340, -3625, 12776, 9016, 3279, 1969, -776, -3505, -931, 467, 72, 164, 441, 494, 800, 403, 157, 127, 139
690081170, -3559, 12816, 8952, 3371, 1937, -962, -3568, -905, 460, 36, 164, 441, 494, 800, 403, 157, 127, 139
690081984, -3559, 12816, 8952, 3371, 1937, -962, -3568, -905, 460, 36, 176, 432, 479, 797, 363, 149, 127, 140
690082781, -3559, 12816, 8952, 3371, 1937, -962, -3568, -905, 460, 36, 176, 432, 479, 797, 363, 149, 127, 140
690094859, -3515, 12840, 8911, 3433, 1928, -862, -3630, -636, 416, -31, 176, 432, 479, 797, 363, 149, 127, 140
690103002, -3515, 12840, 8911, 3433, 1928, -862, -3630, -636, 416, -31, 176, 442, 458, 827, 384, 157, 123, 130
690103782, -3515, 12840, 8911, 3433, 1928, -862, -3630, -636, 416, -31, 176, 442, 458, 827, 384, 157, 123, 130
690117386, -3485, 12854, 8883, 3482, 1981, -746, -3596, -467, 364, -50, 176, 442, 458, 827, 384, 157, 123, 130
690125510, -3485, 12854, 8883, 3482, 1981, -746, -3596, -467, 364, -50, 156, 385, 426, 797, 406, 164, 126, 133
690126316, -3485, 12854, 8883, 3482, 1981, -746, -3596, -467, 364, -50, 156, 385, 426, 797, 406, 164, 126, 133
690141161, -3445, 12883, 8844, 3517, 1945, -888, -3557, -578, 277, -7, 156, 385, 426, 797, 406, 164, 126, 133
690141980, -3445, 12883, 8844, 3517, 1945, -888, -3557, -578, 277, -7, 155, 417, 421, 712, 404, 159, 104, 98
690142778, -3445, 12883, 8844, 3517, 1945, -888, -3557, -578, 277, -7, 155, 417, 421, 712, 404, 159, 104, 98
690154863, -3421, 12915, 8806, 3518, 1923, -972, -3601, -442, 190, 33, 155, 417, 421, 712, 404, 159, 104, 98
690162989, -3421, 12915, 8806, 3518, 1923, -972, -3601, -442, 190, 33, 174, 484, 336, 645, 360, 136, 103, 97
690163844, -3421, 12915, 8806, 3518, 1923, -972, -3601, -442, 190, 33, 174, 484, 336, 645, 360, 136, 103, 97
690177386, -3412, 12934, 8794, 3486, 1938, -892, -3699, -185, 92, -40, 174, 484, 336, 645, 360, 136, 103, 97
690185522, -3412, 12934, 8794, 3486, 1938, -892, -3699, -185, 92, -40, 168, 477, 344, 769, 374, 157, 118, 91
690186310, -3412, 12934, 8794, 3486, 1938, -892, -3699, -185, 92, -40, 168, 477, 344, 769, 374, 157, 118, 91
690201212, -3403, 12950, 8787, 3451, 2044, -767, -3700, -107, 15, -12, 168, 477, 344, 769, 374, 157, 118, 91
690202007, -3403, 12950, 8787, 3451, 2044, -767, -3700, -107, 15, -12, 164, 455, 332, 753, 366, 205, 154, 99
690202848, -3403, 12950, 8787, 3451, 2044, -767, -3700, -107, 15, -12, 164, 455, 332, 753, 366, 205, 154, 99
690214860, -3371, 12982, 8764, 3422, 2021, -802, -3716, -274, -25, 60, 164, 455, 332, 753, 366, 205, 154, 99
690222973, -3371, 12982, 8764, 3422, 2021, -802, -3716, -274, -25, 60, 181, 480, 336, 744, 340, 216, 166, 101
690223789, -3371, 12982, 8764, 3422, 2021, -802, -3716, -274, -25, 60, 181, 480, 336, 744, 340, 216, 166, 101
690237364, -3365, 13012, 8741, 3373, 1932, -961, -3750, -170, 9, 57, 181, 480, 336, 744, 340, 216, 166, 101
690245475, -3365, 13012, 8741, 3373, 1932, -961, -3750, -170, 9, 57, 155, 459, 312, 729, 312, 207, 162, 102
690246267, -3365, 13012, 8741, 3373, 1932, -961, -3750, -170, 9, 57, 155, 459, 312, 729, 312, 207, 162, 102
690252496, -3387, 13017, 8748, 3312, 2013, -829, -3711, 128, -33, -46, 155, 459, 312, 729, 312, 207, 162, 102
690260448, -3387, 13017, 8748, 3312, 2013, -829, -3711, 128, -33, -46, 135, 388, 278, 687, 297, 230, 172, 107
690261272, -3387, 13017, 8748, 3312, 2013, -829, -3711, 128, -33, -46, 135, 388, 278, 687, 297, 230, 172, 107
690274864, -3389, 13017, 8765, 3262, 2048, -613, -3711, 130, -77, -67, 135, 388, 278, 687, 297, 230, 172, 107
690282973, -3389, 13017, 8765, 3262, 2048, -613, -3711, 130, -77, -67, 141, 418, 280, 529, 285, 228, 163, 99
690283768, -3389, 13017, 8765, 3262, 2048, -613, -3711, 130, -77, -67, 141, 418, 280, 529, 285, 228, 163, 99
690297333, -3381, 13036, 8758, 3213, 1977, -750, -3736, -25, -65, 42, 141, 418, 280, 529, 285, 228, 163, 99
690305536, -3381, 13036, 8758, 3213, 1977, -750, -3736, -25, -65, 42, 149, 435, 250, 488, 246, 181, 135, 92
690306312, -3381, 13036, 8758, 3213, 1977, -750, -3736, -25, -65, 42, 149, 435, 250, 488, 246, 181, 135, 92
690312499, -3399, 13054, 8750, 3145, 1915, -953, -3736, 65, -56, 42, 149, 435, 250, 488, 246, 181, 135, 92
690320456, -3399, 13054, 8750, 3145, 1915, -953, -3736, 65, -56, 42, 129, 425, 222, 428, 221, 158, 117, 91
690321323, -3399, 13054, 8750, 3145, 1915, -953, -3736, 65, -56, 42, 129, 425, 222, 428, 221, 158, 117, 91
690334837, -3452, 13047, 8774, 3049, 1983, -891, -3750, 426, -127, -72, 129, 425, 222, 428, 221, 158, 117, 91
690343022, -3452, 13047, 8774, 3049, 1983, -891, -3750, 426, -127, -72, 135, 383, 212, 404, 230, 170, 118, 126
690343808, -3452, 13047, 8774, 3049, 1983, -891, -3750, 426, -127, -72, 135, 383, 212, 404, 230, 170, 118, 126
690357364, -3527, 13021, 8818, 2944, 2133, -715, -3715, 694, -198, -102, 135, 383, 212, 404, 230, 170, 118, 126
690365494, -3527, 13021, 8818, 2944, 2133, -715, -3715, 694, -198, -102, 156, 447, 198, 388, 228, 160, 102, 152
690366335, -3527, 13021, 8818, 2944, 2133, -715, -3715, 694, -198, -102, 156, 447, 198, 388, 228, 160, 102, 152
690381208, -3669, 12994, 8852, 2785, 1977, -1065, -3626, 1023, -185, -11, 156, 447, 198, 388, 228, 160, 102, 152
690382047, -3669, 12994, 8852, 2785, 1977, -1065, -3626, 1023, -185, -11, 141, 407, 143, 390, 254, 159, 92, 156
690382833, -3669, 12994, 8852, 2785, 1977, -1065, -3626, 1023, -185, -11, 141, 407, 143, 390, 254, 159, 92, 156
690394888, -3856, 12956, 8899, 2550, 1727, -1382, -3651, 1395, -282, -45, 141, 407, 143, 390, 254, 159, 92, 156
690402981, -3856, 12956, 8899, 2550, 1727, -1382, -3651, 1395, -282, -45, 168, 415, 132, 416, 248, 159, 98, 215
690403821, -3856, 12956, 8899, 2550, 1727, -1382, -3651, 1395, -282, -45, 168, 415, 132, 416, 248, 159, 98, 215
690417359, -4053, 12875, 8994, 2307, 1718, -1247, -3858, 1780, -468, -201, 168, 415, 132, 416, 248, 159, 98, 215
690425483, -4053, 12875, 8994, 2307, 1718, -1247, -3858, 1780, -468, -201, 195, 431, 133, 514, 261, 158, 94, 239
690426281, -4053, 12875, 8994, 2307, 1718, -1247, -3858, 1780, -468, -201, 195, 431, 133, 514, 261, 158, 94, 239
690441194, -4289, 12769, 9103, 2026, 1864, -1208, -3816, 2140, -544, -243, 195, 431, 133, 514, 261, 158, 94, 239
690442007, -4289, 12769, 9103, 2026, 1864, -1208, -3816, 2140, -544, -243, 194, 435, 129, 550, 285, 162, 100, 241
690442806, -4289, 12769, 9103, 2026, 1864, -1208, -3816, 2140, -544, -243, 194, 435, 129, 550, 285, 162, 100, 241
690454884, -4542, 12650, 9212, 1706, 1876, -1406, -3695, 2342, -656, -211, 194, 435, 129, 550, 285, 162, 100, 241
690462947, -4542, 12650, 9212, 1706, 1876, -1406, -3695, 2342, -656, -211, 215, 453, 131, 582, 319, 155, 95, 300
690463780, -4542, 12650, 9212, 1706, 1876, -1406, -3695, 2342, -656, -211, 215, 453, 131, 582, 319, 155, 95, 300
690477361, -4804, 12508, 9330, 1357, 1861, -1289, -3659, 2557, -764, -251, 215, 453, 131, 582, 319, 155, 95, 300
690485506, -4804, 12508, 9330, 1357, 1861, -1289, -3659, 2557, -764, -251, 256, 589, 140, 559, 286, 145, 111, 387
690486335, -4804, 12508, 9330, 1357, 1861, -1289, -3659, 2557, -764, -251, 256, 589, 140, 559, 286, 145, 111, 387
690501255, -5134, 12314, 9461, 964, 1867, -1348, -3467, 3084, -742, -364, 256, 589, 140, 559, 286, 145, 111, 387
690502039, -5134, 12314, 9461, 964, 1867, -1348, -3467, 3084, -742, -364, 255, 656, 154, 516, 313, 143, 102, 371
690502855, -5134, 12314, 9461, 964, 1867, -1348, -3467, 3084, -742, -364, 255, 656, 154, 516, 313, 143, 102, 371
690514831, -5474, 12085, 9598, 544, 1916, -1283, -3377, 3309, -834, -427, 255, 656, 154, 516, 313, 143, 102, 371
690523007, -5474, 12085, 9598, 544, 1916, -1283, -3377, 3309, -834, -427, 254, 647, 177, 440, 337, 151, 111, 367
690523782, -5474, 12085, 9598, 544, 1916, -1283, -3377, 3309, -834, -427, 254, 647, 177, 440, 337, 151, 111, 367
690537376, -5776, 11864, 9710, 143, 2021, -1090, -3262, 3106, -855, -307, 254, 647, 177, 440, 337, 151, 111, 367
690545446, -5776, 11864, 9710, 143, 2021, -1090, -3262, 3106, -855, -307, 279, 661, 179, 421, 351, 151, 112, 376
690546299, -5776, 11864, 9710, 143, 2021, -1090, -3262, 3106, -855, -307, 279, 661, 179, 421, 351, 151, 112, 376
690561214, -6040, 11670, 9783, -207, 1994, -1091, -3058, 2734, -701, -153, 279, 661, 179, 421, 351, 151, 112, 376
690562009, -6040, 11670, 9783, -207, 1994, -1091, -3058, 2734, -701, -153, 262, 616, 181, 437, 328, 141, 118, 407
690562807, -6040, 11670, 9783, -207, 1994, -1091, -3058, 2734, -701, -153, 262, 616, 181, 437, 328, 141, 118, 407
