Timestamp, Orientation x, Orientation y, Orientation z, Orientation w, Acceleration x, Acceleration y, Acceleration z, Rotation x, Rotation y, Rotation z, EMG 0, EMG 1, EMG 2, EMG 3, EMG 4, EMG 5, EMG 6, EMG 7
897576228, -8298, 249, 14057, -1387, 3826, -895, -2089, -48, -269, 256, 0, 0, 0, 0, 0, 0, 0, 0
897576981, -8247, 351, 14085, -1383, 3746, -877, -2142, -361, -245, 424, 0, 0, 0, 0, 0, 0, 0, 0
897582983, -8194, 529, 14113, -1358, 3700, -998, -2250, -695, -179, 691, 0, 0, 0, 0, 0, 0, 0, 0
897605503, -8121, 750, 14145, -1362, 3699, -1254, -2389, -722, -232, 892, 0, 0, 0, 0, 0, 0, 0, 0
897628001, -7998, 1014, 14192, -1421, 3760, -1316, -2409, -594, -564, 1311, 0, 0, 0, 0, 0, 0, 0, 0
897635431, -7998, 1014, 14192, -1421, 3760, -1316, -2409, -594, -564, 1311, 221, 464, 710, 242, 147, 290, 197, 191
897643651, -7998, 1014, 14192, -1421, 3760, -1316, -2409, -594, -564, 1311, 221, 464, 710, 242, 147, 290, 197, 191
897644620, -7824, 1303, 14255, -1515, 3654, -1437, -2421, -445, -901, 1678, 221, 464, 710, 242, 147, 290, 197, 191
897658631, -7824, 1303, 14255, -1515, 3654, -1437, -2421, -445, -901, 1678, 240, 537, 691, 235, 144, 262, 196, 185
897659443, -7824, 1303, 14255, -1515, 3654, -1437, -2421, -445, -901, 1678, 240, 537, 691, 235, 144, 262, 196, 185
897665632, -7588, 1670, 14330, -1646, 3525, -1587, -2486, -517, -1214, 2188, 240, 537, 691, 235, 144, 262, 196, 185
897681129, -7588, 1670, 14330, -1646, 3525, -1587, -2486, -517, -1214, 2188, 258, 598, 684, 249, 130, 210, 186, 204
897681908, -7588, 1670, 14330, -1646, 3525, -1587, -2486, -517, -1214, 2188, 258, 598, 684, 249, 130, 210, 186, 204
897688100, -7306, 2108, 14396, -1833, 3540, -2081, -2519, -476, -1440, 2684, 258, 598, 684, 249, 130, 210, 186, 204
897704257, -7306, 2108, 14396, -1833, 3540, -2081, -2519, -476, -1440, 2684, 251, 531, 676, 250, 129, 142, 160, 191
897705098, -7306, 2108, 14396, -1833, 3540, -2081, -2519, -476, -1440, 2684, 251, 531, 676, 250, 129, 142, 160, 191
897706009, -6979, 2564, 14452, -2067, 3481, -2159, -2787, -300, -1647, 2948, 251, 531, 676, 250, 129, 142, 160, 191
897718647, -6979, 2564, 14452, -2067, 3481, -2159, -2787, -300, -1647, 2948, 213, 523, 647, 247, 132, 125, 135, 151
897719390, -6979, 2564, 14452, -2067, 3481, -2159, -2787, -300, -1647, 2948, 213, 523, 647, 247, 132, 125, 135, 151
897725559, -6627, 3026, 14491, -2316, 3504, -2043, -2944, -220, -1763, 3096, 213, 523, 647, 247, 132, 125, 135, 151
897741057, -6627, 3026, 14491, -2316, 3504, -2043, -2944, -220, -1763, 3096, 198, 493, 636, 266, 135, 89, 123, 147
897741884, -6627, 3026, 14491, -2316, 3504, -2043, -2944, -220, -1763, 3096, 198, 493, 636, 266, 135, 89, 123, 147
897748053, -6272, 3469, 14503, -2592, 3555, -2026, -3037, -15, -1786, 3136, 198, 493, 636, 266, 135, 89, 123, 147
897764301, -6272, 3469, 14503, -2592, 3555, -2026, -3037, -15, -1786, 3136, 248, 494, 693, 281, 138, 88, 122, 154
897765075, -6272, 3469, 14503, -2592, 3555, -2026, -3037, -15, -1786, 3136, 248, 494, 693, 281, 138, 88, 122, 154
897766035, -5927, 3919, 14481, -2872, 3579, -2006, -3025, 36, -1598, 3159, 248, 494, 693, 281, 138, 88, 122, 154
897778662, -5927, 3919, 14481, -2872, 3579, -2006, -3025, 36, -1598, 3159, 238, 444, 656, 263, 135, 73, 94, 130
897779435, -5927, 3919, 14481, -2872, 3579, -2006, -3025, 36, -1598, 3159, 238, 444, 656, 263, 135, 73, 94, 130
897785631, -5628, 4351, 14429, -3104, 3499, -2075, -3003, -58, -1383, 3075, 238, 444, 656, 263, 135, 73, 94, 130
897801129, -5628, 4351, 14429, -3104, 3499, -2075, -3003, -58, -1383, 3075, 256, 450, 592, 260, 123, 64, 90, 126
897801907, -5628, 4351, 14429, -3104, 3499, -2075, -3003, -58, -1383, 3075, 256, 450, 592, 260, 123, 64, 90, 126
897808073, -5350, 4755, 14360, -3314, 3455, -1965, -2899, -55, -1270, 2929, 256, 450, 592, 260, 123, 64, 90, 126
897824256, -5350, 4755, 14360, -3314, 3455, -1965, -2899, -55, -1270, 2929, 249, 446, 596, 249, 117, 57, 85, 121
897825084, -5350, 4755, 14360, -3314, 3455, -1965, -2899, -55, -1270, 2929, 249, 446, 596, 249, 117, 57, 85, 121
897826008, -5097, 5123, 14279, -3512, 3547, -1859, -2823, 18, -1189, 2753, 249, 446, 596, 249, 117, 57, 85, 121
897838660, -5097, 5123, 14279, -3512, 3547, -1859, -2823, 18, -1189, 2753, 246, 465, 626, 237, 117, 56, 82, 117
897839406, -5097, 5123, 14279, -3512, 3547, -1859, -2823, 18, -1189, 2753, 246, 465, 626, 237, 117, 56, 82, 117
897845577, -4871, 5447, 14191, -3695, 3476, -1885, -2841, 83, -1083, 2510, 246, 465, 626, 237, 117, 56, 82, 117
897861086, -4871, 5447, 14191, -3695, 3476, -1885, -2841, 83, -1083, 2510, 182, 417, 611, 226, 118, 62, 67, 81
897861881, -4871, 5447, 14191, -3695, 3476, -1885, -2841, 83, -1083, 2510, 182, 417, 611, 226, 118, 62, 67, 81
897868060, -4681, 5738, 14088, -3888, 3372, -1817, -2758, 282, -953, 2361, 182, 417, 611, 226, 118, 62, 67, 81
897884282, -4681, 5738, 14088, -3888, 3372, -1817, -2758, 282, -953, 2361, 199, 437, 599, 263, 122, 68, 72, 85
897885105, -4681, 5738, 14088, -3888, 3372, -1817, -2758, 282, -953, 2361, 199, 437, 599, 263, 122, 68, 72, 85
897886034, -4522, 5996, 13983, -4062, 3291, -1752, -2703, 313, -808, 2146, 199, 437, 599, 263, 122, 68, 72, 85
897898568, -4522, 5996, 13983, -4062, 3291, -1752, -2703, 313, -808, 2146, 176, 403, 595, 238, 122, 65, 67, 84
897899364, -4522, 5996, 13983, -4062, 3291, -1752, -2703, 313, -808, 2146, 176, 403, 595, 238, 122, 65, 67, 84
897905509, -4397, 6223, 13879, -4211, 3215, -1551, -2613, 327, -655, 1927, 176, 403, 595, 238, 122, 65, 67, 84
897921117, -4397, 6223, 13879, -4211, 3215, -1551, -2613, 327, -655, 1927, 198, 493, 681, 263, 129, 66, 63, 88
897921907, -4397, 6223, 13879, -4211, 3215, -1551, -2613, 327, -655, 1927, 198, 493, 681, 263, 129, 66, 63, 88
897928100, -4292, 6434, 13775, -4341, 3161, -1424, -2493, 311, -543, 1802, 198, 493, 681, 263, 129, 66, 63, 88
897943647, -4292, 6434, 13775, -4341, 3161, -1424, -2493, 311, -543, 1802, 213, 520, 680, 254, 133, 74, 72, 100
897944410, -4292, 6434, 13775, -4341, 3161, -1424, -2493, 311, -543, 1802, 213, 520, 680, 254, 133, 74, 72, 100
897965492, -4193, 6634, 13673, -4458, 3037, -1282, -2424, 283, -507, 1719, 213, 520, 680, 254, 133, 74, 72, 100
897974284, -4093, 6824, 13577, -4557, 2910, -1293, -2376, 202, -488, 1631, 213, 520, 680, 254, 133, 74, 72, 100
897975151, -4093, 6824, 13577, -4557, 2910, -1293, -2376, 202, -488, 1631, 242, 522, 624, 281, 148, 66, 71, 107
897975934, -4093, 6824, 13577, -4557, 2910, -1293, -2376, 202, -488, 1631, 242, 522, 624, 281, 148, 66, 71, 107
897981192, -4093, 6824, 13577, -4557, 2910, -1293, -2376, 202, -488, 1631, 235, 479, 631, 263, 146, 63, 71, 110
897982008, -4093, 6824, 13577, -4557, 2910, -1293, -2376, 202, -488, 1631, 235, 479, 631, 263, 146, 63, 71, 110
897989244, -4093, 6824, 13577, -4557, 2910, -1293, -2376, 202, -488, 1631, 235, 479, 631, 263, 146, 63, 71, 110
897990057, -4093, 6824, 13577, -4557, 2910, -1293, -2376, 202, -488, 1631, 235, 479, 631, 263, 146, 63, 71, 110
897990896, -4093, 6824, 13577, -4557, 2910, -1293, -2376, 202, -488, 1631, 235, 479, 631, 263, 146, 63, 71, 110
897995534, -4117, 6942, 13518, -4534, 2784, -1241, -2349, 262, -446, 1528, 235, 479, 631, 263, 146, 63, 71, 110
898003660, -4117, 6942, 13518, -4534, 2784, -1241, -2349, 262, -446, 1528, 246, 476, 653, 271, 161, 90, 80, 135
898004409, -4117, 6942, 13518, -4534, 2784, -1241, -2349, 262, -446, 1528, 246, 476, 653, 271, 161, 90, 80, 135
898010599, -4136, 7058, 13470, -4480, 2714, -1072, -2310, 144, -392, 1442, 246, 476, 653, 271, 161, 90, 80, 135
898018664, -4136, 7058, 13470, -4480, 2714, -1072, -2310, 144, -392, 1442, 239, 415, 580, 273, 195, 115, 84, 134
898019415, -4136, 7058, 13470, -4480, 2714, -1072, -2310, 144, -392, 1442, 239, 415, 580, 273, 195, 115, 84, 134
898032965, -4116, 7177, 13437, -4407, 2271, -874, -2213, -42, -386, 1302, 239, 415, 580, 273, 195, 115, 84, 134
898041082, -4116, 7177, 13437, -4407, 2271, -874, -2213, -42, -386, 1302, 262, 441, 677, 346, 211, 129, 92, 146
898041918, -4116, 7177, 13437, -4407, 2271, -874, -2213, -42, -386, 1302, 262, 441, 677, 346, 211, 129, 92, 146
898055436, -4114, 7310, 13395, -4317, 2180, -1175, -1933, -308, -226, 1270, 262, 441, 677, 346, 211, 129, 92, 146
898063631, -4114, 7310, 13395, -4317, 2180, -1175, -1933, -308, -226, 1270, 273, 483, 753, 338, 216, 132, 98, 167
898064376, -4114, 7310, 13395, -4317, 2180, -1175, -1933, -308, -226, 1270, 273, 483, 753, 338, 216, 132, 98, 167
898070556, -4068, 7439, 13352, -4274, 1758, -1192, -2576, 17, -326, 1234, 273, 483, 753, 338, 216, 132, 98, 167
898078664, -4068, 7439, 13352, -4274, 1758, -1192, -2576, 17, -326, 1234, 276, 499, 758, 371, 244, 134, 101, 194
898079409, -4068, 7439, 13352, -4274, 1758, -1192, -2576, 17, -326, 1234, 276, 499, 758, 371, 244, 134, 101, 194
898092917, -4083, 7511, 13328, -4208, 3025, -1007, -2427, 134, -648, 1272, 276, 499, 758, 371, 244, 134, 101, 194
898101082, -4083, 7511, 13328, -4208, 3025, -1007, -2427, 134, -648, 1272, 283, 537, 785, 398, 269, 177, 118, 208
898101929, -4083, 7511, 13328, -4208, 3025, -1007, -2427, 134, -648, 1272, 283, 537, 785, 398, 269, 177, 118, 208
898108058, -4007, 7623, 13290, -4199, 1024, -1091, -2092, -47, -345, 969, 283, 537, 785, 398, 269, 177, 118, 208
898123659, -4007, 7623, 13290, -4199, 1024, -1091, -2092, -47, -345, 969, 280, 527, 785, 480, 290, 189, 120, 212
898124384, -4007, 7623, 13290, -4199, 1024, -1091, -2092, -47, -345, 969, 280, 527, 785, 480, 290, 189, 120, 212
898130562, -4015, 7662, 13303, -4076, 3213, -882, -2120, -229, -753, 1016, 280, 527, 785, 480, 290, 189, 120, 212
898138632, -4015, 7662, 13303, -4076, 3213, -882, -2120, -229, -753, 1016, 263, 549, 710, 455, 296, 185, 110, 206
898139450, -4015, 7662, 13303, -4076, 3213, -882, -2120, -229, -753, 1016, 263, 549, 710, 455, 296, 185, 110, 206
898152932, -3889, 7749, 13329, -3949, 1531, -629, -3282, -204, -516, 805, 263, 549, 710, 455, 296, 185, 110, 206
898161109, -3889, 7749, 13329, -3949, 1531, -629, -3282, -204, -516, 805, 214, 488, 620, 495, 290, 191, 109, 188
898161882, -3889, 7749, 13329, -3949, 1531, -629, -3282, -204, -516, 805, 214, 488, 620, 495, 290, 191, 109, 188
898178186, -3777, 7847, 13307, -3940, 536, -1367, -2109, -313, -387, 718, 214, 488, 620, 495, 290, 191, 109, 188
898178984, -3777, 7847, 13307, -3940, 536, -1367, -2109, -313, -387, 718, 214, 488, 620, 495, 290, 191, 109, 188
898179810, -3777, 7847, 13307, -3940, 536, -1367, -2109, -313, -387, 718, 199, 437, 599, 263, 122, 68, 72, 85
898180708, -3777, 7847, 13307, -3940, 536, -1367, -2109, -313, -387, 718, 199, 437, 599, 263, 122, 68, 72, 85
898185695, -4522, 5996, 13983, -4062, 3291, -1752, -2703, 313, -808, 2146, 199, 437, 599, 263, 122, 68, 72, 85
898186489, -4522, 5996, 13983, -4062, 3291, -1752, -2703, 313, -808, 2146, 176, 403, 595, 238, 122, 65, 67, 84
898187315, -4522, 5996, 13983, -4062, 3291, -1752, -2703, 313, -808, 2146, 176, 403, 595, 238, 122, 65, 67, 84
898188131, -4522, 5996, 13983, -4062, 3291, -1752, -2703, 313, -808, 2146, 176, 403, 595, 238, 122, 65, 67, 84
898193083, -4522, 5996, 13983, -4062, 3291, -1752, -2703, 313, -808, 2146, 176, 403, 595, 238, 122, 65, 67, 84
898193880, -4522, 5996, 13983, -4062, 3291, -1752, -2703, 313, -808, 2146, 176, 403, 595, 238, 122, 65, 67, 84
898194744, -4522, 5996, 13983, -4062, 3291, -1752, -2703, 313, -808, 2146, 176, 403, 595, 238, 122, 65, 67, 84
898195509, -4522, 5996, 13983, -4062, 3291, -1752, -2703, 313, -808, 2146, 176, 403, 595, 238, 122, 65, 67, 84
898200640, -4522, 5996, 13983, -4062, 3291, -1752, -2703, 313, -808, 2146, 176, 403, 595, 238, 122, 65, 67, 84
898201553, -4397, 6223, 13879, -4211, 3215, -1551, -2613, 327, -655, 1927, 176, 403, 595, 238, 122, 65, 67, 84
898202337, -4397, 6223, 13879, -4211, 3215, -1551, -2613, 327, -655, 1927, 198, 493, 681, 263, 129, 66, 63, 88
898203196, -4397, 6223, 13879, -4211, 3215, -1551, -2613, 327, -655, 1927, 198, 493, 681, 263, 129, 66, 63, 88
898208156, -4397, 6223, 13879, -4211, 3215, -1551, -2613, 327, -655, 1927, 198, 493, 681, 263, 129, 66, 63, 88
898209004, -4397, 6223, 13879, -4211, 3215, -1551, -2613, 327, -655, 1927, 198, 493, 681, 263, 129, 66, 63, 88
898209782, -4397, 6223, 13879, -4211, 3215, -1551, -2613, 327, -655, 1927, 198, 493, 681, 263, 129, 66, 63, 88
898210622, -4397, 6223, 13879, -4211, 3215, -1551, -2613, 327, -655, 1927, 198, 493, 681, 263, 129, 66, 63, 88
898215532, -4397, 6223, 13879, -4211, 3215, -1551, -2613, 327, -655, 1927, 198, 493, 681, 263, 129, 66, 63, 88
898216331, -4397, 6223, 13879, -4211, 3215, -1551, -2613, 327, -655, 1927, 198, 493, 681, 263, 129, 66, 63, 88
898217156, -4397, 6223, 13879, -4211, 3215, -1551, -2613, 327, -655, 1927, 198, 493, 681, 263, 129, 66, 63, 88
898217956, -4397, 6223, 13879, -4211, 3215, -1551, -2613, 327, -655, 1927, 198, 493, 681, 263, 129, 66, 63, 88
898223052, -4397, 6223, 13879, -4211, 3215, -1551, -2613, 327, -655, 1927, 198, 493, 681, 263, 129, 66, 63, 88
898224016, -4292, 6434, 13775, -4341, 3161, -1424, -2493, 311, -543, 1802, 198, 493, 681, 263, 129, 66, 63, 88
898224798, -4292, 6434, 13775, -4341, 3161, -1424, -2493, 311, -543, 1802, 213, 520, 680, 254, 133, 74, 72, 100
898225627, -4292, 6434, 13775, -4341, 3161, -1424, -2493, 311, -543, 1802, 213, 520, 680, 254, 133, 74, 72, 100
898230635, -4292, 6434, 13775, -4341, 3161, -1424, -2493, 311, -543, 1802, 213, 520, 680, 254, 133, 74, 72, 100
898231479, -4292, 6434, 13775, -4341, 3161, -1424, -2493, 311, -543, 1802, 213, 520, 680, 254, 133, 74, 72, 100
898232256, -4292, 6434, 13775, -4341, 3161, -1424, -2493, 311, -543, 1802, 213, 520, 680, 254, 133, 74, 72, 100
898233122, -4292, 6434, 13775, -4341, 3161, -1424, -2493, 311, -543, 1802, 213, 520, 680, 254, 133, 74, 72, 100
898238031, -4292, 6434, 13775, -4341, 3161, -1424, -2493, 311, -543, 1802, 213, 520, 680, 254, 133, 74, 72, 100
898238871, -4292, 6434, 13775, -4341, 3161, -1424, -2493, 311, -543, 1802, 213, 520, 680, 254, 133, 74, 72, 100
898239657, -4292, 6434, 13775, -4341, 3161, -1424, -2493, 311, -543, 1802, 213, 520, 680, 254, 133, 74, 72, 100
898240500, -4292, 6434, 13775, -4341, 3161, -1424, -2493, 311, -543, 1802, 213, 520, 680, 254, 133, 74, 72, 100
898245634, -4292, 6434, 13775, -4341, 3161, -1424, -2493, 311, -543, 1802, 213, 520, 680, 254, 133, 74, 72, 100
898246576, -4193, 6634, 13673, -4458, 3037, -1282, -2424, 283, -507, 1719, 213, 520, 680, 254, 133, 74, 72, 100
898247359, -4093, 6824, 13577, -4557, 2910, -1293, -2376, 202, -488, 1631, 213, 520, 680, 254, 133, 74, 72, 100
898248194, -4093, 6824, 13577, -4557, 2910, -1293, -2376, 202, -488, 1631, 242, 522, 624, 281, 148, 66, 71, 107
898253168, -4093, 6824, 13577, -4557, 2910, -1293, -2376, 202, -488, 1631, 242, 522, 624, 281, 148, 66, 71, 107
898253955, -4093, 6824, 13577, -4557, 2910, -1293, -2376, 202, -488, 1631, 242, 522, 624, 281, 148, 66, 71, 107
898254756, -4093, 6824, 13577, -4557, 2910, -1293, -2376, 202, -488, 1631, 242, 522, 624, 281, 148, 66, 71, 107
898255655, -4093, 6824, 13577, -4557, 2910, -1293, -2376, 202, -488, 1631, 242, 522, 624, 281, 148, 66, 71, 107
898260676, -4093, 6824, 13577, -4557, 2910, -1293, -2376, 202, -488, 1631, 242, 522, 624, 281, 148, 66, 71, 107
898261397, -4093, 6824, 13577, -4557, 2910, -1293, -2376, 202, -488, 1631, 242, 522, 624, 281, 148, 66, 71, 107
898262206, -4093, 6824, 13577, -4557, 2910, -1293, -2376, 202, -488, 1631, 242, 522, 624, 281, 148, 66, 71, 107
898263072, -4093, 6824, 13577, -4557, 2910, -1293, -2376, 202, -488, 1631, 242, 522, 624, 281, 148, 66, 71, 107
898268064, -4093, 6824, 13577, -4557, 2910, -1293, -2376, 202, -488, 1631, 242, 522, 624, 281, 148, 66, 71, 107
898268975, -4093, 6824, 13577, -4557, 2910, -1293, -2376, 202, -488, 1631, 235, 479, 631, 263, 146, 63, 71, 110
898269740, -4093, 6824, 13577, -4557, 2910, -1293, -2376, 202, -488, 1631, 235, 479, 631, 263, 146, 63, 71, 110
898270607, -4093, 6824, 13577, -4557, 2910, -1293, -2376, 202, -488, 1631, 235, 479, 631, 263, 146, 63, 71, 110
898275658, -4093, 6824, 13577, -4557, 2910, -1293, -2376, 202, -488, 1631, 235, 479, 631, 263, 146, 63, 71, 110
898276486, -4093, 6824, 13577, -4557, 2910, -1293, -2376, 202, -488, 1631, 235, 479, 631, 263, 146, 63, 71, 110
898277281, -4093, 6824, 13577, -4557, 2910, -1293, -2376, 202, -488, 1631, 235, 479, 631, 263, 146, 63, 71, 110
898278111, -4093, 6824, 13577, -4557, 2910, -1293, -2376, 202, -488, 1631, 235, 479, 631, 263, 146, 63, 71, 110
898283107, -4093, 6824, 13577, -4557, 2910, -1293, -2376, 202, -488, 1631, 235, 479, 631, 263, 146, 63, 71, 110
898283948, -4093, 6824, 13577, -4557, 2910, -1293, -2376, 202, -488, 1631, 235, 479, 631, 263, 146, 63, 71, 110
898284731, -4093, 6824, 13577, -4557, 2910, -1293, -2376, 202, -488, 1631, 235, 479, 631, 263, 146, 63, 71, 110
898285531, -4093, 6824, 13577, -4557, 2910, -1293, -2376, 202, -488, 1631, 235, 479, 631, 263, 146, 63, 71, 110
898290682, -4117, 6942, 13518, -4534, 2784, -1241, -2349, 262, -446, 1528, 235, 479, 631, 263, 146, 63, 71, 110
898291526, -4117, 6942, 13518, -4534, 2784, -1241, -2349, 262, -446, 1528, 246, 476, 653, 271, 161, 90, 80, 135
898292312, -4117, 6942, 13518, -4534, 2784, -1241, -2349, 262, -446, 1528, 246, 476, 653, 271, 161, 90, 80, 135
898293147, -4117, 6942, 13518, -4534, 2784, -1241, -2349, 262, -446, 1528, 246, 476, 653, 271, 161, 90, 80, 135
898298079, -4117, 6942, 13518, -4534, 2784, -1241, -2349, 262, -446, 1528, 246, 476, 653, 271, 161, 90, 80, 135
898298892, -4117, 6942, 13518, -4534, 2784, -1241, -2349, 262, -446, 1528, 246, 476, 653, 271, 161, 90, 80, 135
898299681, -4117, 6942, 13518, -4534, 2784, -1241, -2349, 262, -446, 1528, 246, 476, 653, 271, 161, 90, 80, 135
898300536, -4117, 6942, 13518, -4534, 2784, -1241, -2349, 262, -446, 1528, 246, 476, 653, 271, 161, 90, 80, 135
898305647, -4117, 6942, 13518, -4534, 2784, -1241, -2349, 262, -446, 1528, 246, 476, 653, 271, 161, 90, 80, 135
898306512, -4136, 7058, 13470, -4480, 2714, -1072, -2310, 144, -392, 1442, 246, 476, 653, 271, 161, 90, 80, 135
898307328, -4136, 7058, 13470, -4480, 2714, -1072, -2310, 144, -392, 1442, 239, 415, 580, 273, 195, 115, 84, 134
898308106, -4136, 7058, 13470, -4480, 2714, -1072, -2310, 144, -392, 1442, 239, 415, 580, 273, 195, 115, 84, 134
898313131, -4136, 7058, 13470, -4480, 2714, -1072, -2310, 144, -392, 1442, 239, 415, 580, 273, 195, 115, 84, 134
898313949, -4136, 7058, 13470, -4480, 2714, -1072, -2310, 144, -392, 1442, 239, 415, 580, 273, 195, 115, 84, 134
898314771, -4136, 7058, 13470, -4480, 2714, -1072, -2310, 144, -392, 1442, 239, 415, 580, 273, 195, 115, 84, 134
898315605, -4136, 7058, 13470, -4480, 2714, -1072, -2310, 144, -392, 1442, 239, 415, 580, 273, 195, 115, 84, 134
898320525, -4136, 7058, 13470, -4480, 2714, -1072, -2310, 144, -392, 1442, 239, 415, 580, 273, 195, 115, 84, 134
898321331, -4136, 7058, 13470, -4480, 2714, -1072, -2310, 144, -392, 1442, 239, 415, 580, 273, 195, 115, 84, 134
898322156, -4136, 7058, 13470, -4480, 2714, -1072, -2310, 144, -392, 1442, 239, 415, 580, 273, 195, 115, 84, 134
898322956, -4136, 7058, 13470, -4480, 2714, -1072, -2310, 144, -392, 1442, 239, 415, 580, 273, 195, 115, 84, 134
898328048, -4136, 7058, 13470, -4480, 2714, -1072, -2310, 144, -392, 1442, 239, 415, 580, 273, 195, 115, 84, 134
898328973, -4116, 7177, 13437, -4407, 2271, -874, -2213, -42, -386, 1302, 239, 415, 580, 273, 195, 115, 84, 134
898329780, -4116, 7177, 13437, -4407, 2271, -874, -2213, -42, -386, 1302, 262, 441, 677, 346, 211, 129, 92, 146
898330605, -4116, 7177, 13437, -4407, 2271, -874, -2213, -42, -386, 1302, 262, 441, 677, 346, 211, 129, 92, 146
898334975, -4116, 7177, 13437, -4407, 2271, -874, -2213, -42, -386, 1302, 262, 441, 677, 346, 211, 129, 92, 146
898335778, -4116, 7177, 13437, -4407, 2271, -874, -2213, -42, -386, 1302, 262, 441, 677, 346, 211, 129, 92, 146
898336631, -4116, 7177, 13437, -4407, 2271, -874, -2213, -42, -386, 1302, 262, 441, 677, 346, 211, 129, 92, 146
898337471, -4116, 7177, 13437, -4407, 2271, -874, -2213, -42, -386, 1302, 262, 441, 677, 346, 211, 129, 92, 146
898341058, -4116, 7177, 13437, -4407, 2271, -874, -2213, -42, -386, 1302, 150, 331, 449, 349, 164, 110, 77, 91
898341897, -4116, 7177, 13437, -4407, 2271, -874, -2213, -42, -386, 1302, 150, 331, 449, 349, 164, 110, 77, 91
898355450, -3984, 7751, 13456, -3376, 941, -1694, -2006, -308, 290, -247, 150, 331, 449, 349, 164, 110, 77, 91
898363540, -3984, 7751, 13456, -3376, 941, -1694, -2006, -308, 290, -247, 164, 354, 356, 317, 151, 89, 74, 91
898364385, -3984, 7751, 13456, -3376, 941, -1694, -2006, -308, 290, -247, 164, 354, 356, 317, 151, 89, 74, 91
898370508, -4039, 7709, 13494, -3254, 1374, -1318, -3052, -35, 237, -256, 164, 354, 356, 317, 151, 89, 74, 91
898378597, -4039, 7709, 13494, -3254, 1374, -1318, -3052, -35, 237, -256, 157, 328, 322, 380, 145, 80, 76, 85
898379358, -4039, 7709, 13494, -3254, 1374, -1318, -3052, -35, 237, -256, 157, 328, 322, 380, 145, 80, 76, 85
898392946, -4125, 7655, 13531, -3119, 2278, -1553, -2467, -304, -51, -134, 157, 328, 322, 380, 145, 80, 76, 85
898401031, -4125, 7655, 13531, -3119, 2278, -1553, -2467, -304, -51, -134, 155, 313, 299, 360, 130, 86, 81, 87
898401869, -4125, 7655, 13531, -3119, 2278, -1553, -2467, -304, -51, -134, 155, 313, 299, 360, 130, 86, 81, 87
898408036, -4155, 7651, 13538, -3057, 449, -1754, -2431, -255, 418, -260, 155, 313, 299, 360, 130, 86, 81, 87
898423564, -4155, 7651, 13538, -3057, 449, -1754, -2431, -255, 418, -260, 177, 372, 293, 353, 122, 83, 75, 77
898424357, -4155, 7651, 13538, -3057, 449, -1754, -2431, -255, 418, -260, 177, 372, 293, 353, 122, 83, 75, 77
898445481, -4266, 7594, 13566, -2919, 2678, -1547, -2829, -143, -13, -73, 177, 372, 293, 353, 122, 83, 75, 77
898454248, -4323, 7570, 13573, -2865, 854, -1761, -2359, -154, 353, -281, 177, 372, 293, 353, 122, 83, 75, 77
898455068, -4323, 7570, 13573, -2865, 854, -1761, -2359, -154, 353, -281, 172, 361, 284, 351, 117, 90, 69, 70
898455856, -4323, 7570, 13573, -2865, 854, -1761, -2359, -154, 353, -281, 172, 361, 284, 351, 117, 90, 69, 70
898469312, -4354, 7532, 13597, -2802, 1487, -1641, -2898, -60, 29, -179, 172, 361, 284, 351, 117, 90, 69, 70
898470106, -4354, 7532, 13597, -2802, 1487, -1641, -2898, -60, 29, -179, 153, 332, 339, 338, 120, 129, 95, 76
898470936, -4354, 7532, 13597, -2802, 1487, -1641, -2898, -60, 29, -179, 153, 332, 339, 338, 120, 129, 95, 76
898483531, -4354, 7532, 13597, -2802, 1487, -1641, -2898, -60, 29, -179, 154, 304, 332, 285, 153, 174, 121, 94
898484397, -4354, 7532, 13597, -2802, 1487, -1641, -2898, -60, 29, -179, 154, 304, 332, 285, 153, 174, 121, 94
898490518, -4476, 7501, 13592, -2715, 1569, -1661, -2280, -113, 451, -199, 154, 304, 332, 285, 153, 174, 121, 94
898498585, -4476, 7501, 13592, -2715, 1569, -1661, -2280, -113, 451, -199, 155, 315, 338, 315, 159, 181, 127, 95
898499368, -4476, 7501, 13592, -2715, 1569, -1661, -2280, -113, 451, -199, 155, 315, 338, 315, 159, 181, 127, 95
898512950, -4566, 7480, 13590, -2634, 1668, -1807, -2222, -263, 261, -132, 155, 315, 338, 315, 159, 181, 127, 95
898521049, -4566, 7480, 13590, -2634, 1668, -1807, -2222, -263, 261, -132, 136, 262, 329, 317, 155, 190, 128, 96
898521873, -4566, 7480, 13590, -2634, 1668, -1807, -2222, -263, 261, -132, 136, 262, 329, 317, 155, 190, 128, 96
898535447, -4630, 7472, 13578, -2606, 1054, -1832, -2262, -91, 327, -129, 136, 262, 329, 317, 155, 190, 128, 96
898543537, -4630, 7472, 13578, -2606, 1054, -1832, -2262, -91, 327, -129, 130, 270, 361, 317, 152, 188, 127, 94
898544388, -4630, 7472, 13578, -2606, 1054, -1832, -2262, -91, 327, -129, 130, 270, 361, 317, 152, 188, 127, 94
898550529, -4644, 7447, 13600, -2540, 1727, -1354, -3392, 128, 35, -41, 130, 270, 361, 317, 152, 188, 127, 94
898566083, -4644, 7447, 13600, -2540, 1727, -1354, -3392, 128, 35, -41, 134, 258, 288, 345, 158, 165, 108, 91
898566934, -4644, 7447, 13600, -2540, 1727, -1354, -3392, 128, 35, -41, 134, 258, 288, 345, 158, 165, 108, 91
898596116, -4699, 7442, 13588, -2515, 1607, -1869, -2028, -197, 4, 36, 134, 258, 288, 345, 158, 165, 108, 91
898596924, -4711, 7429, 13600, -2465, 1557, -1429, -3231, 105, 80, -12, 134, 258, 288, 345, 158, 165, 108, 91
898603587, -4711, 7429, 13600, -2465, 1557, -1429, -3231, 105, 80, -12, 126, 293, 278, 333, 117, 118, 82, 73
898604357, -4711, 7429, 13600, -2465, 1557, -1429, -3231, 105, 80, -12, 126, 293, 278, 333, 117, 118, 82, 73
898610531, -4788, 7425, 13582, -2431, 1653, -1679, -2421, 9, 218, 50, 126, 293, 278, 333, 117, 118, 82, 73
898618563, -4788, 7425, 13582, -2431, 1653, -1679, -2421, 9, 218, 50, 138, 294, 322, 381, 108, 98, 69, 80
898619424, -4788, 7425, 13582, -2431, 1653, -1679, -2421, 9, 218, 50, 138, 294, 322, 381, 108, 98, 69, 80
898625534, -4752, 7424, 13595, -2428, 1550, -1668, -3151, 45, -257, 108, 138, 294, 322, 381, 108, 98, 69, 80
898633575, -4752, 7424, 13595, -2428, 1550, -1668, -3151, 45, -257, 108, 137, 296, 358, 401, 110, 86, 70, 84
898634426, -4752, 7424, 13595, -2428, 1550, -1668, -3151, 45, -257, 108, 137, 296, 358, 401, 110, 86, 70, 84
898647932, -4726, 7407, 13612, -2434, 1621, -1472, -3291, 264, -259, 85, 137, 296, 358, 401, 110, 86, 70, 84
898656072, -4726, 7407, 13612, -2434, 1621, -1472, -3291, 264, -259, 85, 145, 303, 422, 444, 146, 91, 84, 98
898656930, -4726, 7407, 13612, -2434, 1621, -1472, -3291, 264, -259, 85, 145, 303, 422, 444, 146, 91, 84, 98
898663076, -4769, 7382, 13611, -2435, 2116, -1677, -2767, 204, -218, 127, 145, 303, 422, 444, 146, 91, 84, 98
898671091, -4769, 7382, 13611, -2435, 2116, -1677, -2767, 204, -218, 127, 169, 381, 517, 509, 156, 93, 87, 109
898671907, -4769, 7382, 13611, -2435, 2116, -1677, -2767, 204, -218, 127, 169, 381, 517, 509, 156, 93, 87, 109
898686056, -4769, 7382, 13611, -2435, 2116, -1677, -2767, 204, -218, 127, 186, 368, 538, 591, 170, 87, 81, 120
898686898, -4769, 7382, 13611, -2435, 2116, -1677, -2767, 204, -218, 127, 186, 368, 538, 591, 170, 87, 81, 120
898700434, -4819, 7386, 13583, -2483, 860, -1816, -2200, 209, 221, 18, 186, 368, 538, 591, 170, 87, 81, 120
898709272, -4819, 7386, 13583, -2483, 860, -1816, -2200, 209, 221, 18, 181, 362, 584, 598, 322, 123, 92, 120
898710082, -4819, 7386, 13583, -2483, 860, -1816, -2200, 209, 221, 18, 181, 362, 584, 598, 322, 123, 92, 120
898711006, -4873, 7340, 13589, -2475, 2250, -1412, -3372, 534, -89, 82, 181, 362, 584, 598, 322, 123, 92, 120
898723521, -4873, 7340, 13589, -2475, 2250, -1412, -3372, 534, -89, 82, 204, 381, 599, 685, 481, 151, 106, 142
898724341, -4873, 7340, 13589, -2475, 2250, -1412, -3372, 534, -89, 82, 204, 381, 599, 685, 481, 151, 106, 142
898730521, -4906, 7331, 13565, -2568, 480, -1881, -2287, 410, 196, -84, 204, 381, 599, 685, 481, 151, 106, 142
898746767, -4906, 7331, 13565, -2568, 480, -1881, -2287, 410, 196, -84, 234, 426, 571, 746, 556, 169, 120, 164
898747664, -4906, 7331, 13565, -2568, 480, -1881, -2287, 410, 196, -84, 234, 426, 571, 746, 556, 169, 120, 164
898748486, -5033, 7262, 13560, -2547, 2817, -1720, -2729, 415, -54, 29, 234, 426, 571, 746, 556, 169, 120, 164
898776768, -5033, 7262, 13560, -2547, 2817, -1720, -2729, 415, -54, 29, 219, 380, 518, 765, 593, 176, 122, 160
898777620, -5033, 7262, 13560, -2547, 2817, -1720, -2729, 415, -54, 29, 219, 380, 518, 765, 593, 176, 122, 160
898778463, -5053, 7214, 13571, -2584, 1302, -1787, -2996, 432, 7, -191, 219, 380, 518, 765, 593, 176, 122, 160
898784981, -5053, 7214, 13571, -2584, 1302, -1787, -2996, 432, 7, -191, 229, 405, 580, 712, 665, 410, 166, 160
898785821, -5053, 7214, 13571, -2584, 1302, -1787, -2996, 432, 7, -191, 229, 405, 580, 712, 665, 410, 166, 160
898786632, -5053, 7214, 13571, -2584, 1302, -1787, -2996, 432, 7, -191, 229, 405, 580, 712, 665, 410, 166, 160
898787439, -5053, 7214, 13571, -2584, 1302, -1787, -2996, 432, 7, -191, 229, 405, 580, 712, 665, 410, 166, 160
898791757, -5053, 7214, 13571, -2584, 1302, -1787, -2996, 432, 7, -191, 229, 405, 580, 712, 665, 410, 166, 160
898792645, -5053, 7214, 13571, -2584, 1302, -1787, -2996, 432, 7, -191, 229, 405, 580, 712, 665, 410, 166, 160
898793511, -5171, 7128, 13576, -2565, 1666, -1548, -2721, 506, 399, -386, 229, 405, 580, 712, 665, 410, 166, 160
898806774, -5171, 7128, 13576, -2565, 1666, -1548, -2721, 506, 399, -386, 232, 446, 514, 696, 709, 549, 233, 169
898807632, -5171, 7128, 13576, -2565, 1666, -1548, -2721, 506, 399, -386, 232, 446, 514, 696, 709, 549, 233, 169
898808511, -5292, 7043, 13596, -2443, 1722, -1282, -2441, 44, 581, -554, 232, 446, 514, 696, 709, 549, 233, 169
898829237, -5292, 7043, 13596, -2443, 1722, -1282, -2441, 44, 581, -554, 243, 453, 525, 642, 627, 558, 234, 157
898830036, -5292, 7043, 13596, -2443, 1722, -1282, -2441, 44, 581, -554, 243, 453, 525, 642, 627, 558, 234, 157
898830984, -5408, 6981, 13604, -2318, 1604, -1506, -2373, -140, 673, -527, 243, 453, 525, 642, 627, 558, 234, 157
898843586, -5408, 6981, 13604, -2318, 1604, -1506, -2373, -140, 673, -527, 248, 442, 490, 541, 564, 554, 225, 148
898844404, -5408, 6981, 13604, -2318, 1604, -1506, -2373, -140, 673, -527, 248, 442, 490, 541, 564, 554, 225, 148
898850560, -5522, 6923, 13600, -2247, 1645, -1673, -2395, 53, 575, -423, 248, 442, 490, 541, 564, 554, 225, 148
898866715, -5522, 6923, 13600, -2247, 1645, -1673, -2395, 53, 575, -423, 265, 520, 472, 436, 530, 557, 225, 171
898867535, -5522, 6923, 13600, -2247, 1645, -1673, -2395, 53, 575, -423, 265, 520, 472, 436, 530, 557, 225, 171
898868491, -5628, 6848, 13605, -2185, 1737, -1281, -2330, 242, 463, -397, 265, 520, 472, 436, 530, 557, 225, 171
898889231, -5628, 6848, 13605, -2185, 1737, -1281, -2330, 242, 463, -397, 245, 514, 383, 414, 440, 434, 207, 167
898890085, -5628, 6848, 13605, -2185, 1737, -1281, -2330, 242, 463, -397, 245, 514, 383, 414, 440, 434, 207, 167
898890984, -5694, 6807, 13609, -2114, 1727, -1250, -2307, 39, 339, -229, 245, 514, 383, 414, 440, 434, 207, 167
898903555, -5694, 6807, 13609, -2114, 1727, -1250, -2307, 39, 339, -229, 244, 516, 463, 391, 279, 241, 133, 162
898904390, -5694, 6807, 13609, -2114, 1727, -1250, -2307, 39, 339, -229, 244, 516, 463, 391, 279, 241, 133, 162
898910535, -5719, 6808, 13605, -2065, 1672, -1481, -2366, -105, 188, -26, 244, 516, 463, 391, 279, 241, 133, 162
898926736, -5719, 6808, 13605, -2065, 1672, -1481, -2366, -105, 188, -26, 217, 494, 414, 433, 259, 203, 123, 164
898927536, -5719, 6808, 13605, -2065, 1672, -1481, -2366, -105, 188, -26, 217, 494, 414, 433, 259, 203, 123, 164
898928526, -5704, 6811, 13611, -2057, 1650, -1523, -2510, -5, -68, 51, 217, 494, 414, 433, 259, 203, 123, 164
898949256, -5704, 6811, 13611, -2057, 1650, -1523, -2510, -5, -68, 51, 177, 468, 411, 493, 241, 196, 120, 148
898950071, -5704, 6811, 13611, -2057, 1650, -1523, -2510, -5, -68, 51, 177, 468, 411, 493, 241, 196, 120, 148
898951022, -5686, 6817, 13611, -2085, 1715, -1588, -2559, 147, -164, 157, 177, 468, 411, 493, 241, 196, 120, 148
898963542, -5686, 6817, 13611, -2085, 1715, -1588, -2559, 147, -164, 157, 158, 457, 382, 515, 231, 187, 124, 117
898964331, -5686, 6817, 13611, -2085, 1715, -1588, -2559, 147, -164, 157, 158, 457, 382, 515, 231, 187, 124, 117
898970524, -5662, 6837, 13607, -2115, 1721, -1573, -2579, 131, -188, 250, 158, 457, 382, 515, 231, 187, 124, 117
898986753, -5662, 6837, 13607, -2115, 1721, -1573, -2579, 131, -188, 250, 162, 521, 367, 546, 225, 155, 102, 109
898987535, -5662, 6837, 13607, -2115, 1721, -1573, -2579, 131, -188, 250, 162, 521, 367, 546, 225, 155, 102, 109
898988485, -5621, 6876, 13606, -2106, 1717, -1546, -2601, -114, -173, 282, 162, 521, 367, 546, 225, 155, 102, 109
899009255, -5621, 6876, 13606, -2106, 1717, -1546, -2601, -114, -173, 282, 161, 501, 321, 560, 190, 124, 91, 98
899010123, -5621, 6876, 13606, -2106, 1717, -1546, -2601, -114, -173, 282, 161, 501, 321, 560, 190, 124, 91, 98
899011031, -5574, 6925, 13603, -2088, 1676, -1625, -2633, -222, -149, 283, 161, 501, 321, 560, 190, 124, 91, 98
899023562, -5574, 6925, 13603, -2088, 1676, -1625, -2633, -222, -149, 283, 189, 529, 363, 538, 212, 124, 95, 110
899024357, -5574, 6925, 13603, -2088, 1676, -1625, -2633, -222, -149, 283, 189, 529, 363, 538, 212, 124, 95, 110
899030533, -5543, 6967, 13593, -2099, 1651, -1786, -2620, -99, -143, 271, 189, 529, 363, 538, 212, 124, 95, 110
899046777, -5543, 6967, 13593, -2099, 1651, -1786, -2620, -99, -143, 271, 199, 551, 370, 534, 224, 140, 111, 126
899047655, -5543, 6967, 13593, -2099, 1651, -1786, -2620, -99, -143, 271, 199, 551, 370, 534, 224, 140, 111, 126
899048515, -5530, 6981, 13588, -2117, 1632, -1655, -2613, 80, -105, 164, 199, 551, 370, 534, 224, 140, 111, 126
899069220, -5530, 6981, 13588, -2117, 1632, -1655, -2613, 80, -105, 164, 188, 480, 394, 600, 224, 133, 104, 124
899070054, -5530, 6981, 13588, -2117, 1632, -1655, -2613, 80, -105, 164, 188, 480, 394, 600, 224, 133, 104, 124
899070980, -5535, 6983, 13581, -2143, 1667, -1688, -2567, 161, -66, 118, 188, 480, 394, 600, 224, 133, 104, 124
899082898, -5535, 6983, 13581, -2143, 1667, -1688, -2567, 161, -66, 118, 208, 464, 382, 577, 226, 124, 105, 133
899091051, -5535, 6983, 13581, -2143, 1667, -1688, -2567, 161, -66, 118, 208, 464, 382, 577, 226, 124, 105, 133
899091999, -5539, 6986, 13575, -2160, 1646, -1580, -2513, 148, -56, 130, 208, 464, 382, 577, 226, 124, 105, 133
899106757, -5539, 6986, 13575, -2160, 1646, -1580, -2513, 148, -56, 130, 202, 459, 319, 541, 250, 154, 112, 133
899107642, -5539, 6986, 13575, -2160, 1646, -1580, -2513, 148, -56, 130, 202, 459, 319, 541, 250, 154, 112, 133
899108525, -5537, 6988, 13572, -2173, 1618, -1537, -2515, 136, -76, 116, 202, 459, 319, 541, 250, 154, 112, 133
899129240, -5537, 6988, 13572, -2173, 1618, -1537, -2515, 136, -76, 116, 166, 430, 250, 539, 273, 171, 122, 111
899130059, -5537, 6988, 13572, -2173, 1618, -1537, -2515, 136, -76, 116, 166, 430, 250, 539, 273, 171, 122, 111
899130984, -5527, 6992, 13575, -2173, 1626, -1518, -2488, 45, -96, 101, 166, 430, 250, 539, 273, 171, 122, 111
899151759, -5527, 6992, 13575, -2173, 1626, -1518, -2488, 45, -96, 101, 156, 422, 223, 542, 273, 172, 106, 93
899152673, -5527, 6992, 13575, -2173, 1626, -1518, -2488, 45, -96, 101, 156, 422, 223, 542, 273, 172, 106, 93
899153536, -5503, 6999, 13584, -2149, 1624, -1389, -2514, -53, -115, 94, 156, 422, 223, 542, 273, 172, 106, 93
899166743, -5503, 6999, 13584, -2149, 1624, -1389, -2514, -53, -115, 94, 156, 441, 194, 477, 275, 172, 112, 98
899167634, -5503, 6999, 13584, -2149, 1624, -1389, -2514, -53, -115, 94, 156, 441, 194, 477, 275, 172, 112, 98
899168514, -5475, 7017, 13588, -2135, 1604, -1575, -2536, -112, -128, 132, 156, 441, 194, 477, 275, 172, 112, 98
899189206, -5475, 7017, 13588, -2135, 1604, -1575, -2536, -112, -128, 132, 120, 390, 215, 487, 272, 169, 111, 95
899190060, -5475, 7017, 13588, -2135, 1604, -1575, -2536, -112, -128, 132, 120, 390, 215, 487, 272, 169, 111, 95
899190962, -5455, 7029, 13592, -2126, 1625, -1564, -2553, -55, -120, 111, 120, 390, 215, 487, 272, 169, 111, 95
899211753, -5455, 7029, 13592, -2126, 1625, -1564, -2553, -55, -120, 111, 119, 421, 216, 515, 274, 149, 99, 88
899212631, -5455, 7029, 13592, -2126, 1625, -1564, -2553, -55, -120, 111, 119, 421, 216, 515, 274, 149, 99, 88
899213528, -5446, 7031, 13596, -2117, 1631, -1580, -2534, -18, -85, 60, 119, 421, 216, 515, 274, 149, 99, 88
899226732, -5446, 7031, 13596, -2117, 1631, -1580, -2534, -18, -85, 60, 117, 416, 261, 444, 222, 155, 84, 84
899227657, -5446, 7031, 13596, -2117, 1631, -1580, -2534, -18, -85, 60, 117, 416, 261, 444, 222, 155, 84, 84
899228487, -5437, 7025, 13605, -2102, 1629, -1497, -2559, -3, -72, 12, 117, 416, 261, 444, 222, 155, 84, 84
899249247, -5437, 7025, 13605, -2102, 1629, -1497, -2559, -3, -72, 12, 141, 392, 252, 374, 214, 160, 98, 92
899250033, -5437, 7025, 13605, -2102, 1629, -1497, -2559, -3, -72, 12, 141, 392, 252, 374, 214, 160, 98, 92
899250948, -5433, 7019, 13614, -2074, 1636, -1517, -2565, -57, -27, -26, 141, 392, 252, 374, 214, 160, 98, 92
899271749, -5433, 7019, 13614, -2074, 1636, -1517, -2565, -57, -27, -26, 148, 425, 237, 317, 195, 153, 94, 176
899272632, -5433, 7019, 13614, -2074, 1636, -1517, -2565, -57, -27, -26, 148, 425, 237, 317, 195, 153, 94, 176
899273489, -5437, 7007, 13621, -2057, 1620, -1566, -2516, -19, -13, -52, 148, 425, 237, 317, 195, 153, 94, 176
899286733, -5437, 7007, 13621, -2057, 1620, -1566, -2516, -19, -13, -52, 145, 406, 264, 326, 194, 177, 96, 176
899287533, -5437, 7007, 13621, -2057, 1620, -1566, -2516, -19, -13, -52, 145, 406, 264, 326, 194, 177, 96, 176
899288482, -5441, 6992, 13629, -2048, 1610, -1591, -2512, 15, -33, -60, 145, 406, 264, 326, 194, 177, 96, 176
899309214, -5441, 6992, 13629, -2048, 1610, -1591, -2512, 15, -33, -60, 149, 371, 268, 307, 182, 182, 107, 184
899310014, -5441, 6992, 13629, -2048, 1610, -1591, -2512, 15, -33, -60, 149, 371, 268, 307, 182, 182, 107, 184
899310959, -5433, 6974, 13643, -2033, 1565, -1499, -2569, 8, -55, -89, 149, 371, 268, 307, 182, 182, 107, 184
899331758, -5433, 6974, 13643, -2033, 1565, -1499, -2569, 8, -55, -89, 150, 374, 233, 311, 183, 161, 102, 187
899332534, -5433, 6974, 13643, -2033, 1565, -1499, -2569, 8, -55, -89, 150, 374, 233, 311, 183, 161, 102, 187
899333475, -5421, 6960, 13659, -2003, 1561, -1605, -2660, -106, -13, -128, 150, 374, 233, 311, 183, 161, 102, 187
899346722, -5421, 6960, 13659, -2003, 1561, -1605, -2660, -106, -13, -128, 126, 432, 223, 318, 176, 142, 94, 184
899347535, -5421, 6960, 13659, -2003, 1561, -1605, -2660, -106, -13, -128, 126, 432, 223, 318, 176, 142, 94, 184
899348486, -5423, 6942, 13674, -1965, 1569, -1632, -2683, -113, 72, -179, 126, 432, 223, 318, 176, 142, 94, 184
899369283, -5423, 6942, 13674, -1965, 1569, -1632, -2683, -113, 72, -179, 126, 369, 236, 368, 187, 162, 89, 107
899370056, -5423, 6942, 13674, -1965, 1569, -1632, -2683, -113, 72, -179, 126, 369, 236, 368, 187, 162, 89, 107
899371050, -5431, 6920, 13688, -1919, 1565, -1650, -2690, -144, 132, -227, 126, 369, 236, 368, 187, 162, 89, 107
899391707, -5431, 6920, 13688, -1919, 1565, -1650, -2690, -144, 132, -227, 136, 387, 213, 345, 197, 160, 97, 103
899392562, -5431, 6920, 13688, -1919, 1565, -1650, -2690, -144, 132, -227, 136, 387, 213, 345, 197, 160, 97, 103
899393461, -5451, 6894, 13699, -1879, 1620, -1636, -2682, -81, 158, -235, 136, 387, 213, 345, 197, 160, 97, 103
899406748, -5451, 6894, 13699, -1879, 1620, -1636, -2682, -81, 158, -235, 155, 408, 235, 356, 169, 173, 101, 95
899407536, -5451, 6894, 13699, -1879, 1620, -1636, -2682, -81, 158, -235, 155, 408, 235, 356, 169, 173, 101, 95
899408489, -5467, 6868, 13711, -1835, 1631, -1520, -2574, -99, 117, -207, 155, 408, 235, 356, 169, 173, 101, 95
899429248, -5467, 6868, 13711, -1835, 1631, -1520, -2574, -99, 117, -207, 158, 403, 234, 405, 166, 179, 99, 90
899430057, -5467, 6868, 13711, -1835, 1631, -1520, -2574, -99, 117, -207, 158, 403, 234, 405, 166, 179, 99, 90
899431025, -5461, 6861, 13724, -1780, 1634, -1483, -2576, -227, 59, -129, 158, 403, 234, 405, 166, 179, 99, 90
899442910, -5442, 6866, 13736, -1730, 1668, -1565, -2596, -297, -19, -70, 158, 403, 234, 405, 166, 179, 99, 90
899451059, -5442, 6866, 13736, -1730, 1668, -1565, -2596, -297, -19, -70, 159, 328, 238, 399, 160, 189, 101, 92
899451831, -5442, 6866, 13736, -1730, 1668, -1565, -2596, -297, -19, -70, 159, 328, 238, 399, 160, 189, 101, 92
899466761, -5426, 6868, 13745, -1699, 1713, -1624, -2591, -228, -63, -54, 159, 328, 238, 399, 160, 189, 101, 92
899467537, -5426, 6868, 13745, -1699, 1713, -1624, -2591, -228, -63, -54, 167, 474, 247, 388, 240, 261, 114, 91
899468383, -5426, 6868, 13745, -1699, 1713, -1624, -2591, -228, -63, -54, 167, 474, 247, 388, 240, 261, 114, 91
899480409, -5411, 6863, 13756, -1678, 1720, -1557, -2554, -150, -115, -59, 167, 474, 247, 388, 240, 261, 114, 91
899488547, -5411, 6863, 13756, -1678, 1720, -1557, -2554, -150, -115, -59, 167, 474, 234, 414, 330, 332, 128, 94
899489323, -5411, 6863, 13756, -1678, 1720, -1557, -2554, -150, -115, -59, 167, 474, 234, 414, 330, 332, 128, 94
899502911, -5382, 6865, 13770, -1649, 1688, -1507, -2585, -217, -135, -36, 167, 474, 234, 414, 330, 332, 128, 94
899511028, -5382, 6865, 13770, -1649, 1688, -1507, -2585, -217, -135, -36, 158, 455, 250, 436, 364, 355, 129, 109
899511843, -5382, 6865, 13770, -1649, 1688, -1507, -2585, -217, -135, -36, 158, 455, 250, 436, 364, 355, 129, 109
899526739, -5356, 6871, 13780, -1626, 1686, -1585, -2582, -227, -133, -19, 158, 455, 250, 436, 364, 355, 129, 109
899527514, -5356, 6871, 13780, -1626, 1686, -1585, -2582, -227, -133, -19, 182, 458, 264, 391, 383, 386, 141, 116
899528337, -5356, 6871, 13780, -1626, 1686, -1585, -2582, -227, -133, -19, 182, 458, 264, 391, 383, 386, 141, 116
899540409, -5341, 6870, 13788, -1610, 1717, -1616, -2563, -183, -121, -46, 182, 458, 264, 391, 383, 386, 141, 116
899548526, -5341, 6870, 13788, -1610, 1717, -1616, -2563, -183, -121, -46, 193, 497, 291, 420, 425, 438, 158, 124
899549359, -5341, 6870, 13788, -1610, 1717, -1616, -2563, -183, -121, -46, 193, 497, 291, 420, 425, 438, 158, 124
899562902, -5321, 6866, 13799, -1591, 1682, -1559, -2529, -190, -137, -63, 193, 497, 291, 420, 425, 438, 158, 124
899571059, -5321, 6866, 13799, -1591, 1682, -1559, -2529, -190, -137, -63, 185, 438, 271, 398, 508, 507, 159, 143
899571834, -5321, 6866, 13799, -1591, 1682, -1559, -2529, -190, -137, -63, 185, 438, 271, 398, 508, 507, 159, 143
899585435, -5295, 6873, 13809, -1571, 1626, -1547, -2574, -222, -128, -23, 185, 438, 271, 398, 508, 507, 159, 143
899593507, -5295, 6873, 13809, -1571, 1626, -1547, -2574, -222, -128, -23, 186, 416, 270, 392, 487, 498, 150, 140
899594380, -5295, 6873, 13809, -1571, 1626, -1547, -2574, -222, -128, -23, 186, 416, 270, 392, 487, 498, 150, 140
899600485, -5273, 6883, 13813, -1560, 1636, -1626, -2614, -197, -110, 3, 186, 416, 270, 392, 487, 498, 150, 140
899608574, -5273, 6883, 13813, -1560, 1636, -1626, -2614, -197, -110, 3, 184, 422, 267, 435, 492, 502, 151, 127
899609335, -5273, 6883, 13813, -1560, 1636, -1626, -2614, -197, -110, 3, 184, 422, 267, 435, 492, 502, 151, 127
899622936, -5263, 6886, 13816, -1555, 1650, -1596, -2633, -112, -80, -9, 184, 422, 267, 435, 492, 502, 151, 127
899631008, -5263, 6886, 13816, -1555, 1650, -1596, -2633, -112, -80, -9, 183, 425, 250, 435, 491, 493, 146, 127
899631837, -5263, 6886, 13816, -1555, 1650, -1596, -2633, -112, -80, -9, 183, 425, 250, 435, 491, 493, 146, 127
899646750, -5256, 6890, 13818, -1547, 1653, -1582, -2652, -112, -48, -12, 183, 425, 250, 435, 491, 493, 146, 127
899647536, -5256, 6890, 13818, -1547, 1653, -1582, -2652, -112, -48, -12, 169, 406, 220, 423, 486, 479, 132, 125
899648386, -5256, 6890, 13818, -1547, 1653, -1582, -2652, -112, -48, -12, 169, 406, 220, 423, 486, 479, 132, 125
899660407, -5253, 6898, 13816, -1535, 1635, -1608, -2648, -144, -10, -1, 169, 406, 220, 423, 486, 479, 132, 125
899668533, -5253, 6898, 13816, -1535, 1635, -1608, -2648, -144, -10, -1, 167, 357, 226, 419, 390, 420, 140, 116
899669312, -5253, 6898, 13816, -1535, 1635, -1608, -2648, -144, -10, -1, 167, 357, 226, 419, 390, 420, 140, 116
899682886, -5254, 6905, 13813, -1528, 1631, -1614, -2635, -116, 5, 1, 167, 357, 226, 419, 390, 420, 140, 116
899691041, -5254, 6905, 13813, -1528, 1631, -1614, -2635, -116, 5, 1, 174, 401, 251, 424, 410, 464, 145, 119
899691832, -5254, 6905, 13813, -1528, 1631, -1614, -2635, -116, 5, 1, 174, 401, 251, 424, 410, 464, 145, 119
899706736, -5253, 6911, 13811, -1519, 1625, -1585, -2700, -96, 13, -4, 174, 401, 251, 424, 410, 464, 145, 119
899707511, -5253, 6911, 13811, -1519, 1625, -1585, -2700, -96, 13, -4, 175, 413, 210, 348, 405, 462, 149, 121
899708336, -5253, 6911, 13811, -1519, 1625, -1585, -2700, -96, 13, -4, 175, 413, 210, 348, 405, 462, 149, 121
899720358, -5260, 6913, 13809, -1515, 1654, -1567, -2691, -47, 27, -10, 175, 413, 210, 348, 405, 462, 149, 121
899728553, -5260, 6913, 13809, -1515, 1654, -1567, -2691, -47, 27, -10, 168, 422, 206, 370, 422, 468, 148, 116
899729349, -5260, 6913, 13809, -1515, 1654, -1567, -2691, -47, 27, -10, 168, 422, 206, 370, 422, 468, 148, 116
899742908, -5265, 6916, 13805, -1512, 1636, -1564, -2667, -44, 20, 1, 168, 422, 206, 370, 422, 468, 148, 116
899751032, -5265, 6916, 13805, -1512, 1636, -1564, -2667, -44, 20, 1, 176, 413, 211, 388, 414, 475, 145, 109
899751838, -5265, 6916, 13805, -1512, 1636, -1564, -2667, -44, 20, 1, 176, 413, 211, 388, 414, 475, 145, 109
899766767, -5267, 6922, 13802, -1511, 1643, -1558, -2677, -49, -1, 21, 176, 413, 211, 388, 414, 475, 145, 109
899767566, -5267, 6922, 13802, -1511, 1643, -1558, -2677, -49, -1, 21, 195, 415, 226, 407, 386, 438, 134, 94
899768384, -5267, 6922, 13802, -1511, 1643, -1558, -2677, -49, -1, 21, 195, 415, 226, 407, 386, 438, 134, 94
899789211, -5263, 6931, 13799, -1510, 1650, -1530, -2678, -57, -31, 49, 195, 415, 226, 407, 386, 438, 134, 94
899790033, -5263, 6931, 13799, -1510, 1650, -1530, -2678, -57, -31, 49, 187, 369, 225, 375, 346, 420, 138, 91
899790832, -5263, 6931, 13799, -1510, 1650, -1530, -2678, -57, -31, 49, 187, 369, 225, 375, 346, 420, 138, 91
899802888, -5259, 6945, 13793, -1514, 1632, -1615, -2685, -72, -28, 62, 187, 369, 225, 375, 346, 420, 138, 91
899811033, -5259, 6945, 13793, -1514, 1632, -1615, -2685, -72, -28, 62, 186, 364, 265, 351, 314, 425, 195, 94
899811883, -5259, 6945, 13793, -1514, 1632, -1615, -2685, -72, -28, 62, 186, 364, 265, 351, 314, 425, 195, 94
899826734, -5249, 6963, 13788, -1514, 1586, -1569, -2704, -87, -22, 75, 186, 364, 265, 351, 314, 425, 195, 94
899827645, -5249, 6963, 13788, -1514, 1586, -1569, -2704, -87, -22, 75, 177, 379, 264, 356, 270, 412, 206, 97
899828309, -5249, 6963, 13788, -1514, 1586, -1569, -2704, -87, -22, 75, 177, 379, 264, 356, 270, 412, 206, 97
899840437, -5244, 6981, 13779, -1523, 1576, -1588, -2708, -41, -9, 96, 177, 379, 264, 356, 270, 412, 206, 97
899848492, -5244, 6981, 13779, -1523, 1576, -1588, -2708, -41, -9, 96, 164, 381, 255, 307, 239, 394, 211, 92
899849341, -5244, 6981, 13779, -1523, 1576, -1588, -2708, -41, -9, 96, 164, 381, 255, 307, 239, 394, 211, 92
899862952, -5244, 6994, 13771, -1536, 1607, -1576, -2702, 8, -17, 85, 164, 381, 255, 307, 239, 394, 211, 92
899871015, -5244, 6994, 13771, -1536, 1607, -1576, -2702, 8, -17, 85, 140, 346, 237, 269, 235, 398, 212, 93
899871833, -5244, 6994, 13771, -1536, 1607, -1576, -2702, 8, -17, 85, 140, 346, 237, 269, 235, 398, 212, 93
899886709, -5250, 6996, 13767, -1550, 1658, -1560, -2741, 63, -17, 44, 140, 346, 237, 269, 235, 398, 212, 93
899887538, -5250, 6996, 13767, -1550, 1658, -1560, -2741, 63, -17, 44, 143, 347, 204, 283, 243, 372, 226, 92
899888338, -5250, 6996, 13767, -1550, 1658, -1560, -2741, 63, -17, 44, 143, 347, 204, 283, 243, 372, 226, 92
899900394, -5256, 6997, 13763, -1558, 1675, -1517, -2746, 65, -8, 43, 143, 347, 204, 283, 243, 372, 226, 92
