Timestamp, Orientation x, Orientation y, Orientation z, Orientation w, Acceleration x, Acceleration y, Acceleration z, Rotation x, Rotation y, Rotation z, EMG 0, EMG 1, EMG 2, EMG 3, EMG 4, EMG 5, EMG 6, EMG 7
915500670, -6600, 878, 12943, -7522, 3459, -395, -1627, 2609, 783, -1084, 0, 0, 0, 0, 0, 0, 0, 0
915501408, -6899, 540, 12846, -7451, 3324, 78, -1184, 1289, 654, -1012, 0, 0, 0, 0, 0, 0, 0, 0
915522389, -7110, 377, 12863, -7231, 2892, -118, -857, -262, 451, -677, 0, 0, 0, 0, 0, 0, 0, 0
915544914, -7199, 341, 12941, -7002, 2881, -908, -903, -875, 93, -180, 0, 0, 0, 0, 0, 0, 0, 0
915560563, -7193, 327, 13041, -6821, 3105, -1170, -1166, -745, -302, 233, 0, 0, 0, 0, 0, 0, 0, 0
915561343, -7193, 327, 13041, -6821, 3105, -1170, -1166, -745, -302, 233, 359, 270, 374, 514, 238, 124, 109, 140
915567309, -7193, 327, 13041, -6821, 3105, -1170, -1166, -745, -302, 233, 359, 270, 374, 514, 238, 124, 109, 140
915583684, -7158, 336, 13143, -6659, 3245, -1476, -1323, -725, -377, 362, 359, 270, 374, 514, 238, 124, 109, 140
915584538, -7158, 336, 13143, -6659, 3245, -1476, -1323, -725, -377, 362, 389, 260, 373, 556, 244, 142, 133, 175
915585320, -7158, 336, 13143, -6659, 3245, -1476, -1323, -725, -377, 362, 389, 260, 373, 556, 244, 142, 133, 175
915606217, -7126, 348, 13210, -6559, 3150, -1730, -1286, -451, -304, 386, 389, 260, 373, 556, 244, 142, 133, 175
915607057, -7126, 348, 13210, -6559, 3150, -1730, -1286, -451, -304, 386, 405, 298, 370, 524, 224, 133, 133, 185
915607880, -7126, 348, 13210, -6559, 3150, -1730, -1286, -451, -304, 386, 405, 298, 370, 524, 224, 133, 133, 185
915619912, -7110, 313, 13229, -6540, 3061, -1553, -1159, 117, -276, 367, 405, 298, 370, 524, 224, 133, 133, 185
915627982, -7110, 313, 13229, -6540, 3061, -1553, -1159, 117, -276, 367, 430, 306, 372, 568, 164, 111, 116, 170
915628834, -7110, 313, 13229, -6540, 3061, -1553, -1159, 117, -276, 367, 430, 306, 372, 568, 164, 111, 116, 170
915643727, -7102, 236, 13236, -6537, 3061, -1140, -1109, 367, -320, 346, 430, 306, 372, 568, 164, 111, 116, 170
915644495, -7102, 236, 13236, -6537, 3061, -1140, -1109, 367, -320, 346, 433, 343, 380, 580, 165, 105, 112, 165
915645314, -7102, 236, 13236, -6537, 3061, -1140, -1109, 367, -320, 346, 433, 343, 380, 580, 165, 105, 112, 165
915666207, -7097, 177, 13265, -6486, 3082, -1001, -1154, 87, -312, 353, 433, 343, 380, 580, 165, 105, 112, 165
915666993, -7097, 177, 13265, -6486, 3082, -1001, -1154, 87, -312, 353, 421, 335, 296, 507, 165, 112, 113, 162
915667825, -7097, 177, 13265, -6486, 3082, -1001, -1154, 87, -312, 353, 421, 335, 296, 507, 165, 112, 113, 162
915679877, -7103, 144, 13301, -6406, 3141, -1160, -1182, -141, -224, 314, 421, 335, 296, 507, 165, 112, 113, 162
915688025, -7103, 144, 13301, -6406, 3141, -1160, -1182, -141, -224, 314, 401, 340, 267, 477, 155, 91, 97, 176
915688806, -7103, 144, 13301, -6406, 3141, -1160, -1182, -141, -224, 314, 401, 340, 267, 477, 155, 91, 97, 176
915703711, -7114, 116, 13329, -6336, 3105, -1287, -1172, -129, -179, 277, 401, 340, 267, 477, 155, 91, 97, 176
915704542, -7114, 116, 13329, -6336, 3105, -1287, -1172, -129, -179, 277, 401, 313, 256, 502, 162, 93, 88, 186
915705324, -7114, 116, 13329, -6336, 3105, -1287, -1172, -129, -179, 277, 401, 313, 256, 502, 162, 93, 88, 186
915726198, -7132, 77, 13343, -6287, 3066, -1283, -1151, 5, -139, 238, 401, 313, 256, 502, 162, 93, 88, 186
915727007, -7132, 77, 13343, -6287, 3066, -1283, -1151, 5, -139, 238, 353, 352, 293, 476, 172, 105, 87, 185
915727846, -7132, 77, 13343, -6287, 3066, -1283, -1151, 5, -139, 238, 353, 352, 293, 476, 172, 105, 87, 185
915739883, -7158, 24, 13344, -6257, 3041, -1261, -1162, 170, -94, 191, 353, 352, 293, 476, 172, 105, 87, 185
915748031, -7158, 24, 13344, -6257, 3041, -1261, -1162, 170, -94, 191, 320, 319, 296, 496, 162, 113, 99, 190
915748856, -7158, 24, 13344, -6257, 3041, -1261, -1162, 170, -94, 191, 320, 319, 296, 496, 162, 113, 99, 190
915763683, -7191, -31, 13344, -6219, 3027, -1117, -1185, 162, -46, 179, 320, 319, 296, 496, 162, 113, 99, 190
915764480, -7191, -31, 13344, -6219, 3027, -1117, -1185, 162, -46, 179, 350, 329, 334, 527, 185, 120, 104, 201
915765282, -7191, -31, 13344, -6219, 3027, -1117, -1185, 162, -46, 179, 350, 329, 334, 527, 185, 120, 104, 201
915786210, -7225, -73, 13353, -6158, 3018, -1177, -1239, 14, -12, 136, 350, 329, 334, 527, 185, 120, 104, 201
915787008, -7225, -73, 13353, -6158, 3018, -1177, -1239, 14, -12, 136, 363, 320, 338, 507, 190, 120, 96, 170
915787860, -7225, -73, 13353, -6158, 3018, -1177, -1239, 14, -12, 136, 363, 320, 338, 507, 190, 120, 96, 170
915799853, -7260, -121, 13361, -6099, 3064, -1257, -1295, 31, -1, 78, 363, 320, 338, 507, 190, 120, 96, 170
915807983, -7260, -121, 13361, -6099, 3064, -1257, -1295, 31, -1, 78, 357, 326, 328, 486, 194, 116, 99, 157
915808780, -7260, -121, 13361, -6099, 3064, -1257, -1295, 31, -1, 78, 357, 326, 328, 486, 194, 116, 99, 157
915823712, -7299, -171, 13369, -6033, 3075, -1228, -1342, 22, 29, 41, 357, 326, 328, 486, 194, 116, 99, 157
915824486, -7299, -171, 13369, -6033, 3075, -1228, -1342, 22, 29, 41, 350, 293, 304, 498, 195, 124, 112, 164
915825339, -7299, -171, 13369, -6033, 3075, -1228, -1342, 22, 29, 41, 350, 293, 304, 498, 195, 124, 112, 164
915846231, -7339, -226, 13374, -5971, 3055, -1198, -1370, 61, 52, 14, 350, 293, 304, 498, 195, 124, 112, 164
915847004, -7339, -226, 13374, -5971, 3055, -1198, -1370, 61, 52, 14, 306, 319, 287, 470, 201, 129, 101, 160
915847830, -7339, -226, 13374, -5971, 3055, -1198, -1370, 61, 52, 14, 306, 319, 287, 470, 201, 129, 101, 160
915859882, -7379, -281, 13383, -5901, 3023, -1146, -1356, 20, 40, -22, 306, 319, 287, 470, 201, 129, 101, 160
915867976, -7379, -281, 13383, -5901, 3023, -1146, -1356, 20, 40, -22, 278, 313, 251, 508, 208, 133, 99, 146
915868773, -7379, -281, 13383, -5901, 3023, -1146, -1356, 20, 40, -22, 278, 313, 251, 508, 208, 133, 99, 146
915883677, -7410, -338, 13396, -5828, 3015, -1187, -1362, -16, -9, -55, 278, 313, 251, 508, 208, 133, 99, 146
915884477, -7410, -338, 13396, -5828, 3015, -1187, -1362, -16, -9, -55, 277, 316, 248, 563, 223, 162, 110, 131
915885281, -7410, -338, 13396, -5828, 3015, -1187, -1362, -16, -9, -55, 277, 316, 248, 563, 223, 162, 110, 131
915906151, -7436, -404, 13405, -5769, 3029, -1220, -1336, 57, -52, -82, 277, 316, 248, 563, 223, 162, 110, 131
915906953, -7436, -404, 13405, -5769, 3029, -1220, -1336, 57, -52, -82, 292, 340, 255, 549, 238, 177, 120, 131
915907774, -7436, -404, 13405, -5769, 3029, -1220, -1336, 57, -52, -82, 292, 340, 255, 549, 238, 177, 120, 131
915919826, -7463, -479, 13411, -5715, 3048, -1214, -1342, 106, -53, -124, 292, 340, 255, 549, 238, 177, 120, 131
915927991, -7463, -479, 13411, -5715, 3048, -1214, -1342, 106, -53, -124, 288, 335, 225, 567, 239, 166, 104, 116
915928822, -7463, -479, 13411, -5715, 3048, -1214, -1342, 106, -53, -124, 288, 335, 225, 567, 239, 166, 104, 116
915943701, -7489, -548, 13420, -5652, 3034, -1235, -1359, 30, -51, -150, 288, 335, 225, 567, 239, 166, 104, 116
915944514, -7489, -548, 13420, -5652, 3034, -1235, -1359, 30, -51, -150, 290, 291, 243, 513, 262, 175, 114, 105
915945338, -7489, -548, 13420, -5652, 3034, -1235, -1359, 30, -51, -150, 290, 291, 243, 513, 262, 175, 114, 105
915966177, -7517, -609, 13432, -5580, 3085, -1272, -1365, -49, -40, -168, 290, 291, 243, 513, 262, 175, 114, 105
915966974, -7517, -609, 13432, -5580, 3085, -1272, -1365, -49, -40, -168, 287, 316, 238, 457, 268, 183, 122, 131
915967817, -7517, -609, 13432, -5580, 3085, -1272, -1365, -49, -40, -168, 287, 316, 238, 457, 268, 183, 122, 131
915979834, -7544, -660, 13444, -5508, 3043, -1326, -1340, -101, -31, -169, 287, 316, 238, 457, 268, 183, 122, 131
915988033, -7544, -660, 13444, -5508, 3043, -1326, -1340, -101, -31, -169, 289, 319, 242, 390, 252, 160, 116, 150
915988807, -7544, -660, 13444, -5508, 3043, -1326, -1340, -101, -31, -169, 289, 319, 242, 390, 252, 160, 116, 150
916003718, -7559, -713, 13452, -5460, 3061, -1456, -1364, -1, -63, -165, 289, 319, 242, 390, 252, 160, 116, 150
916004493, -7559, -713, 13452, -5460, 3061, -1456, -1364, -1, -63, -165, 289, 280, 237, 424, 229, 146, 108, 142
916005315, -7559, -713, 13452, -5460, 3061, -1456, -1364, -1, -63, -165, 289, 280, 237, 424, 229, 146, 108, 142
916026208, -7581, -779, 13447, -5436, 3071, -1381, -1273, 145, -57, -157, 289, 280, 237, 424, 229, 146, 108, 142
916027006, -7581, -779, 13447, -5436, 3071, -1381, -1273, 145, -57, -157, 265, 252, 256, 355, 222, 149, 118, 155
916027850, -7581, -779, 13447, -5436, 3071, -1381, -1273, 145, -57, -157, 265, 252, 256, 355, 222, 149, 118, 155
916039837, -7603, -836, 13452, -5383, 3024, -1220, -1280, 2, -61, -146, 265, 252, 256, 355, 222, 149, 118, 155
916047966, -7603, -836, 13452, -5383, 3024, -1220, -1280, 2, -61, -146, 270, 233, 244, 409, 178, 132, 113, 157
916048783, -7603, -836, 13452, -5383, 3024, -1220, -1280, 2, -61, -146, 270, 233, 244, 409, 178, 132, 113, 157
916063660, -7621, -862, 13466, -5317, 3066, -1324, -1287, -182, -55, -82, 270, 233, 244, 409, 178, 132, 113, 157
916064464, -7621, -862, 13466, -5317, 3066, -1324, -1287, -182, -55, -82, 265, 183, 220, 377, 142, 104, 95, 134
916065288, -7621, -862, 13466, -5317, 3066, -1324, -1287, -182, -55, -82, 265, 183, 220, 377, 142, 104, 95, 134
916086191, -7634, -875, 13477, -5270, 3032, -1340, -1193, -156, -84, 9, 265, 183, 220, 377, 142, 104, 95, 134
916087010, -7634, -875, 13477, -5270, 3032, -1340, -1193, -156, -84, 9, 266, 207, 211, 374, 157, 116, 105, 113
916087835, -7634, -875, 13477, -5270, 3032, -1340, -1193, -156, -84, 9, 266, 207, 211, 374, 157, 116, 105, 113
916099859, -7628, -873, 13499, -5223, 2921, -1178, -1066, -216, -212, 156, 266, 207, 211, 374, 157, 116, 105, 113
916107965, -7628, -873, 13499, -5223, 2921, -1178, -1066, -216, -212, 156, 232, 206, 221, 398, 183, 139, 163, 115
916108787, -7628, -873, 13499, -5223, 2921, -1178, -1066, -216, -212, 156, 232, 206, 221, 398, 183, 139, 163, 115
916123677, -7601, -820, 13549, -5140, 2956, -976, -1024, -539, -343, 438, 232, 206, 221, 398, 183, 139, 163, 115
916124486, -7601, -820, 13549, -5140, 2956, -976, -1024, -539, -343, 438, 222, 208, 213, 505, 324, 213, 215, 127
916125314, -7601, -820, 13549, -5140, 2956, -976, -1024, -539, -343, 438, 222, 208, 213, 505, 324, 213, 215, 127
916146211, -7541, -687, 13629, -5034, 2893, -867, -896, -909, -507, 846, 222, 208, 213, 505, 324, 213, 215, 127
916147046, -7541, -687, 13629, -5034, 2893, -867, -896, -909, -507, 846, 221, 211, 222, 561, 369, 279, 248, 128
916147853, -7541, -687, 13629, -5034, 2893, -867, -896, -909, -507, 846, 221, 211, 222, 561, 369, 279, 248, 128
916159864, -7417, -443, 13763, -4880, 2858, -711, -951, -1459, -776, 1441, 221, 211, 222, 561, 369, 279, 248, 128
916168001, -7417, -443, 13763, -4880, 2858, -711, -951, -1459, -776, 1441, 228, 208, 258, 585, 385, 315, 302, 147
916168771, -7417, -443, 13763, -4880, 2858, -711, -951, -1459, -776, 1441, 228, 208, 258, 585, 385, 315, 302, 147
916183700, -7167, -10, 13972, -4676, 3040, -1081, -1279, -2349, -1070, 2058, 228, 208, 258, 585, 385, 315, 302, 147
916184515, -7167, -10, 13972, -4676, 3040, -1081, -1279, -2349, -1070, 2058, 196, 182, 254, 587, 393, 332, 309, 146
916185313, -7167, -10, 13972, -4676, 3040, -1081, -1279, -2349, -1070, 2058, 196, 182, 254, 587, 393, 332, 309, 146
916206186, -6843, 545, 14203, -4426, 3126, -1599, -1715, -2917, -1277, 2616, 196, 182, 254, 587, 393, 332, 309, 146
916206957, -6843, 545, 14203, -4426, 3126, -1599, -1715, -2917, -1277, 2616, 210, 214, 276, 545, 401, 337, 305, 163
916207808, -6843, 545, 14203, -4426, 3126, -1599, -1715, -2917, -1277, 2616, 210, 214, 276, 545, 401, 337, 305, 163
916219801, -6462, 1140, 14411, -4209, 3018, -2051, -1991, -2852, -1446, 2945, 210, 214, 276, 545, 401, 337, 305, 163
916227998, -6462, 1140, 14411, -4209, 3018, -2051, -1991, -2852, -1446, 2945, 206, 209, 279, 473, 335, 327, 291, 141
916228807, -6462, 1140, 14411, -4209, 3018, -2051, -1991, -2852, -1446, 2945, 206, 209, 279, 473, 335, 327, 291, 141
916243701, -6033, 1745, 14576, -4066, 2789, -2255, -2194, -2473, -1603, 3233, 206, 209, 279, 473, 335, 327, 291, 141
916244495, -6033, 1745, 14576, -4066, 2789, -2255, -2194, -2473, -1603, 3233, 196, 214, 297, 451, 359, 291, 281, 143
916245288, -6033, 1745, 14576, -4066, 2789, -2255, -2194, -2473, -1603, 3233, 196, 214, 297, 451, 359, 291, 281, 143
916266166, -5586, 2334, 14693, -3985, 2629, -2303, -2483, -2069, -1651, 3340, 196, 214, 297, 451, 359, 291, 281, 143
916266983, -5586, 2334, 14693, -3985, 2629, -2303, -2483, -2069, -1651, 3340, 197, 229, 277, 464, 369, 256, 229, 142
916267794, -5586, 2334, 14693, -3985, 2629, -2303, -2483, -2069, -1651, 3340, 197, 229, 277, 464, 369, 256, 229, 142
916279847, -5160, 2940, 14748, -3956, 2399, -2324, -2658, -1735, -1449, 3552, 197, 229, 277, 464, 369, 256, 229, 142
916287982, -5160, 2940, 14748, -3956, 2399, -2324, -2658, -1735, -1449, 3552, 228, 242, 276, 480, 381, 242, 229, 155
916288820, -5160, 2940, 14748, -3956, 2399, -2324, -2658, -1735, -1449, 3552, 228, 242, 276, 480, 381, 242, 229, 155
916303665, -4724, 3580, 14751, -3962, 2098, -2176, -2729, -1547, -1394, 3861, 228, 242, 276, 480, 381, 242, 229, 155
916304462, -4724, 3580, 14751, -3962, 2098, -2176, -2729, -1547, -1394, 3861, 210, 225, 271, 518, 367, 221, 204, 137
916305323, -4724, 3580, 14751, -3962, 2098, -2176, -2729, -1547, -1394, 3861, 210, 225, 271, 518, 367, 221, 204, 137
916333658, -4254, 4267, 14704, -3991, 1814, -2197, -2653, -1487, -1462, 4246, 210, 225, 271, 518, 367, 221, 204, 137
916334483, -4254, 4267, 14704, -3991, 1814, -2197, -2653, -1487, -1462, 4246, 209, 225, 271, 507, 349, 178, 178, 136
916335281, -4254, 4267, 14704, -3991, 1814, -2197, -2653, -1487, -1462, 4246, 209, 225, 271, 507, 349, 178, 178, 136
916356219, -3772, 4947, 14604, -4054, 1503, -2110, -2692, -1244, -1504, 4359, 209, 225, 271, 507, 349, 178, 178, 136
916357004, -3772, 4947, 14604, -4054, 1503, -2110, -2692, -1244, -1504, 4359, 223, 245, 261, 464, 414, 209, 169, 160
916357835, -3772, 4947, 14604, -4054, 1503, -2110, -2692, -1244, -1504, 4359, 223, 245, 261, 464, 414, 209, 169, 160
916371161, -3294, 5581, 14470, -4129, 1127, -1896, -2735, -1053, -1514, 4199, 223, 245, 261, 464, 414, 209, 169, 160
916372014, -3294, 5581, 14470, -4129, 1127, -1896, -2735, -1053, -1514, 4199, 222, 230, 268, 522, 414, 217, 178, 152
916372797, -3294, 5581, 14470, -4129, 1127, -1896, -2735, -1053, -1514, 4199, 222, 230, 268, 522, 414, 217, 178, 152
916386171, -2822, 6172, 14302, -4221, 833, -1830, -2757, -858, -1539, 4049, 222, 230, 268, 522, 414, 217, 178, 152
916386982, -2822, 6172, 14302, -4221, 833, -1830, -2757, -858, -1539, 4049, 186, 205, 269, 517, 447, 222, 161, 140
916387823, -2822, 6172, 14302, -4221, 833, -1830, -2757, -858, -1539, 4049, 186, 205, 269, 517, 447, 222, 161, 140
916399834, -2360, 6723, 14098, -4346, 773, -1629, -2816, -560, -1604, 3966, 186, 205, 269, 517, 447, 222, 161, 140
916407960, -2360, 6723, 14098, -4346, 773, -1629, -2816, -560, -1604, 3966, 196, 200, 253, 510, 452, 236, 169, 146
916408756, -2360, 6723, 14098, -4346, 773, -1629, -2816, -560, -1604, 3966, 196, 200, 253, 510, 452, 236, 169, 146
916423661, -1933, 7236, 13860, -4497, 332, -1322, -2669, -255, -1505, 3811, 196, 200, 253, 510, 452, 236, 169, 146
916424469, -1933, 7236, 13860, -4497, 332, -1322, -2669, -255, -1505, 3811, 196, 212, 258, 512, 463, 234, 165, 151
916425283, -1933, 7236, 13860, -4497, 332, -1322, -2669, -255, -1505, 3811, 196, 212, 258, 512, 463, 234, 165, 151
916446179, -1557, 7714, 13596, -4650, 234, -1130, -2680, -37, -1309, 3633, 196, 212, 258, 512, 463, 234, 165, 151
916446975, -1557, 7714, 13596, -4650, 234, -1130, -2680, -37, -1309, 3633, 202, 172, 238, 482, 395, 197, 147, 127
916447809, -1557, 7714, 13596, -4650, 234, -1130, -2680, -37, -1309, 3633, 202, 172, 238, 482, 395, 197, 147, 127
916459854, -1166, 8158, 13326, -4787, 1301, -829, -3107, -59, -1541, 3589, 202, 172, 238, 482, 395, 197, 147, 127
916467942, -1166, 8158, 13326, -4787, 1301, -829, -3107, -59, -1541, 3589, 233, 182, 279, 457, 417, 216, 128, 119
916468755, -1166, 8158, 13326, -4787, 1301, -829, -3107, -59, -1541, 3589, 233, 182, 279, 457, 417, 216, 128, 119
916482361, -800, 8563, 13053, -4906, 834, -1213, -1669, -204, -1373, 3348, 233, 182, 279, 457, 417, 216, 128, 119
916490445, -800, 8563, 13053, -4906, 834, -1213, -1669, -204, -1373, 3348, 245, 180, 289, 539, 415, 221, 131, 121
916491252, -800, 8563, 13053, -4906, 834, -1213, -1669, -204, -1373, 3348, 245, 180, 289, 539, 415, 221, 131, 121
916504861, -475, 8910, 12792, -5016, 387, -491, -3108, 44, -1281, 2937, 245, 180, 289, 539, 415, 221, 131, 121
916513003, -475, 8910, 12792, -5016, 387, -491, -3108, 44, -1281, 2937, 300, 180, 343, 528, 425, 217, 146, 142
916513799, -475, 8910, 12792, -5016, 387, -491, -3108, 44, -1281, 2937, 300, 180, 343, 528, 425, 217, 146, 142
916519952, -130, 9218, 12550, -5093, 573, -1048, -1434, -364, -1304, 2770, 300, 180, 343, 528, 425, 217, 146, 142
916527964, -130, 9218, 12550, -5093, 573, -1048, -1434, -364, -1304, 2770, 335, 179, 385, 580, 430, 223, 163, 159
916528761, -130, 9218, 12550, -5093, 573, -1048, -1434, -364, -1304, 2770, 335, 179, 385, 580, 430, 223, 163, 159
916542349, 188, 9465, 12337, -5156, 1748, -390, -2575, -245, -1441, 2418, 335, 179, 385, 580, 430, 223, 163, 159
916550490, 188, 9465, 12337, -5156, 1748, -390, -2575, -245, -1441, 2418, 330, 185, 391, 607, 414, 210, 159, 158
916551288, 188, 9465, 12337, -5156, 1748, -390, -2575, -245, -1441, 2418, 330, 185, 391, 607, 414, 210, 159, 158
916564835, 507, 9682, 12121, -5244, -1006, -586, -2964, -155, -1323, 2144, 330, 185, 391, 607, 414, 210, 159, 158
916572982, 507, 9682, 12121, -5244, -1006, -586, -2964, -155, -1323, 2144, 338, 177, 386, 587, 452, 193, 166, 162
916573808, 507, 9682, 12121, -5244, -1006, -586, -2964, -155, -1323, 2144, 338, 177, 386, 587, 452, 193, 166, 162
916579949, 816, 9864, 11918, -5330, -859, -736, -2164, -227, -1317, 1959, 338, 177, 386, 587, 452, 193, 166, 162
916587931, 816, 9864, 11918, -5330, -859, -736, -2164, -227, -1317, 1959, 370, 181, 591, 566, 407, 162, 178, 185
916588770, 816, 9864, 11918, -5330, -859, -736, -2164, -227, -1317, 1959, 370, 181, 591, 566, 407, 162, 178, 185
916602337, 1114, 10007, 11734, -5419, -216, -746, -1706, -254, -1395, 1761, 370, 181, 591, 566, 407, 162, 178, 185
916610474, 1114, 10007, 11734, -5419, -216, -746, -1706, -254, -1395, 1761, 354, 228, 637, 667, 401, 160, 180, 202
916611293, 1114, 10007, 11734, -5419, -216, -746, -1706, -254, -1395, 1761, 354, 228, 637, 667, 401, 160, 180, 202
916624802, 1408, 10144, 11561, -5467, 1142, -520, -1521, -420, -1382, 1762, 354, 228, 637, 667, 401, 160, 180, 202
916632981, 1408, 10144, 11561, -5467, 1142, -520, -1521, -420, -1382, 1762, 360, 229, 730, 663, 425, 156, 181, 206
916633826, 1408, 10144, 11561, -5467, 1142, -520, -1521, -420, -1382, 1762, 360, 229, 730, 663, 425, 156, 181, 206
916639933, 1637, 10274, 11432, -5430, 326, -341, -1995, -396, -1331, 1572, 360, 229, 730, 663, 425, 156, 181, 206
916648002, 1637, 10274, 11432, -5430, 326, -341, -1995, -396, -1331, 1572, 397, 241, 765, 726, 470, 182, 267, 240
916648765, 1637, 10274, 11432, -5430, 326, -341, -1995, -396, -1331, 1572, 397, 241, 765, 726, 470, 182, 267, 240
916662311, 1800, 10418, 11303, -5375, 434, -302, -1932, -253, -1024, 1519, 397, 241, 765, 726, 470, 182, 267, 240
916670441, 1800, 10418, 11303, -5375, 434, -302, -1932, -253, -1024, 1519, 412, 256, 770, 815, 418, 207, 309, 279
916671286, 1800, 10418, 11303, -5375, 434, -302, -1932, -253, -1024, 1519, 412, 256, 770, 815, 418, 207, 309, 279
916684895, 1939, 10573, 11163, -5316, 383, -206, -1808, -159, -855, 1520, 412, 256, 770, 815, 418, 207, 309, 279
916692980, 1939, 10573, 11163, -5316, 383, -206, -1808, -159, -855, 1520, 448, 280, 690, 830, 485, 239, 322, 326
916693794, 1939, 10573, 11163, -5316, 383, -206, -1808, -159, -855, 1520, 448, 280, 690, 830, 485, 239, 322, 326
916699945, 2039, 10741, 11024, -5231, 368, -16, -1748, -66, -570, 1440, 448, 280, 690, 830, 485, 239, 322, 326
916707956, 2039, 10741, 11024, -5231, 368, -16, -1748, -66, -570, 1440, 469, 247, 655, 820, 481, 275, 317, 350
916708779, 2039, 10741, 11024, -5231, 368, -16, -1748, -66, -570, 1440, 469, 247, 655, 820, 481, 275, 317, 350
916722316, 2079, 10905, 10901, -5134, 264, 9, -1675, 63, -231, 1240, 469, 247, 655, 820, 481, 275, 317, 350
916730457, 2079, 10905, 10901, -5134, 264, 9, -1675, 63, -231, 1240, 485, 264, 573, 847, 559, 317, 353, 362
916731309, 2079, 10905, 10901, -5134, 264, 9, -1675, 63, -231, 1240, 485, 264, 573, 847, 559, 317, 353, 362
916744824, 2031, 11041, 10812, -5048, 196, 57, -1683, 360, 63, 818, 485, 264, 573, 847, 559, 317, 353, 362
916752990, 2031, 11041, 10812, -5048, 196, 57, -1683, 360, 63, 818, 477, 258, 574, 812, 653, 394, 450, 405
916753750, 2031, 11041, 10812, -5048, 196, 57, -1683, 360, 63, 818, 477, 258, 574, 812, 653, 394, 450, 405
916759917, 1952, 11154, 10750, -4963, 128, 102, -1723, 437, 177, 555, 477, 258, 574, 812, 653, 394, 450, 405
916767979, 1952, 11154, 10750, -4963, 128, 102, -1723, 437, 177, 555, 468, 270, 604, 730, 666, 404, 450, 396
916768773, 1952, 11154, 10750, -4963, 128, 102, -1723, 437, 177, 555, 468, 270, 604, 730, 666, 404, 450, 396
916782339, 1872, 11258, 10701, -4865, 53, 139, -1809, 388, 238, 461, 468, 270, 604, 730, 666, 404, 450, 396
916790461, 1872, 11258, 10701, -4865, 53, 139, -1809, 388, 238, 461, 417, 248, 607, 727, 625, 400, 440, 360
916791262, 1872, 11258, 10701, -4865, 53, 139, -1809, 388, 238, 461, 417, 248, 607, 727, 625, 400, 440, 360
916804836, 1808, 11351, 10660, -4762, 3, 144, -1840, 289, 201, 410, 417, 248, 607, 727, 625, 400, 440, 360
916812930, 1808, 11351, 10660, -4762, 3, 144, -1840, 289, 201, 410, 368, 240, 590, 684, 675, 419, 442, 319
916813755, 1808, 11351, 10660, -4762, 3, 144, -1840, 289, 201, 410, 368, 240, 590, 684, 675, 419, 442, 319
916819936, 1726, 11427, 10630, -4674, -24, 132, -1819, 376, 229, 269, 368, 240, 590, 684, 675, 419, 442, 319
916827978, 1726, 11427, 10630, -4674, -24, 132, -1819, 376, 229, 269, 329, 219, 563, 594, 627, 398, 413, 325
916828768, 1726, 11427, 10630, -4674, -24, 132, -1819, 376, 229, 269, 329, 219, 563, 594, 627, 398, 413, 325
916842357, 1644, 11487, 10617, -4586, 12, 225, -1812, 376, 208, 125, 329, 219, 563, 594, 627, 398, 413, 325
916850444, 1644, 11487, 10617, -4586, 12, 225, -1812, 376, 208, 125, 407, 234, 530, 544, 495, 325, 279, 347
916851269, 1644, 11487, 10617, -4586, 12, 225, -1812, 376, 208, 125, 407, 234, 530, 544, 495, 325, 279, 347
916864837, 1569, 11534, 10623, -4482, 2, 237, -1916, 271, 219, 17, 407, 234, 530, 544, 495, 325, 279, 347
916872934, 1569, 11534, 10623, -4482, 2, 237, -1916, 271, 219, 17, 405, 222, 477, 533, 485, 321, 284, 363
916873723, 1569, 11534, 10623, -4482, 2, 237, -1916, 271, 219, 17, 405, 222, 477, 533, 485, 321, 284, 363
916879884, 1520, 11567, 10640, -4369, -2, 148, -1934, 74, 156, -1, 405, 222, 477, 533, 485, 321, 284, 363
916887959, 1520, 11567, 10640, -4369, -2, 148, -1934, 74, 156, -1, 422, 222, 380, 457, 486, 306, 288, 372
916888757, 1520, 11567, 10640, -4369, -2, 148, -1934, 74, 156, -1, 422, 222, 380, 457, 486, 306, 288, 372
916902361, 1482, 11600, 10651, -4267, -129, 89, -1938, 44, 138, 33, 422, 222, 380, 457, 486, 306, 288, 372
916910460, 1482, 11600, 10651, -4267, -129, 89, -1938, 44, 138, 33, 443, 221, 377, 469, 450, 251, 298, 392
916911231, 1482, 11600, 10651, -4267, -129, 89, -1938, 44, 138, 33, 443, 221, 377, 469, 450, 251, 298, 392
916924837, 1464, 11626, 10660, -4179, -238, 146, -1923, 35, 64, 9, 443, 221, 377, 469, 450, 251, 298, 392
916932928, 1464, 11626, 10660, -4179, -238, 146, -1923, 35, 64, 9, 450, 218, 385, 506, 412, 262, 314, 397
916933772, 1464, 11626, 10660, -4179, -238, 146, -1923, 35, 64, 9, 450, 218, 385, 506, 412, 262, 314, 397
916939907, 1475, 11644, 10670, -4099, -349, 217, -1861, -39, -11, -12, 450, 218, 385, 506, 412, 262, 314, 397
916947937, 1475, 11644, 10670, -4099, -349, 217, -1861, -39, -11, -12, 393, 197, 365, 527, 394, 267, 354, 357
916948781, 1475, 11644, 10670, -4099, -349, 217, -1861, -39, -11, -12, 393, 197, 365, 527, 394, 267, 354, 357
916962332, 1524, 11661, 10676, -4020, -542, 270, -1874, -160, -64, 21, 393, 197, 365, 527, 394, 267, 354, 357
916970449, 1524, 11661, 10676, -4020, -542, 270, -1874, -160, -64, 21, 377, 196, 366, 505, 373, 238, 325, 349
916971231, 1524, 11661, 10676, -4020, -542, 270, -1874, -160, -64, 21, 377, 196, 366, 505, 373, 238, 325, 349
916984791, 1609, 11681, 10666, -3953, -579, 280, -1820, -253, -222, 139, 377, 196, 366, 505, 373, 238, 325, 349
916992959, 1609, 11681, 10666, -3953, -579, 280, -1820, -253, -222, 139, 342, 189, 410, 509, 384, 247, 349, 347
916993784, 1609, 11681, 10666, -3953, -579, 280, -1820, -253, -222, 139, 342, 189, 410, 509, 384, 247, 349, 347
916999948, 1692, 11705, 10640, -3915, -358, 89, -1714, -229, -407, 268, 342, 189, 410, 509, 384, 247, 349, 347
917007928, 1692, 11705, 10640, -3915, -358, 89, -1714, -229, -407, 268, 375, 194, 437, 445, 408, 250, 344, 342
917008753, 1692, 11705, 10640, -3915, -358, 89, -1714, -229, -407, 268, 375, 194, 437, 445, 408, 250, 344, 342
917022352, 1751, 11732, 10607, -3899, -110, -53, -1652, -116, -519, 321, 375, 194, 437, 445, 408, 250, 344, 342
917030523, 1751, 11732, 10607, -3899, -110, -53, -1652, -116, -519, 321, 406, 212, 522, 429, 390, 222, 333, 348
917031319, 1751, 11732, 10607, -3899, -110, -53, -1652, -116, -519, 321, 406, 212, 522, 429, 390, 222, 333, 348
917044838, 1786, 11766, 10571, -3879, 97, -109, -1657, -60, -503, 365, 406, 212, 522, 429, 390, 222, 333, 348
917053001, 1786, 11766, 10571, -3879, 97, -109, -1657, -60, -503, 365, 383, 218, 544, 421, 396, 206, 255, 310
917053814, 1786, 11766, 10571, -3879, 97, -109, -1657, -60, -503, 365, 383, 218, 544, 421, 396, 206, 255, 310
917059949, 1796, 11805, 10541, -3836, 214, -58, -1706, -21, -374, 330, 383, 218, 544, 421, 396, 206, 255, 310
917067929, 1796, 11805, 10541, -3836, 214, -58, -1706, -21, -374, 330, 442, 222, 556, 431, 399, 199, 256, 379
917068790, 1796, 11805, 10541, -3836, 214, -58, -1706, -21, -374, 330, 442, 222, 556, 431, 399, 199, 256, 379
917082340, 1784, 11844, 10522, -3775, 307, -52, -1782, -14, -280, 278, 442, 222, 556, 431, 399, 199, 256, 379
917090480, 1784, 11844, 10522, -3775, 307, -52, -1782, -14, -280, 278, 490, 232, 538, 417, 390, 194, 256, 444
917091309, 1784, 11844, 10522, -3775, 307, -52, -1782, -14, -280, 278, 490, 232, 538, 417, 390, 194, 256, 444
917104834, 1750, 11877, 10512, -3712, 295, -41, -1824, 63, -193, 184, 490, 232, 538, 417, 390, 194, 256, 444
917112969, 1750, 11877, 10512, -3712, 295, -41, -1824, 63, -193, 184, 464, 233, 508, 488, 340, 201, 259, 445
917113757, 1750, 11877, 10512, -3712, 295, -41, -1824, 63, -193, 184, 464, 233, 508, 488, 340, 201, 259, 445
917119950, 1712, 11901, 10512, -3655, 287, 11, -1804, 103, -191, 90, 464, 233, 508, 488, 340, 201, 259, 445
917127254, 1712, 11901, 10512, -3655, 287, 11, -1804, 103, -191, 90, 419, 216, 374, 463, 322, 192, 246, 413
917134768, 1712, 11901, 10512, -3655, 287, 11, -1804, 103, -191, 90, 419, 216, 374, 463, 322, 192, 246, 413
917142442, 1664, 11919, 10519, -3597, 251, 34, -1775, 132, -120, 21, 419, 216, 374, 463, 322, 192, 246, 413
917150470, 1664, 11919, 10519, -3597, 251, 34, -1775, 132, -120, 21, 422, 214, 330, 432, 285, 168, 255, 430
917151236, 1664, 11919, 10519, -3597, 251, 34, -1775, 132, -120, 21, 422, 214, 330, 432, 285, 168, 255, 430
917165362, 1616, 11935, 10531, -3529, 126, 106, -1769, 129, -15, -33, 422, 214, 330, 432, 285, 168, 255, 430
917172959, 1616, 11935, 10531, -3529, 126, 106, -1769, 129, -15, -33, 355, 185, 298, 389, 244, 160, 250, 372
917173740, 1616, 11935, 10531, -3529, 126, 106, -1769, 129, -15, -33, 355, 185, 298, 389, 244, 160, 250, 372
917179895, 1571, 11950, 10544, -3460, 40, 125, -1754, 109, 32, -42, 355, 185, 298, 389, 244, 160, 250, 372
917195406, 1571, 11950, 10544, -3460, 40, 125, -1754, 109, 32, -42, 289, 173, 259, 394, 263, 189, 215, 275
917196258, 1571, 11950, 10544, -3460, 40, 125, -1754, 109, 32, -42, 289, 173, 259, 394, 263, 189, 215, 275
917202384, 1523, 11966, 10553, -3399, -23, 127, -1798, 167, 44, -35, 289, 173, 259, 394, 263, 189, 215, 275
917210428, 1523, 11966, 10553, -3399, -23, 127, -1798, 167, 44, -35, 259, 153, 235, 294, 232, 167, 205, 256
917211241, 1523, 11966, 10553, -3399, -23, 127, -1798, 167, 44, -35, 259, 153, 235, 294, 232, 167, 205, 256
917224807, 1487, 11987, 10553, -3340, -62, 171, -1760, 155, 25, 19, 259, 153, 235, 294, 232, 167, 205, 256
917232945, 1487, 11987, 10553, -3340, -62, 171, -1760, 155, 25, 19, 244, 145, 227, 299, 236, 162, 212, 266
917233732, 1487, 11987, 10553, -3340, -62, 171, -1760, 155, 25, 19, 244, 145, 227, 299, 236, 162, 212, 266
917239911, 1451, 12016, 10546, -3275, -73, 183, -1742, 149, 71, 80, 244, 145, 227, 299, 236, 162, 212, 266
917255485, 1451, 12016, 10546, -3275, -73, 183, -1742, 149, 71, 80, 215, 145, 235, 410, 266, 188, 318, 246
917256295, 1451, 12016, 10546, -3275, -73, 183, -1742, 149, 71, 80, 215, 145, 235, 410, 266, 188, 318, 246
917262434, 1417, 12050, 10533, -3202, -64, 169, -1757, 106, 102, 132, 215, 145, 235, 410, 266, 188, 318, 246
917270419, 1417, 12050, 10533, -3202, -64, 169, -1757, 106, 102, 132, 208, 146, 236, 408, 278, 207, 334, 224
917271234, 1417, 12050, 10533, -3202, -64, 169, -1757, 106, 102, 132, 208, 146, 236, 408, 278, 207, 334, 224
917284808, 1394, 12085, 10517, -3133, -112, 193, -1801, 99, 68, 151, 208, 146, 236, 408, 278, 207, 334, 224
917292946, 1394, 12085, 10517, -3133, -112, 193, -1801, 99, 68, 151, 206, 139, 232, 416, 270, 184, 335, 223
917293730, 1394, 12085, 10517, -3133, -112, 193, -1801, 99, 68, 151, 206, 139, 232, 416, 270, 184, 335, 223
917299939, 1383, 12116, 10502, -3070, -74, 207, -1777, 68, -14, 143, 206, 139, 232, 416, 270, 184, 335, 223
917315509, 1383, 12116, 10502, -3070, -74, 207, -1777, 68, -14, 143, 208, 133, 235, 440, 301, 186, 335, 217
917316270, 1383, 12116, 10502, -3070, -74, 207, -1777, 68, -14, 143, 208, 133, 235, 440, 301, 186, 335, 217
917322413, 1373, 12141, 10492, -3008, -10, 200, -1761, 46, -45, 107, 208, 133, 235, 440, 301, 186, 335, 217
917330407, 1373, 12141, 10492, -3008, -10, 200, -1761, 46, -45, 107, 207, 131, 245, 473, 307, 205, 354, 212
917331260, 1373, 12141, 10492, -3008, -10, 200, -1761, 46, -45, 107, 207, 131, 245, 473, 307, 205, 354, 212
917353674, 1362, 12158, 10493, -2939, 25, 211, -1753, 11, -29, 33, 207, 131, 245, 473, 307, 205, 354, 212
917354446, 1362, 12158, 10493, -2939, 25, 211, -1753, 11, -29, 33, 203, 119, 272, 420, 305, 185, 265, 180
917355283, 1362, 12158, 10493, -2939, 25, 211, -1753, 11, -29, 33, 203, 119, 272, 420, 305, 185, 265, 180
917374811, 1349, 12166, 10505, -2867, 46, 187, -1758, -17, -15, -34, 203, 119, 272, 420, 305, 185, 265, 180
917382920, 1349, 12166, 10505, -2867, 46, 187, -1758, -17, -15, -34, 214, 114, 255, 441, 310, 160, 244, 205
917383711, 1349, 12166, 10505, -2867, 46, 187, -1758, -17, -15, -34, 214, 114, 255, 441, 310, 160, 244, 205
