Timestamp, Orientation x, Orientation y, Orientation z, Orientation w, Acceleration x, Acceleration y, Acceleration z, Rotation x, Rotation y, Rotation z, EMG 0, EMG 1, EMG 2, EMG 3, EMG 4, EMG 5, EMG 6, EMG 7
639539709, -3256, 10720, 11780, -2035, 1953, -1531, -2211, 1043, 809, -31, 0, 0, 0, 0, 0, 0, 0, 0
639540513, -3689, 10648, 11739, -1904, 1975, -1403, -2400, 1101, 1485, -222, 0, 0, 0, 0, 0, 0, 0, 0
639546530, -4109, 10597, 11666, -1772, 2104, -1339, -2393, 1113, 2047, -285, 0, 0, 0, 0, 0, 0, 0, 0
639561555, -4613, 10525, 11565, -1620, 2069, -1260, -2421, 1405, 2517, -349, 0, 0, 0, 0, 0, 0, 0, 0
639584070, -5181, 10397, 11468, -1404, 2079, -1177, -2330, 1487, 2985, -722, 0, 0, 0, 0, 0, 0, 0, 0
639599036, -5181, 10397, 11468, -1404, 2079, -1177, -2330, 1487, 2985, -722, 57, 59, 451, 238, 242, 108, 69, 40
639607191, -5181, 10397, 11468, -1404, 2079, -1177, -2330, 1487, 2985, -722, 57, 59, 451, 238, 242, 108, 69, 40
639608106, -5780, 10205, 11387, -1101, 2054, -1138, -2397, 1378, 3400, -1202, 57, 59, 451, 238, 242, 108, 69, 40
639622831, -5780, 10205, 11387, -1101, 2054, -1138, -2397, 1378, 3400, -1202, 63, 55, 533, 216, 194, 122, 108, 46
639623658, -5780, 10205, 11387, -1101, 2054, -1138, -2397, 1378, 3400, -1202, 63, 55, 533, 216, 194, 122, 108, 46
639624634, -6370, 9949, 11331, -690, 2072, -1124, -2466, 1059, 3709, -1769, 63, 55, 533, 216, 194, 122, 108, 46
639645376, -6370, 9949, 11331, -690, 2072, -1124, -2466, 1059, 3709, -1769, 76, 57, 634, 134, 186, 128, 115, 48
639646209, -6370, 9949, 11331, -690, 2072, -1124, -2466, 1059, 3709, -1769, 76, 57, 634, 134, 186, 128, 115, 48
639647109, -6929, 9614, 11311, -184, 2182, -1242, -2526, 746, 3858, -2409, 76, 57, 634, 134, 186, 128, 115, 48
639667845, -6929, 9614, 11311, -184, 2182, -1242, -2526, 746, 3858, -2409, 94, 84, 664, 81, 127, 124, 154, 57
639668658, -6929, 9614, 11311, -184, 2182, -1242, -2526, 746, 3858, -2409, 94, 84, 664, 81, 127, 124, 154, 57
639669656, -7439, 9221, 11309, 382, 2295, -1376, -2591, 481, 3856, -2863, 94, 84, 664, 81, 127, 124, 154, 57
639682829, -7439, 9221, 11309, 382, 2295, -1376, -2591, 481, 3856, -2863, 95, 84, 650, 77, 108, 136, 159, 56
639683632, -7439, 9221, 11309, 382, 2295, -1376, -2591, 481, 3856, -2863, 95, 84, 650, 77, 108, 136, 159, 56
639684674, -7884, 8777, 11326, 975, 2419, -1560, -2690, 290, 3696, -3238, 95, 84, 650, 77, 108, 136, 159, 56
639705346, -7884, 8777, 11326, 975, 2419, -1560, -2690, 290, 3696, -3238, 97, 86, 525, 74, 94, 130, 161, 54
639706151, -7884, 8777, 11326, 975, 2419, -1560, -2690, 290, 3696, -3238, 97, 86, 525, 74, 94, 130, 161, 54
639707099, -8287, 8290, 11336, 1582, 2597, -1481, -2733, 225, 3649, -3446, 97, 86, 525, 74, 94, 130, 161, 54
639727822, -8287, 8290, 11336, 1582, 2597, -1481, -2733, 225, 3649, -3446, 90, 96, 447, 124, 108, 116, 199, 52
639728632, -8287, 8290, 11336, 1582, 2597, -1481, -2733, 225, 3649, -3446, 90, 96, 447, 124, 108, 116, 199, 52
639729674, -8636, 7788, 11327, 2212, 2694, -1628, -2828, -1, 3617, -3594, 90, 96, 447, 124, 108, 116, 199, 52
639742872, -8636, 7788, 11327, 2212, 2694, -1628, -2828, -1, 3617, -3594, 79, 96, 278, 134, 109, 176, 205, 59
639743757, -8636, 7788, 11327, 2212, 2694, -1628, -2828, -1, 3617, -3594, 79, 96, 278, 134, 109, 176, 205, 59
639745213, -8936, 7261, 11307, 2831, 2838, -1484, -2720, -32, 3466, -3680, 79, 96, 278, 134, 109, 176, 205, 59
639765363, -8936, 7261, 11307, 2831, 2838, -1484, -2720, -32, 3466, -3680, 40, 66, 154, 140, 108, 177, 178, 54
639766134, -8936, 7261, 11307, 2831, 2838, -1484, -2720, -32, 3466, -3680, 40, 66, 154, 140, 108, 177, 178, 54
639767064, -9175, 6771, 11250, 3441, 3222, -1404, -2609, -312, 3296, -3490, 40, 66, 154, 140, 108, 177, 178, 54
639790710, -9175, 6771, 11250, 3441, 3222, -1404, -2609, -312, 3296, -3490, 55, 95, 145, 163, 141, 168, 180, 56
639790717, -9175, 6771, 11250, 3441, 3222, -1404, -2609, -312, 3296, -3490, 55, 95, 145, 163, 141, 168, 180, 56
639790720, -9347, 6347, 11168, 4005, 3427, -1465, -2607, -545, 2957, -3151, 55, 95, 145, 163, 141, 168, 180, 56
639802140, -9347, 6347, 11168, 4005, 3427, -1465, -2607, -545, 2957, -3151, 57, 110, 120, 195, 146, 167, 172, 56
639802953, -9347, 6347, 11168, 4005, 3427, -1465, -2607, -545, 2957, -3151, 57, 110, 120, 195, 146, 167, 172, 56
639809108, -9444, 5978, 11082, 4548, 3565, -1382, -2293, -815, 2545, -2989, 57, 110, 120, 195, 146, 167, 172, 56
639825371, -9444, 5978, 11082, 4548, 3565, -1382, -2293, -815, 2545, -2989, 67, 122, 95, 255, 161, 164, 109, 68
639826140, -9444, 5978, 11082, 4548, 3565, -1382, -2293, -815, 2545, -2989, 67, 122, 95, 255, 161, 164, 109, 68
639827084, -9480, 5613, 11001, 5101, 3684, -1325, -2308, -1002, 2340, -3135, 67, 122, 95, 255, 161, 164, 109, 68
639847811, -9480, 5613, 11001, 5101, 3684, -1325, -2308, -1002, 2340, -3135, 70, 125, 86, 262, 171, 100, 93, 69
639848632, -9480, 5613, 11001, 5101, 3684, -1325, -2308, -1002, 2340, -3135, 70, 125, 86, 262, 171, 100, 93, 69
639849624, -9470, 5245, 10911, 5672, 3860, -1255, -2264, -1168, 2243, -3300, 70, 125, 86, 262, 171, 100, 93, 69
639861527, -9441, 4826, 10787, 6296, 3955, -1294, -2299, -1264, 2229, -3419, 70, 125, 86, 262, 171, 100, 93, 69
639869657, -9441, 4826, 10787, 6296, 3955, -1294, -2299, -1264, 2229, -3419, 77, 126, 97, 260, 169, 84, 89, 65
639870493, -9441, 4826, 10787, 6296, 3955, -1294, -2299, -1264, 2229, -3419, 77, 126, 97, 260, 169, 84, 89, 65
639885393, -9397, 4368, 10678, 6856, 3995, -1321, -2307, -897, 2095, -3411, 77, 126, 97, 260, 169, 84, 89, 65
639886182, -9397, 4368, 10678, 6856, 3995, -1321, -2307, -897, 2095, -3411, 67, 106, 93, 248, 145, 82, 72, 63
639887033, -9397, 4368, 10678, 6856, 3995, -1321, -2307, -897, 2095, -3411, 67, 106, 93, 248, 145, 82, 72, 63
639907849, -9338, 3910, 10598, 7323, 3930, -1198, -2244, -509, 1813, -3190, 67, 106, 93, 248, 145, 82, 72, 63
639908657, -9338, 3910, 10598, 7323, 3930, -1198, -2244, -509, 1813, -3190, 62, 91, 82, 233, 148, 82, 69, 65
639909513, -9338, 3910, 10598, 7323, 3930, -1198, -2244, -509, 1813, -3190, 62, 91, 82, 233, 148, 82, 69, 65
639921509, -9267, 3482, 10552, 7686, 3910, -1028, -2112, -155, 1445, -2825, 62, 91, 82, 233, 148, 82, 69, 65
639929624, -9267, 3482, 10552, 7686, 3910, -1028, -2112, -155, 1445, -2825, 50, 61, 73, 142, 121, 79, 43, 49
639930427, -9267, 3482, 10552, 7686, 3910, -1028, -2112, -155, 1445, -2825, 50, 61, 73, 142, 121, 79, 43, 49
639945338, -9186, 3108, 10521, 7981, 3855, -902, -1931, -63, 1139, -2459, 50, 61, 73, 142, 121, 79, 43, 49
639946135, -9186, 3108, 10521, 7981, 3855, -902, -1931, -63, 1139, -2459, 48, 51, 65, 133, 119, 66, 42, 41
639946983, -9186, 3108, 10521, 7981, 3855, -902, -1931, -63, 1139, -2459, 48, 51, 65, 133, 119, 66, 42, 41
639967863, -9094, 2793, 10494, 8234, 3853, -827, -1848, -94, 882, -2150, 48, 51, 65, 133, 119, 66, 42, 41
639968709, -9094, 2793, 10494, 8234, 3853, -827, -1848, -94, 882, -2150, 35, 42, 44, 134, 122, 59, 37, 36
639969485, -9094, 2793, 10494, 8234, 3853, -827, -1848, -94, 882, -2150, 35, 42, 44, 134, 122, 59, 37, 36
639981560, -9003, 2539, 10470, 8444, 3911, -756, -1802, -114, 663, -1794, 35, 42, 44, 134, 122, 59, 37, 36
639989635, -9003, 2539, 10470, 8444, 3911, -756, -1802, -114, 663, -1794, 31, 42, 41, 136, 129, 53, 38, 35
639990461, -9003, 2539, 10470, 8444, 3911, -756, -1802, -114, 663, -1794, 31, 42, 41, 136, 129, 53, 38, 35
640005361, -8913, 2349, 10451, 8617, 3941, -662, -1749, -172, 434, -1457, 31, 42, 41, 136, 129, 53, 38, 35
640006150, -8913, 2349, 10451, 8617, 3941, -662, -1749, -172, 434, -1457, 35, 43, 67, 143, 120, 50, 36, 32
640006956, -8913, 2349, 10451, 8617, 3941, -662, -1749, -172, 434, -1457, 35, 43, 67, 143, 120, 50, 36, 32
640027902, -8822, 2243, 10413, 8782, 3965, -606, -1791, -448, 236, -1117, 35, 43, 67, 143, 120, 50, 36, 32
640028728, -8822, 2243, 10413, 8782, 3965, -606, -1791, -448, 236, -1117, 36, 58, 75, 151, 113, 46, 36, 32
640029494, -8822, 2243, 10413, 8782, 3965, -606, -1791, -448, 236, -1117, 36, 58, 75, 151, 113, 46, 36, 32
640041562, -8740, 2221, 10349, 8944, 3951, -612, -1817, -767, 89, -767, 36, 58, 75, 151, 113, 46, 36, 32
640049635, -8740, 2221, 10349, 8944, 3951, -612, -1817, -767, 89, -767, 34, 63, 99, 154, 99, 36, 34, 28
640050468, -8740, 2221, 10349, 8944, 3951, -612, -1817, -767, 89, -767, 34, 63, 99, 154, 99, 36, 34, 28
640065391, -8668, 2260, 10272, 9091, 3844, -813, -1828, -928, -33, -458, 34, 63, 99, 154, 99, 36, 34, 28
640066158, -8668, 2260, 10272, 9091, 3844, -813, -1828, -928, -33, -458, 36, 66, 100, 152, 93, 39, 35, 28
640066993, -8668, 2260, 10272, 9091, 3844, -813, -1828, -928, -33, -458, 36, 66, 100, 152, 93, 39, 35, 28
640087796, -8607, 2324, 10218, 9195, 3732, -917, -1854, -768, -171, -232, 36, 66, 100, 152, 93, 39, 35, 28
640088609, -8607, 2324, 10218, 9195, 3732, -917, -1854, -768, -171, -232, 42, 89, 110, 150, 81, 38, 35, 32
640089434, -8607, 2324, 10218, 9195, 3732, -917, -1854, -768, -171, -232, 42, 89, 110, 150, 81, 38, 35, 32
640101486, -8560, 2389, 10199, 9242, 3720, -972, -1963, -453, -279, -45, 42, 89, 110, 150, 81, 38, 35, 32
640109689, -8560, 2389, 10199, 9242, 3720, -972, -1963, -453, -279, -45, 57, 126, 151, 199, 117, 49, 40, 42
640110460, -8560, 2389, 10199, 9242, 3720, -972, -1963, -453, -279, -45, 57, 126, 151, 199, 117, 49, 40, 42
640125387, -8531, 2468, 10207, 9239, 3819, -894, -1967, -219, -373, 183, 57, 126, 151, 199, 117, 49, 40, 42
640126182, -8531, 2468, 10207, 9239, 3819, -894, -1967, -219, -373, 183, 112, 174, 150, 190, 124, 50, 42, 90
640126993, -8531, 2468, 10207, 9239, 3819, -894, -1967, -219, -373, 183, 112, 174, 150, 190, 124, 50, 42, 90
640147830, -8514, 2543, 10232, 9207, 3919, -1030, -2011, -44, -400, 278, 112, 174, 150, 190, 124, 50, 42, 90
640148641, -8514, 2543, 10232, 9207, 3919, -1030, -2011, -44, -400, 278, 129, 191, 143, 182, 123, 49, 41, 98
640149466, -8514, 2543, 10232, 9207, 3919, -1030, -2011, -44, -400, 278, 129, 191, 143, 182, 123, 49, 41, 98
640161523, -8500, 2562, 10302, 9136, 3860, -965, -1924, 401, -373, 169, 129, 191, 143, 182, 123, 49, 41, 98
640169682, -8500, 2562, 10302, 9136, 3860, -965, -1924, 401, -373, 169, 134, 199, 145, 181, 120, 49, 41, 99
640170494, -8500, 2562, 10302, 9136, 3860, -965, -1924, 401, -373, 169, 134, 199, 145, 181, 120, 49, 41, 99
640185363, -8502, 2555, 10403, 9022, 3784, -640, -1842, 735, -366, 225, 134, 199, 145, 181, 120, 49, 41, 99
640186179, -8502, 2555, 10403, 9022, 3784, -640, -1842, 735, -366, 225, 135, 204, 141, 179, 113, 48, 39, 100
640187017, -8502, 2555, 10403, 9022, 3784, -640, -1842, 735, -366, 225, 135, 204, 141, 179, 113, 48, 39, 100
640207850, -8520, 2559, 10499, 8891, 3894, -496, -1816, 764, -343, 364, 135, 204, 141, 179, 113, 48, 39, 100
640208656, -8520, 2559, 10499, 8891, 3894, -496, -1816, 764, -343, 364, 130, 187, 95, 97, 68, 33, 30, 101
640209501, -8520, 2559, 10499, 8891, 3894, -496, -1816, 764, -343, 364, 130, 187, 95, 97, 68, 33, 30, 101
640221531, -8547, 2580, 10569, 8775, 3976, -392, -1832, 591, -268, 436, 130, 187, 95, 97, 68, 33, 30, 101
640229661, -8547, 2580, 10569, 8775, 3976, -392, -1832, 591, -268, 436, 93, 162, 91, 92, 47, 31, 30, 93
640230435, -8547, 2580, 10569, 8775, 3976, -392, -1832, 591, -268, 436, 93, 162, 91, 92, 47, 31, 30, 93
640245358, -8570, 2619, 10615, 8686, 3975, -159, -1797, 367, -248, 425, 93, 162, 91, 92, 47, 31, 30, 93
640246142, -8570, 2619, 10615, 8686, 3975, -159, -1797, 367, -248, 425, 67, 141, 84, 85, 43, 32, 30, 85
640246974, -8570, 2619, 10615, 8686, 3975, -159, -1797, 367, -248, 425, 67, 141, 84, 85, 43, 32, 30, 85
640267859, -8588, 2686, 10641, 8615, 3984, -324, -1722, 154, -274, 486, 67, 141, 84, 85, 43, 32, 30, 85
640268699, -8588, 2686, 10641, 8615, 3984, -324, -1722, 154, -274, 486, 60, 130, 81, 92, 57, 31, 30, 84
640269486, -8588, 2686, 10641, 8615, 3984, -324, -1722, 154, -274, 486, 60, 130, 81, 92, 57, 31, 30, 84
640281578, -8596, 2743, 10683, 8537, 3842, -943, -1687, 248, -335, 418, 60, 130, 81, 92, 57, 31, 30, 84
640289643, -8596, 2743, 10683, 8537, 3842, -943, -1687, 248, -335, 418, 52, 107, 77, 94, 62, 51, 44, 84
640290462, -8596, 2743, 10683, 8537, 3842, -943, -1687, 248, -335, 418, 52, 107, 77, 94, 62, 51, 44, 84
640305362, -8609, 2743, 10770, 8413, 3761, -1194, -1926, 719, -323, 320, 52, 107, 77, 94, 62, 51, 44, 84
640306158, -8609, 2743, 10770, 8413, 3761, -1194, -1926, 719, -323, 320, 53, 100, 71, 225, 177, 79, 61, 105
640306947, -8609, 2743, 10770, 8413, 3761, -1194, -1926, 719, -323, 320, 53, 100, 71, 225, 177, 79, 61, 105
640327882, -8650, 2722, 10864, 8256, 3789, -1163, -1897, 945, -211, 411, 53, 100, 71, 225, 177, 79, 61, 105
640328682, -8650, 2722, 10864, 8256, 3789, -1163, -1897, 945, -211, 411, 48, 61, 93, 261, 216, 127, 98, 131
640329515, -8650, 2722, 10864, 8256, 3789, -1163, -1897, 945, -211, 411, 48, 61, 93, 261, 216, 127, 98, 131
640341537, -8719, 2780, 10893, 8125, 3712, -1635, -1804, 457, -117, 771, 48, 61, 93, 261, 216, 127, 98, 131
640349646, -8719, 2780, 10893, 8125, 3712, -1635, -1804, 457, -117, 771, 69, 71, 123, 278, 246, 170, 162, 236
640350467, -8719, 2780, 10893, 8125, 3712, -1635, -1804, 457, -117, 771, 69, 71, 123, 278, 246, 170, 162, 236
640365348, -8818, 2907, 10859, 8017, 3833, -1915, -2012, 25, 13, 1100, 69, 71, 123, 278, 246, 170, 162, 236
640366149, -8818, 2907, 10859, 8017, 3833, -1915, -2012, 25, 13, 1100, 76, 70, 136, 282, 250, 192, 177, 257
640366990, -8818, 2907, 10859, 8017, 3833, -1915, -2012, 25, 13, 1100, 76, 70, 136, 282, 250, 192, 177, 257
640387808, -8992, 3070, 10802, 7839, 4019, -2023, -1947, 189, 194, 1673, 76, 70, 136, 282, 250, 192, 177, 257
640388644, -8992, 3070, 10802, 7839, 4019, -2023, -1947, 189, 194, 1673, 85, 84, 149, 300, 324, 322, 202, 264
640389435, -8992, 3070, 10802, 7839, 4019, -2023, -1947, 189, 194, 1673, 85, 84, 149, 300, 324, 322, 202, 264
640401492, -9210, 3312, 10700, 7625, 4140, -1903, -1766, -3, 242, 2241, 85, 84, 149, 300, 324, 322, 202, 264
640409687, -9210, 3312, 10700, 7625, 4140, -1903, -1766, -3, 242, 2241, 92, 121, 147, 234, 324, 378, 232, 263
640410460, -9210, 3312, 10700, 7625, 4140, -1903, -1766, -3, 242, 2241, 92, 121, 147, 234, 324, 378, 232, 263
640425385, -9443, 3662, 10548, 7388, 4271, -1702, -1754, -364, 152, 2805, 92, 121, 147, 234, 324, 378, 232, 263
640426157, -9443, 3662, 10548, 7388, 4271, -1702, -1754, -364, 152, 2805, 102, 127, 137, 233, 315, 372, 269, 250
640427021, -9443, 3662, 10548, 7388, 4271, -1702, -1754, -364, 152, 2805, 102, 127, 137, 233, 315, 372, 269, 250
640447837, -9682, 4090, 10376, 7092, 4300, -1702, -1779, -451, -40, 3316, 102, 127, 137, 233, 315, 372, 269, 250
640448672, -9682, 4090, 10376, 7092, 4300, -1702, -1779, -451, -40, 3316, 89, 143, 112, 223, 309, 356, 262, 160
640449482, -9682, 4090, 10376, 7092, 4300, -1702, -1779, -451, -40, 3316, 89, 143, 112, 223, 309, 356, 262, 160
640461509, -9900, 4578, 10204, 6732, 4235, -1694, -1972, -451, -340, 3689, 89, 143, 112, 223, 309, 356, 262, 160
640469644, -9900, 4578, 10204, 6732, 4235, -1694, -1972, -451, -340, 3689, 87, 148, 93, 243, 325, 347, 255, 128
640470437, -9900, 4578, 10204, 6732, 4235, -1694, -1972, -451, -340, 3689, 87, 148, 93, 243, 325, 347, 255, 128
640485342, -10098, 5093, 10036, 6308, 4210, -1710, -2063, -342, -590, 3953, 87, 148, 93, 243, 325, 347, 255, 128
640486128, -10098, 5093, 10036, 6308, 4210, -1710, -2063, -342, -590, 3953, 80, 145, 71, 238, 269, 232, 241, 112
640486943, -10098, 5093, 10036, 6308, 4210, -1710, -2063, -342, -590, 3953, 80, 145, 71, 238, 269, 232, 241, 112
640507866, -10282, 5605, 9872, 5817, 4077, -1834, -2176, -116, -765, 4130, 80, 145, 71, 238, 269, 232, 241, 112
640508655, -10282, 5605, 9872, 5817, 4077, -1834, -2176, -116, -765, 4130, 70, 125, 84, 247, 248, 119, 218, 95
640509476, -10282, 5605, 9872, 5817, 4077, -1834, -2176, -116, -765, 4130, 70, 125, 84, 247, 248, 119, 218, 95
640521510, -10442, 6107, 9717, 5260, 4072, -1700, -2201, 116, -980, 4267, 70, 125, 84, 247, 248, 119, 218, 95
640529662, -10442, 6107, 9717, 5260, 4072, -1700, -2201, 116, -980, 4267, 52, 118, 86, 212, 242, 109, 156, 74
640530456, -10442, 6107, 9717, 5260, 4072, -1700, -2201, 116, -980, 4267, 52, 118, 86, 212, 242, 109, 156, 74
640543987, -10577, 6581, 9560, 4675, 3957, -1513, -2160, 245, -1064, 4234, 52, 118, 86, 212, 242, 109, 156, 74
640552121, -10577, 6581, 9560, 4675, 3957, -1513, -2160, 245, -1064, 4234, 50, 88, 80, 218, 227, 100, 109, 58
640552923, -10577, 6581, 9560, 4675, 3957, -1513, -2160, 245, -1064, 4234, 50, 88, 80, 218, 227, 100, 109, 58
640567817, -10650, 7056, 9414, 4071, 3769, -1426, -2117, 251, -1089, 4136, 50, 88, 80, 218, 227, 100, 109, 58
640568656, -10650, 7056, 9414, 4071, 3769, -1426, -2117, 251, -1089, 4136, 41, 76, 82, 205, 207, 94, 101, 52
640569434, -10650, 7056, 9414, 4071, 3769, -1426, -2117, 251, -1089, 4136, 41, 76, 82, 205, 207, 94, 101, 52
640581495, -10689, 7500, 9256, 3501, 3588, -1394, -2086, 174, -1052, 3941, 41, 76, 82, 205, 207, 94, 101, 52
640589654, -10689, 7500, 9256, 3501, 3588, -1394, -2086, 174, -1052, 3941, 37, 71, 102, 213, 191, 89, 85, 52
640590475, -10689, 7500, 9256, 3501, 3588, -1394, -2086, 174, -1052, 3941, 37, 71, 102, 213, 191, 89, 85, 52
640603965, -10695, 7905, 9094, 2976, 3363, -1233, -2119, 99, -994, 3665, 37, 71, 102, 213, 191, 89, 85, 52
640612172, -10695, 7905, 9094, 2976, 3363, -1233, -2119, 99, -994, 3665, 33, 51, 86, 191, 145, 64, 73, 41
640612932, -10695, 7905, 9094, 2976, 3363, -1233, -2119, 99, -994, 3665, 33, 51, 86, 191, 145, 64, 73, 41
640627860, -10680, 8279, 8924, 2488, 3200, -1013, -2016, 50, -930, 3488, 33, 51, 86, 191, 145, 64, 73, 41
640628657, -10680, 8279, 8924, 2488, 3200, -1013, -2016, 50, -930, 3488, 30, 45, 83, 196, 135, 50, 94, 40
640629501, -10680, 8279, 8924, 2488, 3200, -1013, -2016, 50, -930, 3488, 30, 45, 83, 196, 135, 50, 94, 40
640641510, -10624, 8666, 8732, 2054, 2960, -1002, -1920, -291, -863, 3369, 30, 45, 83, 196, 135, 50, 94, 40
640649649, -10624, 8666, 8732, 2054, 2960, -1002, -1920, -291, -863, 3369, 49, 64, 117, 191, 134, 67, 112, 66
640650436, -10624, 8666, 8732, 2054, 2960, -1002, -1920, -291, -863, 3369, 49, 64, 117, 191, 134, 67, 112, 66
640664020, -10511, 9067, 8541, 1671, 2704, -978, -1949, -650, -900, 3189, 49, 64, 117, 191, 134, 67, 112, 66
640672107, -10511, 9067, 8541, 1671, 2704, -978, -1949, -650, -900, 3189, 64, 76, 144, 189, 122, 91, 121, 79
640672919, -10511, 9067, 8541, 1671, 2704, -978, -1949, -650, -900, 3189, 64, 76, 144, 189, 122, 91, 121, 79
640687824, -10362, 9494, 8315, 1329, 2608, -1006, -1988, -983, -788, 3222, 64, 76, 144, 189, 122, 91, 121, 79
640688631, -10362, 9494, 8315, 1329, 2608, -1006, -1988, -983, -788, 3222, 137, 214, 323, 196, 265, 292, 235, 160
640689433, -10362, 9494, 8315, 1329, 2608, -1006, -1988, -983, -788, 3222, 137, 214, 323, 196, 265, 292, 235, 160
640701483, -10205, 9936, 8030, 1035, 2554, -714, -1959, -1212, -478, 3320, 137, 214, 323, 196, 265, 292, 235, 160
640709641, -10205, 9936, 8030, 1035, 2554, -714, -1959, -1212, -478, 3320, 217, 388, 539, 267, 386, 390, 293, 225
640710460, -10205, 9936, 8030, 1035, 2554, -714, -1959, -1212, -478, 3320, 217, 388, 539, 267, 386, 390, 293, 225
640723966, -9974, 10404, 7751, 801, 2266, -390, -2219, -1673, -500, 3155, 217, 388, 539, 267, 386, 390, 293, 225
640732131, -9974, 10404, 7751, 801, 2266, -390, -2219, -1673, -500, 3155, 239, 481, 659, 324, 417, 399, 293, 237
640732997, -9974, 10404, 7751, 801, 2266, -390, -2219, -1673, -500, 3155, 239, 481, 659, 324, 417, 399, 293, 237
640747869, -9657, 10901, 7482, 594, 2003, -830, -2427, -2137, -673, 3027, 239, 481, 659, 324, 417, 399, 293, 237
640748663, -9657, 10901, 7482, 594, 2003, -830, -2427, -2137, -673, 3027, 250, 510, 742, 356, 429, 402, 291, 238
640749484, -9657, 10901, 7482, 594, 2003, -830, -2427, -2137, -673, 3027, 250, 510, 742, 356, 429, 402, 291, 238
640761534, -9291, 11389, 7228, 362, 1776, -1009, -2552, -2224, -954, 3000, 250, 510, 742, 356, 429, 402, 291, 238
640769638, -9291, 11389, 7228, 362, 1776, -1009, -2552, -2224, -954, 3000, 255, 517, 744, 384, 445, 407, 293, 239
640770427, -9291, 11389, 7228, 362, 1776, -1009, -2552, -2224, -954, 3000, 255, 517, 744, 384, 445, 407, 293, 239
640784009, -8940, 11864, 6908, 157, 1728, -1081, -2634, -2193, -625, 3138, 255, 517, 744, 384, 445, 407, 293, 239
640792132, -8940, 11864, 6908, 157, 1728, -1081, -2634, -2193, -625, 3138, 227, 488, 711, 419, 399, 302, 215, 196
640792906, -8940, 11864, 6908, 157, 1728, -1081, -2634, -2193, -625, 3138, 227, 488, 711, 419, 399, 302, 215, 196
640807833, -8539, 12368, 6522, 7, 1603, -537, -2796, -2570, -335, 3334, 227, 488, 711, 419, 399, 302, 215, 196
640808646, -8539, 12368, 6522, 7, 1603, -537, -2796, -2570, -335, 3334, 162, 376, 599, 400, 293, 161, 117, 125
640809434, -8539, 12368, 6522, 7, 1603, -537, -2796, -2570, -335, 3334, 162, 376, 599, 400, 293, 161, 117, 125
640821498, -8027, 12926, 6074, -90, 1262, -324, -2863, -3307, -179, 3539, 162, 376, 599, 400, 293, 161, 117, 125
640829634, -8027, 12926, 6074, -90, 1262, -324, -2863, -3307, -179, 3539, 139, 304, 553, 374, 314, 151, 99, 108
640830470, -8027, 12926, 6074, -90, 1262, -324, -2863, -3307, -179, 3539, 139, 304, 553, 374, 314, 151, 99, 108
640843969, -7387, 13504, 5611, -124, 1061, -485, -3082, -4063, -140, 3446, 139, 304, 553, 374, 314, 151, 99, 108
640852167, -7387, 13504, 5611, -124, 1061, -485, -3082, -4063, -140, 3446, 134, 302, 610, 392, 391, 175, 107, 117
640852957, -7387, 13504, 5611, -124, 1061, -485, -3082, -4063, -140, 3446, 134, 302, 610, 392, 391, 175, 107, 117
640867910, -6692, 14020, 5202, -122, 830, -719, -3048, -4275, -234, 2961, 134, 302, 610, 392, 391, 175, 107, 117
640868673, -6692, 14020, 5202, -122, 830, -719, -3048, -4275, -234, 2961, 179, 513, 799, 423, 439, 178, 144, 163
640869459, -6692, 14020, 5202, -122, 830, -719, -3048, -4275, -234, 2961, 179, 513, 799, 423, 439, 178, 144, 163
640881536, -6074, 14434, 4816, -87, 898, -1019, -2827, -3804, -33, 2581, 179, 513, 799, 423, 439, 178, 144, 163
640889631, -6074, 14434, 4816, -87, 898, -1019, -2827, -3804, -33, 2581, 219, 546, 814, 427, 449, 191, 156, 183
640890459, -6074, 14434, 4816, -87, 898, -1019, -2827, -3804, -33, 2581, 219, 546, 814, 427, 449, 191, 156, 183
640904047, -5599, 14742, 4444, -56, 948, -1233, -2687, -2923, 123, 2340, 219, 546, 814, 427, 449, 191, 156, 183
640912184, -5599, 14742, 4444, -56, 948, -1233, -2687, -2923, 123, 2340, 299, 742, 853, 510, 507, 240, 176, 209
640912880, -5599, 14742, 4444, -56, 948, -1233, -2687, -2923, 123, 2340, 299, 742, 853, 510, 507, 240, 176, 209
640927814, -5291, 14945, 4130, -63, 757, -1185, -2711, -1836, 76, 1947, 299, 742, 853, 510, 507, 240, 176, 209
640928622, -5291, 14945, 4130, -63, 757, -1185, -2711, -1836, 76, 1947, 315, 752, 854, 557, 478, 234, 185, 224
640929413, -5291, 14945, 4130, -63, 757, -1185, -2711, -1836, 76, 1947, 315, 752, 854, 557, 478, 234, 185, 224
640941498, -5073, 15073, 3937, -58, 627, -1003, -2618, -968, 3, 1281, 315, 752, 854, 557, 478, 234, 185, 224
640949640, -5073, 15073, 3937, -58, 627, -1003, -2618, -968, 3, 1281, 316, 762, 746, 561, 422, 213, 184, 218
640950441, -5073, 15073, 3937, -58, 627, -1003, -2618, -968, 3, 1281, 316, 762, 746, 561, 422, 213, 184, 218
640963993, -5022, 15105, 3876, -42, 41, -1086, -2299, -103, 279, 261, 316, 762, 746, 561, 422, 213, 184, 218
640972264, -5022, 15105, 3876, -42, 41, -1086, -2299, -103, 279, 261, 376, 817, 614, 603, 419, 203, 170, 248
640972967, -5022, 15105, 3876, -42, 41, -1086, -2299, -103, 279, 261, 376, 817, 614, 603, 419, 203, 170, 248
640987848, -5156, 15010, 4067, -50, -549, -1906, -1987, 654, 222, -1435, 376, 817, 614, 603, 419, 203, 170, 248
640988686, -5156, 15010, 4067, -50, -549, -1906, -1987, 654, 222, -1435, 443, 902, 731, 736, 678, 306, 256, 403
640989481, -5156, 15010, 4067, -50, -549, -1906, -1987, 654, 222, -1435, 443, 902, 731, 736, 678, 306, 256, 403
641001470, -5528, 14717, 4610, 146, -609, -2552, -2214, 2059, 694, -3663, 443, 902, 731, 736, 678, 306, 256, 403
641009637, -5528, 14717, 4610, 146, -609, -2552, -2214, 2059, 694, -3663, 474, 908, 841, 863, 772, 325, 269, 464
641010437, -5528, 14717, 4610, 146, -609, -2552, -2214, 2059, 694, -3663, 474, 908, 841, 863, 772, 325, 269, 464
641024030, -6117, 14200, 5403, 411, -753, -3121, -3451, 3571, 1007, -5465, 474, 908, 841, 863, 772, 325, 269, 464
641032151, -6117, 14200, 5403, 411, -753, -3121, -3451, 3571, 1007, -5465, 514, 905, 822, 899, 840, 347, 431, 685
641032917, -6117, 14200, 5403, 411, -753, -3121, -3451, 3571, 1007, -5465, 514, 905, 822, 899, 840, 347, 431, 685
641047190, -6984, 13431, 6222, 737, -737, -3040, -4806, 5345, 1585, -5976, 514, 905, 822, 899, 840, 347, 431, 685
641047958, -6984, 13431, 6222, 737, -737, -3040, -4806, 5345, 1585, -5976, 538, 961, 870, 990, 916, 417, 722, 846
641053966, -6984, 13431, 6222, 737, -737, -3040, -4806, 5345, 1585, -5976, 538, 961, 870, 990, 916, 417, 722, 846
641061561, -8081, 12478, 6835, 831, 1010, -572, -5118, 7293, 1544, -4803, 538, 961, 870, 990, 916, 417, 722, 846
641069644, -8081, 12478, 6835, 831, 1010, -572, -5118, 7293, 1544, -4803, 519, 824, 827, 1056, 932, 570, 874, 1053
641070402, -8081, 12478, 6835, 831, 1010, -572, -5118, 7293, 1544, -4803, 519, 824, 827, 1056, 932, 570, 874, 1053
641083990, -9432, 11248, 7275, 130, 425, 159, -4537, 10992, -702, -2449, 519, 824, 827, 1056, 932, 570, 874, 1053
641092104, -9432, 11248, 7275, 130, 425, 159, -4537, 10992, -702, -2449, 452, 715, 690, 988, 772, 583, 981, 1067
641092907, -9432, 11248, 7275, 130, 425, 159, -4537, 10992, -702, -2449, 452, 715, 690, 988, 772, 583, 981, 1067
641106516, -10156, 10262, 7617, -1399, 682, 168, -3793, 9848, -5175, 1201, 452, 715, 690, 988, 772, 583, 981, 1067
641114640, -10156, 10262, 7617, -1399, 682, 168, -3793, 9848, -5175, 1201, 377, 505, 500, 917, 655, 625, 1004, 1088
641115410, -10156, 10262, 7617, -1399, 682, 168, -3793, 9848, -5175, 1201, 377, 505, 500, 917, 655, 625, 1004, 1088
641121583, -10677, 9706, 7419, -2276, 9796, 5940, -2653, 6146, -1298, 2048, 377, 505, 500, 917, 655, 625, 1004, 1088
641129632, -10677, 9706, 7419, -2276, 9796, 5940, -2653, 6146, -1298, 2048, 313, 476, 861, 869, 596, 697, 1076, 986
641130451, -10677, 9706, 7419, -2276, 9796, 5940, -2653, 6146, -1298, 2048, 313, 476, 861, 869, 596, 697, 1076, 986
641143984, -10234, 10691, 6827, -1668, 4414, -1048, -903, -6165, 3830, 2591, 313, 476, 861, 869, 596, 697, 1076, 986
641152095, -10234, 10691, 6827, -1668, 4414, -1048, -903, -6165, 3830, 2591, 265, 300, 909, 774, 475, 682, 996, 870
641152947, -10234, 10691, 6827, -1668, 4414, -1048, -903, -6165, 3830, 2591, 265, 300, 909, 774, 475, 682, 996, 870
641166506, -9743, 11608, 6157, -916, -1988, -1007, -3370, -6394, 4481, 2249, 265, 300, 909, 774, 475, 682, 996, 870
641174643, -9743, 11608, 6157, -916, -1988, -1007, -3370, -6394, 4481, 2249, 189, 283, 1168, 687, 419, 573, 915, 589
641175385, -9743, 11608, 6157, -916, -1988, -1007, -3370, -6394, 4481, 2249, 189, 283, 1168, 687, 419, 573, 915, 589
641181644, -8906, 12587, 5498, -679, -1381, -1017, -4482, -6894, 1683, 4158, 189, 283, 1168, 687, 419, 573, 915, 589
641189653, -8906, 12587, 5498, -679, -1381, -1017, -4482, -6894, 1683, 4158, 211, 286, 1281, 686, 417, 507, 783, 463
641190409, -8906, 12587, 5498, -679, -1381, -1017, -4482, -6894, 1683, 4158, 211, 286, 1281, 686, 417, 507, 783, 463
641203982, -7883, 13479, 4922, -625, 923, -83, -3532, -7109, 271, 4242, 211, 286, 1281, 686, 417, 507, 783, 463
641212089, -7883, 13479, 4922, -625, 923, -83, -3532, -7109, 271, 4242, 200, 276, 1449, 576, 385, 418, 749, 328
641212882, -7883, 13479, 4922, -625, 923, -83, -3532, -7109, 271, 4242, 200, 276, 1449, 576, 385, 418, 749, 328
641226475, -7057, 14091, 4472, -274, 482, -327, -3327, -5649, 1635, 2365, 200, 276, 1449, 576, 385, 418, 749, 328
641234673, -7057, 14091, 4472, -274, 482, -327, -3327, -5649, 1635, 2365, 181, 268, 1329, 622, 330, 256, 563, 241
641235476, -7057, 14091, 4472, -274, 482, -327, -3327, -5649, 1635, 2365, 181, 268, 1329, 622, 330, 256, 563, 241
641241643, -6294, 14440, 4496, 258, -1251, -1467, -3190, -5187, 1586, -970, 181, 268, 1329, 622, 330, 256, 563, 241
641249663, -6294, 14440, 4496, 258, -1251, -1467, -3190, -5187, 1586, -970, 174, 268, 1290, 637, 302, 178, 382, 158
641250403, -6294, 14440, 4496, 258, -1251, -1467, -3190, -5187, 1586, -970, 174, 268, 1290, 637, 302, 178, 382, 158
641263986, -5571, 14510, 5079, 1029, -1174, -3214, -2826, -4971, 1676, -4741, 174, 268, 1290, 637, 302, 178, 382, 158
641272161, -5571, 14510, 5079, 1029, -1174, -3214, -2826, -4971, 1676, -4741, 162, 247, 1058, 613, 252, 126, 232, 124
641272990, -5571, 14510, 5079, 1029, -1174, -3214, -2826, -4971, 1676, -4741, 162, 247, 1058, 613, 252, 126, 232, 124
641286476, -5780, 14131, 5724, 1601, 1975, -4201, -2341, 990, 2102, -4881, 162, 247, 1058, 613, 252, 126, 232, 124
641294633, -5780, 14131, 5724, 1601, 1975, -4201, -2341, 990, 2102, -4881, 104, 194, 943, 748, 234, 113, 215, 111
641295461, -5780, 14131, 5724, 1601, 1975, -4201, -2341, 990, 2102, -4881, 104, 194, 943, 748, 234, 113, 215, 111
641301633, -6741, 13479, 6144, 1880, 1158, -4128, -3874, 5625, 2763, -3337, 104, 194, 943, 748, 234, 113, 215, 111
641309673, -6741, 13479, 6144, 1880, 1158, -4128, -3874, 5625, 2763, -3337, 87, 176, 634, 863, 285, 204, 572, 132
641310435, -6741, 13479, 6144, 1880, 1158, -4128, -3874, 5625, 2763, -3337, 87, 176, 634, 863, 285, 204, 572, 132
641323985, -7713, 12770, 6474, 1987, 617, -2469, -4307, 6111, 2232, -2636, 87, 176, 634, 863, 285, 204, 572, 132
641332106, -7713, 12770, 6474, 1987, 617, -2469, -4307, 6111, 2232, -2636, 168, 154, 436, 886, 290, 344, 890, 459
641332935, -7713, 12770, 6474, 1987, 617, -2469, -4307, 6111, 2232, -2636, 168, 154, 436, 886, 290, 344, 890, 459
641346501, -8541, 11980, 7015, 1659, 268, -104, -4904, 6808, -484, -2689, 168, 154, 436, 886, 290, 344, 890, 459
641354659, -8541, 11980, 7015, 1659, 268, -104, -4904, 6808, -484, -2689, 200, 131, 397, 875, 317, 517, 955, 550
641355435, -8541, 11980, 7015, 1659, 268, -104, -4904, 6808, -484, -2689, 200, 131, 397, 875, 317, 517, 955, 550
641361660, -9609, 11011, 7376, 658, -423, -1353, -4532, 9857, -2056, -274, 200, 131, 397, 875, 317, 517, 955, 550
641369632, -9609, 11011, 7376, 658, -423, -1353, -4532, 9857, -2056, -274, 211, 128, 516, 929, 371, 703, 1036, 577
641370463, -9609, 11011, 7376, 658, -423, -1353, -4532, 9857, -2056, -274, 211, 128, 516, 929, 371, 703, 1036, 577
641383989, -10030, 10401, 7680, -813, 1145, 639, -2615, 7698, -5226, 2452, 211, 128, 516, 929, 371, 703, 1036, 577
641392107, -10030, 10401, 7680, -813, 1145, 639, -2615, 7698, -5226, 2452, 221, 130, 588, 803, 349, 726, 1043, 601
641392963, -10030, 10401, 7680, -813, 1145, 639, -2615, 7698, -5226, 2452, 221, 130, 588, 803, 349, 726, 1043, 601
641406484, -10557, 9841, 7613, -1476, 9079, 2948, -3158, 5557, -897, 895, 221, 130, 588, 803, 349, 726, 1043, 601
641414658, -10557, 9841, 7613, -1476, 9079, 2948, -3158, 5557, -897, 895, 219, 127, 809, 679, 331, 742, 1082, 602
641415409, -10557, 9841, 7613, -1476, 9079, 2948, -3158, 5557, -897, 895, 219, 127, 809, 679, 331, 742, 1082, 602
641421559, -10271, 10712, 6841, -1178, 3981, 1102, -1625, -4506, 3486, 3938, 219, 127, 809, 679, 331, 742, 1082, 602
641429659, -10271, 10712, 6841, -1178, 3981, 1102, -1625, -4506, 3486, 3938, 164, 120, 934, 585, 365, 699, 1120, 414
641430436, -10271, 10712, 6841, -1178, 3981, 1102, -1625, -4506, 3486, 3938, 164, 120, 934, 585, 365, 699, 1120, 414
641443930, -9656, 11692, 6188, -429, -962, -188, -3397, -7205, 4005, 2309, 164, 120, 934, 585, 365, 699, 1120, 414
641452106, -9656, 11692, 6188, -429, -962, -188, -3397, -7205, 4005, 2309, 135, 154, 1027, 598, 411, 601, 1095, 289
641452897, -9656, 11692, 6188, -429, -962, -188, -3397, -7205, 4005, 2309, 135, 154, 1027, 598, 411, 601, 1095, 289
641466484, -8766, 12681, 5546, -41, -1040, -406, -4079, -7573, 1935, 3521, 135, 154, 1027, 598, 411, 601, 1095, 289
641474660, -8766, 12681, 5546, -41, -1040, -406, -4079, -7573, 1935, 3521, 123, 159, 1099, 473, 369, 370, 1061, 227
641475409, -8766, 12681, 5546, -41, -1040, -406, -4079, -7573, 1935, 3521, 123, 159, 1099, 473, 369, 370, 1061, 227
641481571, -7743, 13517, 5072, 149, 413, -353, -4128, -7313, 320, 3096, 123, 159, 1099, 473, 369, 370, 1061, 227
641489635, -7743, 13517, 5072, 149, 413, -353, -4128, -7313, 320, 3096, 119, 194, 1216, 567, 373, 329, 1074, 163
641490403, -7743, 13517, 5072, 149, 413, -353, -4128, -7313, 320, 3096, 119, 194, 1216, 567, 373, 329, 1074, 163
641504021, -6713, 14117, 4882, 487, -313, -1939, -4155, -6958, 248, 971, 119, 194, 1216, 567, 373, 329, 1074, 163
641512099, -6713, 14117, 4882, 487, -313, -1939, -4155, -6958, 248, 971, 116, 192, 1114, 811, 352, 239, 888, 127
641512912, -6713, 14117, 4882, 487, -313, -1939, -4155, -6958, 248, 971, 116, 192, 1114, 811, 352, 239, 888, 127
641526487, -6046, 14234, 5305, 1060, -1770, -1115, -3646, -4378, 664, -3279, 116, 192, 1114, 811, 352, 239, 888, 127
641534639, -6046, 14234, 5305, 1060, -1770, -1115, -3646, -4378, 664, -3279, 115, 187, 1021, 1120, 299, 205, 467, 118
641535372, -6046, 14234, 5305, 1060, -1770, -1115, -3646, -4378, 664, -3279, 115, 187, 1021, 1120, 299, 205, 467, 118
641541560, -5789, 14140, 5696, 1587, 1243, -4249, -1650, -2174, 1299, -3394, 115, 187, 1021, 1120, 299, 205, 467, 118
641549636, -5789, 14140, 5696, 1587, 1243, -4249, -1650, -2174, 1299, -3394, 103, 145, 917, 1093, 202, 143, 396, 96
641550425, -5789, 14140, 5696, 1587, 1243, -4249, -1650, -2174, 1299, -3394, 103, 145, 917, 1093, 202, 143, 396, 96
641563976, -6187, 13890, 5769, 1985, 2191, -4720, -2605, 1681, 2688, -1413, 103, 145, 917, 1093, 202, 143, 396, 96
641572098, -6187, 13890, 5769, 1985, 2191, -4720, -2605, 1681, 2688, -1413, 99, 202, 828, 1084, 194, 135, 424, 96
641572907, -6187, 13890, 5769, 1985, 2191, -4720, -2605, 1681, 2688, -1413, 99, 202, 828, 1084, 194, 135, 424, 96
641586487, -7031, 13358, 5956, 2257, 725, -3556, -3687, 4729, 2923, -1942, 99, 202, 828, 1084, 194, 135, 424, 96
641594666, -7031, 13358, 5956, 2257, 725, -3556, -3687, 4729, 2923, -1942, 114, 416, 746, 1103, 242, 399, 693, 139
641595334, -7031, 13358, 5956, 2257, 725, -3556, -3687, 4729, 2923, -1942, 114, 416, 746, 1103, 242, 399, 693, 139
641601560, -7780, 12633, 6516, 2418, 70, -2407, -4995, 5274, 1477, -3854, 114, 416, 746, 1103, 242, 399, 693, 139
641609645, -7780, 12633, 6516, 2418, 70, -2407, -4995, 5274, 1477, -3854, 403, 658, 911, 1074, 541, 722, 883, 436
641610417, -7780, 12633, 6516, 2418, 70, -2407, -4995, 5274, 1477, -3854, 403, 658, 911, 1074, 541, 722, 883, 436
641623959, -8896, 11620, 7140, 1808, -382, 1135, -4821, 9433, -972, -2417, 403, 658, 911, 1074, 541, 722, 883, 436
641632122, -8896, 11620, 7140, 1808, -382, 1135, -4821, 9433, -972, -2417, 498, 883, 1151, 899, 715, 831, 952, 557
641632882, -8896, 11620, 7140, 1808, -382, 1135, -4821, 9433, -972, -2417, 498, 883, 1151, 899, 715, 831, 952, 557
641646474, -9450, 10965, 7636, 755, 85, -2519, -1448, 7127, -3817, -209, 498, 883, 1151, 899, 715, 831, 952, 557
641654579, -9450, 10965, 7636, 755, 85, -2519, -1448, 7127, -3817, -209, 511, 898, 1196, 913, 886, 962, 961, 565
641655409, -9450, 10965, 7636, 755, 85, -2519, -1448, 7127, -3817, -209, 511, 898, 1196, 913, 886, 962, 961, 565
641661635, -10211, 9956, 8063, 126, 7253, 608, -530, 7890, -1497, -2014, 511, 898, 1196, 913, 886, 962, 961, 565
641669658, -10211, 9956, 8063, 126, 7253, 608, -530, 7890, -1497, -2014, 529, 922, 1245, 989, 1116, 1182, 979, 580
641670387, -10211, 9956, 8063, 126, 7253, 608, -530, 7890, -1497, -2014, 529, 922, 1245, 989, 1116, 1182, 979, 580
641683987, -10365, 9637, 8253, -101, 6015, 4551, -4405, 2270, -996, -728, 529, 922, 1245, 989, 1116, 1182, 979, 580
641692056, -10365, 9637, 8253, -101, 6015, 4551, -4405, 2270, -996, -728, 611, 861, 1260, 1015, 1172, 1154, 858, 577
641692905, -10365, 9637, 8253, -101, 6015, 4551, -4405, 2270, -996, -728, 611, 861, 1260, 1015, 1172, 1154, 858, 577
641706481, -9790, 10634, 7702, 435, -660, -811, -3753, -6936, 2136, 2759, 611, 861, 1260, 1015, 1172, 1154, 858, 577
641714641, -9790, 10634, 7702, 435, -660, -811, -3753, -6936, 2136, 2759, 503, 746, 1208, 1017, 1102, 1002, 737, 455
641715436, -9790, 10634, 7702, 435, -660, -811, -3753, -6936, 2136, 2759, 503, 746, 1208, 1017, 1102, 1002, 737, 455
641721635, -8755, 12135, 6655, 454, -1790, -1728, -3570, -9060, 626, 7593, 503, 746, 1208, 1017, 1102, 1002, 737, 455
641729548, -8755, 12135, 6655, 454, -1790, -1728, -3570, -9060, 626, 7593, 511, 509, 1027, 912, 1010, 928, 656, 342
641730357, -8755, 12135, 6655, 454, -1790, -1728, -3570, -9060, 626, 7593, 511, 509, 1027, 912, 1010, 928, 656, 342
641743966, -7527, 13288, 5922, 351, 605, -2677, -3431, -8344, -1089, 5731, 511, 509, 1027, 912, 1010, 928, 656, 342
641752138, -7527, 13288, 5922, 351, 605, -2677, -3431, -8344, -1089, 5731, 530, 546, 1036, 937, 865, 795, 666, 336
641752959, -7527, 13288, 5922, 351, 605, -2677, -3431, -8344, -1089, 5731, 530, 546, 1036, 937, 865, 795, 666, 336
641767787, -6537, 14061, 5282, 268, 655, -2593, -3358, -6350, -761, 4535, 530, 546, 1036, 937, 865, 795, 666, 336
641768624, -6537, 14061, 5282, 268, 655, -2593, -3358, -6350, -761, 4535, 530, 565, 918, 889, 588, 406, 565, 326
641769395, -6537, 14061, 5282, 268, 655, -2593, -3358, -6350, -761, 4535, 530, 565, 918, 889, 588, 406, 565, 326
641784163, -7743, 13517, 5072, 149, 413, -353, -4128, -7313, 320, 3096, 530, 565, 918, 889, 588, 406, 565, 326
641784932, -7743, 13517, 5072, 149, 413, -353, -4128, -7313, 320, 3096, 119, 194, 1216, 567, 373, 329, 1074, 163
641785786, -7743, 13517, 5072, 149, 413, -353, -4128, -7313, 320, 3096, 119, 194, 1216, 567, 373, 329, 1074, 163
641786698, -6713, 14117, 4882, 487, -313, -1939, -4155, -6958, 248, 971, 119, 194, 1216, 567, 373, 329, 1074, 163
641791789, -6713, 14117, 4882, 487, -313, -1939, -4155, -6958, 248, 971, 116, 192, 1114, 811, 352, 239, 888, 127
641792534, -6713, 14117, 4882, 487, -313, -1939, -4155, -6958, 248, 971, 116, 192, 1114, 811, 352, 239, 888, 127
641793312, -6713, 14117, 4882, 487, -313, -1939, -4155, -6958, 248, 971, 116, 192, 1114, 811, 352, 239, 888, 127
641794173, -6713, 14117, 4882, 487, -313, -1939, -4155, -6958, 248, 971, 116, 192, 1114, 811, 352, 239, 888, 127
641799085, -6713, 14117, 4882, 487, -313, -1939, -4155, -6958, 248, 971, 116, 192, 1114, 811, 352, 239, 888, 127
641799916, -6713, 14117, 4882, 487, -313, -1939, -4155, -6958, 248, 971, 116, 192, 1114, 811, 352, 239, 888, 127
641800709, -6713, 14117, 4882, 487, -313, -1939, -4155, -6958, 248, 971, 116, 192, 1114, 811, 352, 239, 888, 127
641801533, -6713, 14117, 4882, 487, -313, -1939, -4155, -6958, 248, 971, 116, 192, 1114, 811, 352, 239, 888, 127
641806630, -6713, 14117, 4882, 487, -313, -1939, -4155, -6958, 248, 971, 116, 192, 1114, 811, 352, 239, 888, 127
641807575, -6046, 14234, 5305, 1060, -1770, -1115, -3646, -4378, 664, -3279, 116, 192, 1114, 811, 352, 239, 888, 127
641808358, -6046, 14234, 5305, 1060, -1770, -1115, -3646, -4378, 664, -3279, 115, 187, 1021, 1120, 299, 205, 467, 118
641809154, -6046, 14234, 5305, 1060, -1770, -1115, -3646, -4378, 664, -3279, 115, 187, 1021, 1120, 299, 205, 467, 118
641814187, -6046, 14234, 5305, 1060, -1770, -1115, -3646, -4378, 664, -3279, 115, 187, 1021, 1120, 299, 205, 467, 118
641815022, -6046, 14234, 5305, 1060, -1770, -1115, -3646, -4378, 664, -3279, 115, 187, 1021, 1120, 299, 205, 467, 118
641815829, -6046, 14234, 5305, 1060, -1770, -1115, -3646, -4378, 664, -3279, 115, 187, 1021, 1120, 299, 205, 467, 118
641816643, -6046, 14234, 5305, 1060, -1770, -1115, -3646, -4378, 664, -3279, 115, 187, 1021, 1120, 299, 205, 467, 118
641821559, -6046, 14234, 5305, 1060, -1770, -1115, -3646, -4378, 664, -3279, 115, 187, 1021, 1120, 299, 205, 467, 118
641822384, -6046, 14234, 5305, 1060, -1770, -1115, -3646, -4378, 664, -3279, 115, 187, 1021, 1120, 299, 205, 467, 118
641823237, -6046, 14234, 5305, 1060, -1770, -1115, -3646, -4378, 664, -3279, 115, 187, 1021, 1120, 299, 205, 467, 118
641824007, -6046, 14234, 5305, 1060, -1770, -1115, -3646, -4378, 664, -3279, 115, 187, 1021, 1120, 299, 205, 467, 118
641829109, -6046, 14234, 5305, 1060, -1770, -1115, -3646, -4378, 664, -3279, 115, 187, 1021, 1120, 299, 205, 467, 118
641830008, -5789, 14140, 5696, 1587, 1243, -4249, -1650, -2174, 1299, -3394, 115, 187, 1021, 1120, 299, 205, 467, 118
641830860, -5789, 14140, 5696, 1587, 1243, -4249, -1650, -2174, 1299, -3394, 103, 145, 917, 1093, 202, 143, 396, 96
641831632, -5789, 14140, 5696, 1587, 1243, -4249, -1650, -2174, 1299, -3394, 103, 145, 917, 1093, 202, 143, 396, 96
641836660, -5789, 14140, 5696, 1587, 1243, -4249, -1650, -2174, 1299, -3394, 103, 145, 917, 1093, 202, 143, 396, 96
641837459, -5789, 14140, 5696, 1587, 1243, -4249, -1650, -2174, 1299, -3394, 103, 145, 917, 1093, 202, 143, 396, 96
641838322, -5789, 14140, 5696, 1587, 1243, -4249, -1650, -2174, 1299, -3394, 103, 145, 917, 1093, 202, 143, 396, 96
641839129, -5789, 14140, 5696, 1587, 1243, -4249, -1650, -2174, 1299, -3394, 103, 145, 917, 1093, 202, 143, 396, 96
641844060, -5789, 14140, 5696, 1587, 1243, -4249, -1650, -2174, 1299, -3394, 103, 145, 917, 1093, 202, 143, 396, 96
641844872, -5789, 14140, 5696, 1587, 1243, -4249, -1650, -2174, 1299, -3394, 103, 145, 917, 1093, 202, 143, 396, 96
641845679, -5789, 14140, 5696, 1587, 1243, -4249, -1650, -2174, 1299, -3394, 103, 145, 917, 1093, 202, 143, 396, 96
641846524, -5789, 14140, 5696, 1587, 1243, -4249, -1650, -2174, 1299, -3394, 103, 145, 917, 1093, 202, 143, 396, 96
641851633, -5789, 14140, 5696, 1587, 1243, -4249, -1650, -2174, 1299, -3394, 103, 145, 917, 1093, 202, 143, 396, 96
641852543, -6187, 13890, 5769, 1985, 2191, -4720, -2605, 1681, 2688, -1413, 103, 145, 917, 1093, 202, 143, 396, 96
641853396, -6187, 13890, 5769, 1985, 2191, -4720, -2605, 1681, 2688, -1413, 99, 202, 828, 1084, 194, 135, 424, 96
641854203, -6187, 13890, 5769, 1985, 2191, -4720, -2605, 1681, 2688, -1413, 99, 202, 828, 1084, 194, 135, 424, 96
641859204, -6187, 13890, 5769, 1985, 2191, -4720, -2605, 1681, 2688, -1413, 99, 202, 828, 1084, 194, 135, 424, 96
641860006, -6187, 13890, 5769, 1985, 2191, -4720, -2605, 1681, 2688, -1413, 99, 202, 828, 1084, 194, 135, 424, 96
641860833, -6187, 13890, 5769, 1985, 2191, -4720, -2605, 1681, 2688, -1413, 99, 202, 828, 1084, 194, 135, 424, 96
641861631, -6187, 13890, 5769, 1985, 2191, -4720, -2605, 1681, 2688, -1413, 99, 202, 828, 1084, 194, 135, 424, 96
641866672, -6187, 13890, 5769, 1985, 2191, -4720, -2605, 1681, 2688, -1413, 99, 202, 828, 1084, 194, 135, 424, 96
641867385, -6187, 13890, 5769, 1985, 2191, -4720, -2605, 1681, 2688, -1413, 99, 202, 828, 1084, 194, 135, 424, 96
641868246, -6187, 13890, 5769, 1985, 2191, -4720, -2605, 1681, 2688, -1413, 99, 202, 828, 1084, 194, 135, 424, 96
641869031, -6187, 13890, 5769, 1985, 2191, -4720, -2605, 1681, 2688, -1413, 99, 202, 828, 1084, 194, 135, 424, 96
641874067, -6187, 13890, 5769, 1985, 2191, -4720, -2605, 1681, 2688, -1413, 99, 202, 828, 1084, 194, 135, 424, 96
641875058, -7031, 13358, 5956, 2257, 725, -3556, -3687, 4729, 2923, -1942, 99, 202, 828, 1084, 194, 135, 424, 96
641875832, -7031, 13358, 5956, 2257, 725, -3556, -3687, 4729, 2923, -1942, 114, 416, 746, 1103, 242, 399, 693, 139
641876698, -7031, 13358, 5956, 2257, 725, -3556, -3687, 4729, 2923, -1942, 114, 416, 746, 1103, 242, 399, 693, 139
641881657, -7031, 13358, 5956, 2257, 725, -3556, -3687, 4729, 2923, -1942, 114, 416, 746, 1103, 242, 399, 693, 139
641882526, -7031, 13358, 5956, 2257, 725, -3556, -3687, 4729, 2923, -1942, 114, 416, 746, 1103, 242, 399, 693, 139
641883288, -7031, 13358, 5956, 2257, 725, -3556, -3687, 4729, 2923, -1942, 114, 416, 746, 1103, 242, 399, 693, 139
641884128, -7031, 13358, 5956, 2257, 725, -3556, -3687, 4729, 2923, -1942, 114, 416, 746, 1103, 242, 399, 693, 139
641889056, -7031, 13358, 5956, 2257, 725, -3556, -3687, 4729, 2923, -1942, 114, 416, 746, 1103, 242, 399, 693, 139
641889879, -7031, 13358, 5956, 2257, 725, -3556, -3687, 4729, 2923, -1942, 114, 416, 746, 1103, 242, 399, 693, 139
641890679, -7031, 13358, 5956, 2257, 725, -3556, -3687, 4729, 2923, -1942, 114, 416, 746, 1103, 242, 399, 693, 139
641891537, -7031, 13358, 5956, 2257, 725, -3556, -3687, 4729, 2923, -1942, 114, 416, 746, 1103, 242, 399, 693, 139
641896556, -7031, 13358, 5956, 2257, 725, -3556, -3687, 4729, 2923, -1942, 114, 416, 746, 1103, 242, 399, 693, 139
641897537, -7780, 12633, 6516, 2418, 70, -2407, -4995, 5274, 1477, -3854, 114, 416, 746, 1103, 242, 399, 693, 139
641898336, -7780, 12633, 6516, 2418, 70, -2407, -4995, 5274, 1477, -3854, 403, 658, 911, 1074, 541, 722, 883, 436
641899132, -7780, 12633, 6516, 2418, 70, -2407, -4995, 5274, 1477, -3854, 403, 658, 911, 1074, 541, 722, 883, 436
641904134, -7780, 12633, 6516, 2418, 70, -2407, -4995, 5274, 1477, -3854, 403, 658, 911, 1074, 541, 722, 883, 436
641904954, -7780, 12633, 6516, 2418, 70, -2407, -4995, 5274, 1477, -3854, 403, 658, 911, 1074, 541, 722, 883, 436
641905781, -7780, 12633, 6516, 2418, 70, -2407, -4995, 5274, 1477, -3854, 403, 658, 911, 1074, 541, 722, 883, 436
641906660, -7780, 12633, 6516, 2418, 70, -2407, -4995, 5274, 1477, -3854, 403, 658, 911, 1074, 541, 722, 883, 436
641911653, -7780, 12633, 6516, 2418, 70, -2407, -4995, 5274, 1477, -3854, 403, 658, 911, 1074, 541, 722, 883, 436
641912438, -7780, 12633, 6516, 2418, 70, -2407, -4995, 5274, 1477, -3854, 403, 658, 911, 1074, 541, 722, 883, 436
641913232, -7780, 12633, 6516, 2418, 70, -2407, -4995, 5274, 1477, -3854, 403, 658, 911, 1074, 541, 722, 883, 436
641914072, -7780, 12633, 6516, 2418, 70, -2407, -4995, 5274, 1477, -3854, 403, 658, 911, 1074, 541, 722, 883, 436
641919275, -8896, 11620, 7140, 1808, -382, 1135, -4821, 9433, -972, -2417, 403, 658, 911, 1074, 541, 722, 883, 436
641920032, -8896, 11620, 7140, 1808, -382, 1135, -4821, 9433, -972, -2417, 498, 883, 1151, 899, 715, 831, 952, 557
641920886, -8896, 11620, 7140, 1808, -382, 1135, -4821, 9433, -972, -2417, 498, 883, 1151, 899, 715, 831, 952, 557
641921682, -8896, 11620, 7140, 1808, -382, 1135, -4821, 9433, -972, -2417, 498, 883, 1151, 899, 715, 831, 952, 557
641926568, -8896, 11620, 7140, 1808, -382, 1135, -4821, 9433, -972, -2417, 498, 883, 1151, 899, 715, 831, 952, 557
641927388, -8896, 11620, 7140, 1808, -382, 1135, -4821, 9433, -972, -2417, 498, 883, 1151, 899, 715, 831, 952, 557
641928181, -8896, 11620, 7140, 1808, -382, 1135, -4821, 9433, -972, -2417, 498, 883, 1151, 899, 715, 831, 952, 557
641929047, -8896, 11620, 7140, 1808, -382, 1135, -4821, 9433, -972, -2417, 498, 883, 1151, 899, 715, 831, 952, 557
641934082, -8896, 11620, 7140, 1808, -382, 1135, -4821, 9433, -972, -2417, 498, 883, 1151, 899, 715, 831, 952, 557
641935035, -9450, 10965, 7636, 755, 85, -2519, -1448, 7127, -3817, -209, 498, 883, 1151, 899, 715, 831, 952, 557
641935830, -9450, 10965, 7636, 755, 85, -2519, -1448, 7127, -3817, -209, 511, 898, 1196, 913, 886, 962, 961, 565
641936640, -9450, 10965, 7636, 755, 85, -2519, -1448, 7127, -3817, -209, 511, 898, 1196, 913, 886, 962, 961, 565
641941657, -9450, 10965, 7636, 755, 85, -2519, -1448, 7127, -3817, -209, 511, 898, 1196, 913, 886, 962, 961, 565
641942462, -9450, 10965, 7636, 755, 85, -2519, -1448, 7127, -3817, -209, 511, 898, 1196, 913, 886, 962, 961, 565
641943282, -9450, 10965, 7636, 755, 85, -2519, -1448, 7127, -3817, -209, 511, 898, 1196, 913, 886, 962, 961, 565
641944110, -9450, 10965, 7636, 755, 85, -2519, -1448, 7127, -3817, -209, 511, 898, 1196, 913, 886, 962, 961, 565
641949044, -9450, 10965, 7636, 755, 85, -2519, -1448, 7127, -3817, -209, 511, 898, 1196, 913, 886, 962, 961, 565
641949883, -9450, 10965, 7636, 755, 85, -2519, -1448, 7127, -3817, -209, 511, 898, 1196, 913, 886, 962, 961, 565
641950661, -9450, 10965, 7636, 755, 85, -2519, -1448, 7127, -3817, -209, 511, 898, 1196, 913, 886, 962, 961, 565
641951505, -9450, 10965, 7636, 755, 85, -2519, -1448, 7127, -3817, -209, 511, 898, 1196, 913, 886, 962, 961, 565
641956635, -9450, 10965, 7636, 755, 85, -2519, -1448, 7127, -3817, -209, 511, 898, 1196, 913, 886, 962, 961, 565
641957576, -10211, 9956, 8063, 126, 7253, 608, -530, 7890, -1497, -2014, 511, 898, 1196, 913, 886, 962, 961, 565
641958356, -10211, 9956, 8063, 126, 7253, 608, -530, 7890, -1497, -2014, 529, 922, 1245, 989, 1116, 1182, 979, 580
641959188, -10211, 9956, 8063, 126, 7253, 608, -530, 7890, -1497, -2014, 529, 922, 1245, 989, 1116, 1182, 979, 580
641964177, -10211, 9956, 8063, 126, 7253, 608, -530, 7890, -1497, -2014, 529, 922, 1245, 989, 1116, 1182, 979, 580
641964999, -10211, 9956, 8063, 126, 7253, 608, -530, 7890, -1497, -2014, 529, 922, 1245, 989, 1116, 1182, 979, 580
641965797, -10211, 9956, 8063, 126, 7253, 608, -530, 7890, -1497, -2014, 529, 922, 1245, 989, 1116, 1182, 979, 580
641966606, -10211, 9956, 8063, 126, 7253, 608, -530, 7890, -1497, -2014, 529, 922, 1245, 989, 1116, 1182, 979, 580
641970249, -10211, 9956, 8063, 126, 7253, 608, -530, 7890, -1497, -2014, 529, 922, 1245, 989, 1116, 1182, 979, 580
641971072, -10211, 9956, 8063, 126, 7253, 608, -530, 7890, -1497, -2014, 529, 922, 1245, 989, 1116, 1182, 979, 580
641971880, -10211, 9956, 8063, 126, 7253, 608, -530, 7890, -1497, -2014, 529, 922, 1245, 989, 1116, 1182, 979, 580
641983957, -10986, 9592, 7390, -1059, 4609, 966, -528, -3387, 3412, 3325, 529, 922, 1245, 989, 1116, 1182, 979, 580
641992085, -10986, 9592, 7390, -1059, 4609, 966, -528, -3387, 3412, 3325, 140, 187, 768, 399, 277, 684, 1168, 372
641992856, -10986, 9592, 7390, -1059, 4609, 966, -528, -3387, 3412, 3325, 140, 187, 768, 399, 277, 684, 1168, 372
642007792, -10211, 10830, 6845, -122, -923, -762, -2800, -9129, 3839, 1495, 140, 187, 768, 399, 277, 684, 1168, 372
642008631, -10211, 10830, 6845, -122, -923, -762, -2800, -9129, 3839, 1495, 151, 216, 947, 508, 342, 525, 1099, 324
642009396, -10211, 10830, 6845, -122, -923, -762, -2800, -9129, 3839, 1495, 151, 216, 947, 508, 342, 525, 1099, 324
642021438, -9466, 11818, 6244, 388, -551, -1063, -3885, -7395, 2290, 2796, 151, 216, 947, 508, 342, 525, 1099, 324
642029655, -9466, 11818, 6244, 388, -551, -1063, -3885, -7395, 2290, 2796, 226, 326, 1012, 513, 341, 534, 1015, 314
642030402, -9466, 11818, 6244, 388, -551, -1063, -3885, -7395, 2290, 2796, 226, 326, 1012, 513, 341, 534, 1015, 314
642043951, -8521, 12748, 5730, 689, 617, -728, -4272, -7560, 740, 2970, 226, 326, 1012, 513, 341, 534, 1015, 314
642052094, -8521, 12748, 5730, 689, 617, -728, -4272, -7560, 740, 2970, 223, 347, 969, 566, 314, 360, 1055, 120
642052899, -8521, 12748, 5730, 689, 617, -728, -4272, -7560, 740, 2970, 223, 347, 969, 566, 314, 360, 1055, 120
642067801, -7433, 13575, 5288, 963, 605, -877, -4824, -7818, 154, 2497, 223, 347, 969, 566, 314, 360, 1055, 120
642068632, -7433, 13575, 5288, 963, 605, -877, -4824, -7818, 154, 2497, 222, 352, 865, 849, 305, 332, 879, 113
642069434, -7433, 13575, 5288, 963, 605, -877, -4824, -7818, 154, 2497, 222, 352, 865, 849, 305, 332, 879, 113
642081484, -6568, 14076, 5071, 1200, -911, -1570, -3963, -5793, -74, 1029, 222, 352, 865, 849, 305, 332, 879, 113
642089565, -6568, 14076, 5071, 1200, -911, -1570, -3963, -5793, -74, 1029, 218, 339, 826, 1069, 270, 264, 533, 94
642090377, -6568, 14076, 5071, 1200, -911, -1570, -3963, -5793, -74, 1029, 218, 339, 826, 1069, 270, 264, 533, 94
642103958, -6045, 14169, 5337, 1627, -898, -3187, -3476, -3358, 510, -2294, 218, 339, 826, 1069, 270, 264, 533, 94
642112098, -6045, 14169, 5337, 1627, -898, -3187, -3476, -3358, 510, -2294, 211, 308, 643, 1168, 152, 219, 509, 85
642112859, -6045, 14169, 5337, 1627, -898, -3187, -3476, -3358, 510, -2294, 211, 308, 643, 1168, 152, 219, 509, 85
642127785, -5962, 14045, 5641, 1945, 1003, -3898, -2514, -743, 889, -2565, 211, 308, 643, 1168, 152, 219, 509, 85
642128631, -5962, 14045, 5641, 1945, 1003, -3898, -2514, -743, 889, -2565, 130, 261, 503, 1168, 164, 167, 428, 70
642129424, -5962, 14045, 5641, 1945, 1003, -3898, -2514, -743, 889, -2565, 130, 261, 503, 1168, 164, 167, 428, 70
642141435, -6474, 13637, 5965, 2228, 1601, -3846, -2920, 2959, 1958, -2584, 130, 261, 503, 1168, 164, 167, 428, 70
642149657, -6474, 13637, 5965, 2228, 1601, -3846, -2920, 2959, 1958, -2584, 149, 470, 450, 1212, 182, 130, 298, 169
642150414, -6474, 13637, 5965, 2228, 1601, -3846, -2920, 2959, 1958, -2584, 149, 470, 450, 1212, 182, 130, 298, 169
642163943, -7237, 13130, 6175, 2347, 841, -3091, -3654, 4657, 2255, -1852, 149, 470, 450, 1212, 182, 130, 298, 169
642172083, -7237, 13130, 6175, 2347, 841, -3091, -3654, 4657, 2255, -1852, 179, 487, 469, 1118, 250, 347, 604, 257
642172921, -7237, 13130, 6175, 2347, 841, -3091, -3654, 4657, 2255, -1852, 179, 487, 469, 1118, 250, 347, 604, 257
642187783, -7899, 12559, 6500, 2458, 727, -2080, -4485, 4414, 1554, -2412, 179, 487, 469, 1118, 250, 347, 604, 257
642188672, -7899, 12559, 6500, 2458, 727, -2080, -4485, 4414, 1554, -2412, 188, 494, 408, 933, 399, 496, 712, 371
642189410, -7899, 12559, 6500, 2458, 727, -2080, -4485, 4414, 1554, -2412, 188, 494, 408, 933, 399, 496, 712, 371
