Timestamp, Orientation x, Orientation y, Orientation z, Orientation w, Acceleration x, Acceleration y, Acceleration z, Rotation x, Rotation y, Rotation z, EMG 0, EMG 1, EMG 2, EMG 3, EMG 4, EMG 5, EMG 6, EMG 7
111905964, -1479, 13909, -8521, 397, -27, -720, -1474, -209, -936, -1265, 0, 0, 0, 0, 0, 0, 0, 0
111913471, -1599, 14048, -8274, 282, 68, -837, -1396, -115, -1125, -1470, 0, 0, 0, 0, 0, 0, 0, 0
111928486, -1708, 14204, -7985, 129, 174, -872, -1388, -44, -1252, -1720, 0, 0, 0, 0, 0, 0, 0, 0
111950973, -1819, 14380, -7638, -36, 244, -870, -1278, -81, -1365, -2047, 0, 0, 0, 0, 0, 0, 0, 0
111974564, -1933, 14566, -7245, -220, 341, -1051, -1215, -151, -1508, -2275, 0, 0, 0, 0, 0, 0, 0, 0
111975364, -1933, 14566, -7245, -220, 341, -1051, -1215, -151, -1508, -2275, 126, 65, 337, 78, 473, 462, 205, 166
111980995, -1933, 14566, -7245, -220, 341, -1051, -1215, -151, -1508, -2275, 126, 65, 337, 78, 473, 462, 205, 166
111988562, -2053, 14755, -6808, -408, 435, -1169, -1149, -148, -1579, -2493, 126, 65, 337, 78, 473, 462, 205, 166
111996651, -2053, 14755, -6808, -408, 435, -1169, -1149, -148, -1579, -2493, 116, 56, 426, 73, 408, 473, 216, 262
111997414, -2053, 14755, -6808, -408, 435, -1169, -1149, -148, -1579, -2493, 116, 56, 426, 73, 408, 473, 216, 262
112010988, -2174, 14942, -6331, -591, 592, -1263, -1163, -151, -1616, -2689, 116, 56, 426, 73, 408, 473, 216, 262
112019092, -2174, 14942, -6331, -591, 592, -1263, -1163, -151, -1616, -2689, 114, 55, 394, 66, 401, 445, 193, 289
112019913, -2174, 14942, -6331, -591, 592, -1263, -1163, -151, -1616, -2689, 114, 55, 394, 66, 401, 445, 193, 289
112034783, -2297, 15116, -5836, -764, 742, -1226, -1187, -99, -1604, -2747, 114, 55, 394, 66, 401, 445, 193, 289
112035602, -2297, 15116, -5836, -764, 742, -1226, -1187, -99, -1604, -2747, 119, 56, 362, 64, 324, 454, 206, 323
112036433, -2297, 15116, -5836, -764, 742, -1226, -1187, -99, -1604, -2747, 119, 56, 362, 64, 324, 454, 206, 323
112048460, -2410, 15275, -5334, -927, 916, -1212, -1232, -121, -1568, -2755, 119, 56, 362, 64, 324, 454, 206, 323
112056664, -2410, 15275, -5334, -927, 916, -1212, -1232, -121, -1568, -2755, 97, 48, 320, 48, 283, 214, 186, 359
112057431, -2410, 15275, -5334, -927, 916, -1212, -1232, -121, -1568, -2755, 97, 48, 320, 48, 283, 214, 186, 359
112070958, -2509, 15414, -4836, -1077, 1061, -1282, -1237, -156, -1496, -2688, 97, 48, 320, 48, 283, 214, 186, 359
112079106, -2509, 15414, -4836, -1077, 1061, -1282, -1237, -156, -1496, -2688, 105, 43, 316, 61, 196, 208, 199, 354
112079952, -2509, 15414, -4836, -1077, 1061, -1282, -1237, -156, -1496, -2688, 105, 43, 316, 61, 196, 208, 199, 354
112094834, -2606, 15528, -4363, -1212, 1189, -1342, -1206, -116, -1419, -2518, 105, 43, 316, 61, 196, 208, 199, 354
112095630, -2606, 15528, -4363, -1212, 1189, -1342, -1206, -116, -1419, -2518, 114, 41, 154, 62, 160, 158, 167, 317
112096456, -2606, 15528, -4363, -1212, 1189, -1342, -1206, -116, -1419, -2518, 114, 41, 154, 62, 160, 158, 167, 317
112108490, -2704, 15623, -3908, -1331, 1239, -1446, -1188, -77, -1336, -2403, 114, 41, 154, 62, 160, 158, 167, 317
112116612, -2704, 15623, -3908, -1331, 1239, -1446, -1188, -77, -1336, -2403, 124, 39, 143, 62, 148, 147, 155, 351
112117410, -2704, 15623, -3908, -1331, 1239, -1446, -1188, -77, -1336, -2403, 124, 39, 143, 62, 148, 147, 155, 351
112130981, -2843, 15691, -3474, -1435, 1233, -1400, -1134, 206, -1296, -2283, 124, 39, 143, 62, 148, 147, 155, 351
112139079, -2843, 15691, -3474, -1435, 1233, -1400, -1134, 206, -1296, -2283, 113, 38, 169, 63, 120, 113, 171, 379
112139892, -2843, 15691, -3474, -1435, 1233, -1400, -1134, 206, -1296, -2283, 113, 38, 169, 63, 120, 113, 171, 379
112154829, -3014, 15735, -3068, -1528, 1160, -1315, -1166, 450, -1254, -2131, 113, 38, 169, 63, 120, 113, 171, 379
112155608, -3014, 15735, -3068, -1528, 1160, -1315, -1166, 450, -1254, -2131, 124, 43, 207, 62, 94, 98, 223, 401
112156438, -3014, 15735, -3068, -1528, 1160, -1315, -1166, 450, -1254, -2131, 124, 43, 207, 62, 94, 98, 223, 401
112168472, -3188, 15759, -2701, -1622, 1141, -1167, -1162, 523, -1235, -1904, 124, 43, 207, 62, 94, 98, 223, 401
112176586, -3188, 15759, -2701, -1622, 1141, -1167, -1162, 523, -1235, -1904, 127, 44, 197, 49, 54, 70, 234, 401
112177384, -3188, 15759, -2701, -1622, 1141, -1167, -1162, 523, -1235, -1904, 127, 44, 197, 49, 54, 70, 234, 401
112190971, -3328, 15772, -2377, -1714, 1181, -1043, -1063, 398, -1145, -1641, 127, 44, 197, 49, 54, 70, 234, 401
112199126, -3328, 15772, -2377, -1714, 1181, -1043, -1063, 398, -1145, -1641, 166, 48, 243, 50, 51, 63, 272, 431
112199917, -3328, 15772, -2377, -1714, 1181, -1043, -1063, 398, -1145, -1641, 166, 48, 243, 50, 51, 63, 272, 431
112215382, -3471, 15790, -2063, -1675, 1229, -1168, -1050, 236, -991, -1427, 166, 48, 243, 50, 51, 63, 272, 431
112216226, -3471, 15790, -2063, -1675, 1229, -1168, -1050, 236, -991, -1427, 171, 49, 268, 50, 50, 62, 269, 418
112217014, -3471, 15790, -2063, -1675, 1229, -1168, -1050, 236, -991, -1427, 171, 49, 268, 50, 50, 62, 269, 418
112228447, -3619, 15796, -1789, -1620, 1085, -1175, -1064, 331, -784, -1242, 171, 49, 268, 50, 50, 62, 269, 418
112236633, -3619, 15796, -1789, -1620, 1085, -1175, -1064, 331, -784, -1242, 179, 59, 412, 51, 51, 68, 261, 390
112237424, -3619, 15796, -1789, -1620, 1085, -1175, -1064, 331, -784, -1242, 179, 59, 412, 51, 51, 68, 261, 390
112250946, -3772, 15790, -1566, -1557, 1019, -1053, -1115, 489, -656, -1003, 179, 59, 412, 51, 51, 68, 261, 390
112259094, -3772, 15790, -1566, -1557, 1019, -1053, -1115, 489, -656, -1003, 176, 66, 509, 69, 74, 75, 287, 362
112259914, -3772, 15790, -1566, -1557, 1019, -1053, -1115, 489, -656, -1003, 176, 66, 509, 69, 74, 75, 287, 362
112274820, -3906, 15782, -1383, -1484, 1081, -1010, -1037, 440, -554, -771, 176, 66, 509, 69, 74, 75, 287, 362
112275615, -3906, 15782, -1383, -1484, 1081, -1010, -1037, 440, -554, -771, 221, 69, 561, 75, 76, 73, 282, 466
112276438, -3906, 15782, -1383, -1484, 1081, -1010, -1037, 440, -554, -771, 221, 69, 561, 75, 76, 73, 282, 466
112288472, -3986, 15783, -1231, -1385, 1211, -1032, -1031, 162, -386, -586, 221, 69, 561, 75, 76, 73, 282, 466
112296607, -3986, 15783, -1231, -1385, 1211, -1032, -1031, 162, -386, -586, 228, 69, 559, 84, 83, 77, 270, 466
112297407, -3986, 15783, -1231, -1385, 1211, -1032, -1031, 162, -386, -586, 228, 69, 559, 84, 83, 77, 270, 466
112310986, -4071, 15780, -1108, -1266, 1189, -1112, -1030, 190, -230, -449, 228, 69, 559, 84, 83, 77, 270, 466
112319081, -4071, 15780, -1108, -1266, 1189, -1112, -1030, 190, -230, -449, 227, 71, 555, 90, 117, 104, 281, 463
112319905, -4071, 15780, -1108, -1266, 1189, -1112, -1030, 190, -230, -449, 227, 71, 555, 90, 117, 104, 281, 463
112334775, -4152, 15777, -1005, -1131, 1193, -1039, -1003, 217, -96, -378, 227, 71, 555, 90, 117, 104, 281, 463
112335599, -4152, 15777, -1005, -1131, 1193, -1039, -1003, 217, -96, -378, 229, 159, 498, 109, 275, 167, 331, 497
112336436, -4152, 15777, -1005, -1131, 1193, -1039, -1003, 217, -96, -378, 229, 159, 498, 109, 275, 167, 331, 497
112348481, -4207, 15776, -918, -994, 1298, -1072, -938, 55, -89, -252, 229, 159, 498, 109, 275, 167, 331, 497
112356560, -4207, 15776, -918, -994, 1298, -1072, -938, 55, -89, -252, 302, 269, 536, 107, 308, 199, 357, 525
112357376, -4207, 15776, -918, -994, 1298, -1072, -938, 55, -89, -252, 302, 269, 536, 107, 308, 199, 357, 525
112370969, -4230, 15783, -839, -855, 1424, -1216, -865, -207, -96, -168, 302, 269, 536, 107, 308, 199, 357, 525
112379110, -4230, 15783, -839, -855, 1424, -1216, -865, -207, -96, -168, 292, 296, 506, 109, 319, 204, 368, 470
112380094, -4230, 15783, -839, -855, 1424, -1216, -865, -207, -96, -168, 292, 296, 506, 109, 319, 204, 368, 470
112394848, -4266, 15784, -760, -719, 1373, -1400, -903, -208, -87, -177, 292, 296, 506, 109, 319, 204, 368, 470
112395633, -4266, 15784, -760, -719, 1373, -1400, -903, -208, -87, -177, 293, 301, 505, 135, 341, 206, 371, 497
112396464, -4266, 15784, -760, -719, 1373, -1400, -903, -208, -87, -177, 293, 301, 505, 135, 341, 206, 371, 497
112408509, -4326, 15776, -691, -584, 1451, -1252, -943, 29, -117, -119, 293, 301, 505, 135, 341, 206, 371, 497
112416618, -4326, 15776, -691, -584, 1451, -1252, -943, 29, -117, -119, 289, 311, 595, 178, 341, 198, 385, 604
112417411, -4326, 15776, -691, -584, 1451, -1252, -943, 29, -117, -119, 289, 311, 595, 178, 341, 198, 385, 604
112430994, -4274, 15797, -635, -441, 1574, -897, -1066, -421, -76, -39, 289, 311, 595, 178, 341, 198, 385, 604
112439087, -4274, 15797, -635, -441, 1574, -897, -1066, -421, -76, -39, 312, 314, 612, 284, 244, 147, 347, 680
112439908, -4274, 15797, -635, -441, 1574, -897, -1066, -421, -76, -39, 312, 314, 612, 284, 244, 147, 347, 680
112454884, -4034, 15865, -618, -279, 1690, -845, -1124, -1473, 77, 166, 312, 314, 612, 284, 244, 147, 347, 680
112455679, -4034, 15865, -618, -279, 1690, -845, -1124, -1473, 77, 166, 340, 251, 546, 482, 229, 129, 283, 800
112456506, -4034, 15865, -618, -279, 1690, -845, -1124, -1473, 77, 166, 340, 251, 546, 482, 229, 129, 283, 800
112462254, -4034, 15865, -618, -279, 1690, -845, -1124, -1473, 77, 166, 340, 251, 546, 482, 229, 129, 283, 800
112463086, -4034, 15865, -618, -279, 1690, -845, -1124, -1473, 77, 166, 340, 251, 546, 482, 229, 129, 283, 800
112463912, -4034, 15865, -618, -279, 1690, -845, -1124, -1473, 77, 166, 340, 251, 546, 482, 229, 129, 283, 800
112477405, -3636, 15959, -682, -205, 1730, -1073, -1217, -2328, 364, 373, 340, 251, 546, 482, 229, 129, 283, 800
112478231, -3636, 15959, -682, -205, 1730, -1073, -1217, -2328, 364, 373, 349, 309, 602, 739, 262, 143, 288, 835
112479033, -3636, 15959, -682, -205, 1730, -1073, -1217, -2328, 364, 373, 349, 309, 602, 739, 262, 143, 288, 835
112490968, -3120, 16065, -776, -118, 1570, -1413, -1277, -3027, 518, 511, 349, 309, 602, 739, 262, 143, 288, 835
112499107, -3120, 16065, -776, -118, 1570, -1413, -1277, -3027, 518, 511, 358, 318, 608, 914, 393, 188, 381, 962
112499929, -3120, 16065, -776, -118, 1570, -1413, -1277, -3027, 518, 511, 358, 318, 608, 914, 393, 188, 381, 962
112514843, -2504, 16166, -887, -151, 1574, -1284, -1598, -3594, -99, 720, 358, 318, 608, 914, 393, 188, 381, 962
112515638, -2504, 16166, -887, -151, 1574, -1284, -1598, -3594, -99, 720, 403, 320, 596, 1137, 461, 211, 444, 981
112516466, -2504, 16166, -887, -151, 1574, -1284, -1598, -3594, -99, 720, 403, 320, 596, 1137, 461, 211, 444, 981
112528492, -1847, 16241, -1089, -268, 1993, -1214, -1926, -3822, -549, 1303, 403, 320, 596, 1137, 461, 211, 444, 981
112536604, -1847, 16241, -1089, -268, 1993, -1214, -1926, -3822, -549, 1303, 494, 292, 590, 1228, 492, 237, 590, 935
112537400, -1847, 16241, -1089, -268, 1993, -1214, -1926, -3822, -549, 1303, 494, 292, 590, 1228, 492, 237, 590, 935
112551001, -1209, 16284, -1298, -327, 1036, -2193, -2050, -3822, -109, 1284, 494, 292, 590, 1228, 492, 237, 590, 935
112559084, -1209, 16284, -1298, -327, 1036, -2193, -2050, -3822, -109, 1284, 507, 274, 577, 1319, 593, 227, 595, 840
112559911, -1209, 16284, -1298, -327, 1036, -2193, -2050, -3822, -109, 1284, 507, 274, 577, 1319, 593, 227, 595, 840
112574157, -558, 16308, -1398, -453, 375, -3355, -1739, -3678, -370, 670, 507, 274, 577, 1319, 593, 227, 595, 840
112574957, -558, 16308, -1398, -453, 375, -3355, -1739, -3678, -370, 670, 621, 209, 512, 1333, 717, 235, 662, 861
112580918, -558, 16308, -1398, -453, 375, -3355, -1739, -3678, -370, 670, 621, 209, 512, 1333, 717, 235, 662, 861
112588538, -289, 16301, -1497, -617, 1611, -2085, -1816, -1833, -1001, 656, 621, 209, 512, 1333, 717, 235, 662, 861
112596649, -289, 16301, -1497, -617, 1611, -2085, -1816, -1833, -1001, 656, 650, 198, 491, 1333, 775, 252, 637, 808
112597425, -289, 16301, -1497, -617, 1611, -2085, -1816, -1833, -1001, 656, 650, 198, 491, 1333, 775, 252, 637, 808
112610986, -123, 16290, -1633, -615, 1806, -886, -2525, -1362, -1004, 855, 650, 198, 491, 1333, 775, 252, 637, 808
112619085, -123, 16290, -1633, -615, 1806, -886, -2525, -1362, -1004, 855, 653, 188, 398, 1274, 800, 239, 694, 769
112619878, -123, 16290, -1633, -615, 1806, -886, -2525, -1362, -1004, 855, 653, 188, 398, 1274, 800, 239, 694, 769
112634153, 390, 16264, -1774, -782, 1032, -1292, -2381, -3107, -811, 926, 653, 188, 398, 1274, 800, 239, 694, 769
112634931, 390, 16264, -1774, -782, 1032, -1292, -2381, -3107, -811, 926, 633, 183, 350, 1326, 877, 218, 609, 824
112640908, 390, 16264, -1774, -782, 1032, -1292, -2381, -3107, -811, 926, 633, 183, 350, 1326, 877, 218, 609, 824
112648583, 826, 16225, -1859, -1014, 1175, -2567, -2214, -2926, -1240, 600, 633, 183, 350, 1326, 877, 218, 609, 824
112656577, 826, 16225, -1859, -1014, 1175, -2567, -2214, -2926, -1240, 600, 667, 195, 351, 1389, 885, 221, 652, 879
112657398, 826, 16225, -1859, -1014, 1175, -2567, -2214, -2926, -1240, 600, 667, 195, 351, 1389, 885, 221, 652, 879
112670960, 1102, 16179, -1981, -1239, 1484, -1692, -2373, -1912, -1360, 735, 667, 195, 351, 1389, 885, 221, 652, 879
112679060, 1102, 16179, -1981, -1239, 1484, -1692, -2373, -1912, -1360, 735, 615, 153, 372, 1296, 867, 211, 705, 870
112679922, 1102, 16179, -1981, -1239, 1484, -1692, -2373, -1912, -1360, 735, 615, 153, 372, 1296, 867, 211, 705, 870
112693457, 1441, 16115, -2122, -1464, 1368, -1467, -2288, -2241, -1323, 880, 615, 153, 372, 1296, 867, 211, 705, 870
112701632, 1441, 16115, -2122, -1464, 1368, -1467, -2288, -2241, -1323, 880, 671, 142, 371, 1238, 833, 191, 797, 791
112702428, 1441, 16115, -2122, -1464, 1368, -1467, -2288, -2241, -1323, 880, 671, 142, 371, 1238, 833, 191, 797, 791
112708589, 1751, 16045, -2254, -1680, 1263, -1730, -2233, -2124, -1283, 826, 671, 142, 371, 1238, 833, 191, 797, 791
112716583, 1751, 16045, -2254, -1680, 1263, -1730, -2233, -2124, -1283, 826, 737, 145, 368, 1146, 865, 198, 717, 839
112717380, 1751, 16045, -2254, -1680, 1263, -1730, -2233, -2124, -1283, 826, 737, 145, 368, 1146, 865, 198, 717, 839
112730969, 1835, 16010, -2398, -1731, 1182, -1626, -2101, -1567, -1148, 828, 737, 145, 368, 1146, 865, 198, 717, 839
112739168, 1835, 16010, -2398, -1731, 1182, -1626, -2101, -1567, -1148, 828, 750, 140, 370, 1086, 919, 212, 722, 831
112739929, 1835, 16010, -2398, -1731, 1182, -1626, -2101, -1567, -1148, 828, 750, 140, 370, 1086, 919, 212, 722, 831
112753455, 1896, 15979, -2515, -1778, 1147, -1535, -2117, -1409, -1105, 654, 750, 140, 370, 1086, 919, 212, 722, 831
112761611, 1896, 15979, -2515, -1778, 1147, -1535, -2117, -1409, -1105, 654, 762, 118, 316, 856, 890, 209, 729, 877
112762430, 1896, 15979, -2515, -1778, 1147, -1535, -2117, -1409, -1105, 654, 762, 118, 316, 856, 890, 209, 729, 877
112768600, 1909, 15957, -2625, -1802, 1176, -1624, -2085, -1175, -1024, 596, 762, 118, 316, 856, 890, 209, 729, 877
112776633, 1909, 15957, -2625, -1802, 1176, -1624, -2085, -1175, -1024, 596, 748, 118, 289, 823, 833, 206, 623, 882
112777433, 1909, 15957, -2625, -1802, 1176, -1624, -2085, -1175, -1024, 596, 748, 118, 289, 823, 833, 206, 623, 882
112790965, 1858, 15949, -2718, -1791, 1230, -1553, -2034, -745, -888, 463, 748, 118, 289, 823, 833, 206, 623, 882
112799153, 1858, 15949, -2718, -1791, 1230, -1553, -2034, -745, -888, 463, 735, 115, 282, 759, 782, 173, 509, 930
112799928, 1858, 15949, -2718, -1791, 1230, -1553, -2034, -745, -888, 463, 735, 115, 282, 759, 782, 173, 509, 930
112813421, 1766, 15953, -2796, -1726, 1265, -1459, -2099, -428, -638, 364, 735, 115, 282, 759, 782, 173, 509, 930
112821619, 1766, 15953, -2796, -1726, 1265, -1459, -2099, -428, -638, 364, 712, 103, 363, 732, 700, 153, 494, 858
112822589, 1766, 15953, -2796, -1726, 1265, -1459, -2099, -428, -638, 364, 712, 103, 363, 732, 700, 153, 494, 858
112828571, 1639, 15968, -2849, -1627, 1213, -1417, -2197, -192, -435, 230, 712, 103, 363, 732, 700, 153, 494, 858
112836611, 1639, 15968, -2849, -1627, 1213, -1417, -2197, -192, -435, 230, 692, 94, 345, 542, 488, 128, 479, 931
112837428, 1639, 15968, -2849, -1627, 1213, -1417, -2197, -192, -435, 230, 692, 94, 345, 542, 488, 128, 479, 931
112850966, 1485, 15989, -2883, -1503, 1161, -1429, -2240, -18, -282, 123, 692, 94, 345, 542, 488, 128, 479, 931
112859102, 1485, 15989, -2883, -1503, 1161, -1429, -2240, -18, -282, 123, 620, 88, 328, 459, 421, 130, 438, 946
112859922, 1485, 15989, -2883, -1503, 1161, -1429, -2240, -18, -282, 123, 620, 88, 328, 459, 421, 130, 438, 946
112873485, 1296, 16014, -2907, -1355, 1142, -1453, -2326, 191, -157, 72, 620, 88, 328, 459, 421, 130, 438, 946
112881609, 1296, 16014, -2907, -1355, 1142, -1453, -2326, 191, -157, 72, 612, 91, 316, 431, 386, 119, 535, 932
112882408, 1296, 16014, -2907, -1355, 1142, -1453, -2326, 191, -157, 72, 612, 91, 316, 431, 386, 119, 535, 932
112888555, 1097, 16038, -2926, -1200, 1071, -1372, -2391, 315, -84, 50, 612, 91, 316, 431, 386, 119, 535, 932
112904077, 1097, 16038, -2926, -1200, 1071, -1372, -2391, 315, -84, 50, 539, 85, 337, 433, 349, 109, 493, 879
112904904, 1097, 16038, -2926, -1200, 1071, -1372, -2391, 315, -84, 50, 539, 85, 337, 433, 349, 109, 493, 879
112911083, 897, 16059, -2933, -1053, 1035, -1395, -2390, 321, -89, -6, 539, 85, 337, 433, 349, 109, 493, 879
112919106, 897, 16059, -2933, -1053, 1035, -1395, -2390, 321, -89, -6, 509, 78, 249, 385, 309, 108, 512, 953
112919907, 897, 16059, -2933, -1053, 1035, -1395, -2390, 321, -89, -6, 509, 78, 249, 385, 309, 108, 512, 953
112933485, 684, 16079, -2933, -903, 1043, -1459, -2416, 394, -77, -36, 509, 78, 249, 385, 309, 108, 512, 953
112941583, 684, 16079, -2933, -903, 1043, -1459, -2416, 394, -77, -36, 488, 80, 239, 376, 351, 106, 523, 907
112942413, 684, 16079, -2933, -903, 1043, -1459, -2416, 394, -77, -36, 488, 80, 239, 376, 351, 106, 523, 907
112948565, 482, 16094, -2935, -747, 1084, -1387, -2458, 407, -46, -18, 488, 80, 239, 376, 351, 106, 523, 907
112964094, 482, 16094, -2935, -747, 1084, -1387, -2458, 407, -46, -18, 544, 79, 234, 413, 323, 99, 490, 800
112964907, 482, 16094, -2935, -747, 1084, -1387, -2458, 407, -46, -18, 544, 79, 234, 413, 323, 99, 490, 800
112971054, 296, 16103, -2944, -592, 1036, -1335, -2451, 384, 11, 33, 544, 79, 234, 413, 323, 99, 490, 800
112979074, 296, 16103, -2944, -592, 1036, -1335, -2451, 384, 11, 33, 555, 72, 210, 409, 300, 99, 411, 758
112980008, 296, 16103, -2944, -592, 1036, -1335, -2451, 384, 11, 33, 555, 72, 210, 409, 300, 99, 411, 758
112993491, 116, 16110, -2948, -448, 918, -1431, -2424, 314, 32, 20, 555, 72, 210, 409, 300, 99, 411, 758
113001591, 116, 16110, -2948, -448, 918, -1431, -2424, 314, 32, 20, 607, 75, 160, 371, 269, 136, 414, 856
113002402, 116, 16110, -2948, -448, 918, -1431, -2424, 314, 32, 20, 607, 75, 160, 371, 269, 136, 414, 856
113008558, -58, 16115, -2938, -311, 937, -1497, -2337, 270, 15, -53, 607, 75, 160, 371, 269, 136, 414, 856
113024087, -58, 16115, -2938, -311, 937, -1497, -2337, 270, 15, -53, 561, 73, 130, 431, 261, 148, 478, 756
113024876, -58, 16115, -2938, -311, 937, -1497, -2337, 270, 15, -53, 561, 73, 130, 431, 261, 148, 478, 756
113031041, -221, 16118, -2924, -178, 965, -1436, -2361, 263, 1, -68, 561, 73, 130, 431, 261, 148, 478, 756
113039080, -221, 16118, -2924, -178, 965, -1436, -2361, 263, 1, -68, 580, 74, 96, 466, 178, 151, 508, 767
113039906, -221, 16118, -2924, -178, 965, -1436, -2361, 263, 1, -68, 580, 74, 96, 466, 178, 151, 508, 767
113053482, -394, 16117, -2915, -45, 1026, -1420, -2373, 364, -29, -33, 580, 74, 96, 466, 178, 151, 508, 767
113061579, -394, 16117, -2915, -45, 1026, -1420, -2373, 364, -29, -33, 517, 75, 83, 502, 176, 148, 525, 818
113062379, -394, 16117, -2915, -45, 1026, -1420, -2373, 364, -29, -33, 517, 75, 83, 502, 176, 148, 525, 818
113068534, -548, 16113, -2911, 84, 976, -1352, -2340, 318, 17, -3, 517, 75, 83, 502, 176, 148, 525, 818
113092263, -548, 16113, -2911, 84, 976, -1352, -2340, 318, 17, -3, 592, 75, 86, 542, 159, 147, 493, 884
113093070, -548, 16113, -2911, 84, 976, -1352, -2340, 318, 17, -3, 592, 75, 86, 542, 159, 147, 493, 884
113094009, -701, 16108, -2901, 214, 924, -1413, -2320, 309, 66, -33, 592, 75, 86, 542, 159, 147, 493, 884