Timestamp, Orientation x, Orientation y, Orientation z, Orientation w, Acceleration x, Acceleration y, Acceleration z, Rotation x, Rotation y, Rotation z, EMG 0, EMG 1, EMG 2, EMG 3, EMG 4, EMG 5, EMG 6, EMG 7
791610784, -4326, 9760, 10191, 7112, 3922, 1046, -2236, 30, -24, -6, 0, 0, 0, 0, 0, 0, 0, 0
791618215, -4327, 9759, 10194, 7109, 3930, 1041, -2235, 20, -15, -11, 0, 0, 0, 0, 0, 0, 0, 0
791633215, -4329, 9756, 10196, 7108, 3922, 1042, -2219, 23, -5, -16, 0, 0, 0, 0, 0, 0, 0, 0
791655752, -4332, 9751, 10199, 7109, 3942, 1053, -2229, 26, 9, -23, 0, 0, 0, 0, 0, 0, 0, 0
791687095, -4333, 9737, 10207, 7117, 3949, 1060, -2254, 16, 53, -84, 0, 0, 0, 0, 0, 0, 0, 0
791687866, -4333, 9737, 10207, 7117, 3949, 1060, -2254, 16, 53, -84, 44, 46, 26, 34, 28, 25, 93, 92
791688675, -4333, 9737, 10207, 7117, 3949, 1060, -2254, 16, 53, -84, 44, 46, 26, 34, 28, 25, 93, 92
791693294, -4333, 9707, 10225, 7132, 3962, 1099, -2340, 26, 135, -175, 44, 46, 26, 34, 28, 25, 93, 92
791701396, -4333, 9707, 10225, 7132, 3962, 1099, -2340, 26, 135, -175, 42, 53, 30, 32, 27, 25, 75, 64
791702150, -4333, 9707, 10225, 7132, 3962, 1099, -2340, 26, 135, -175, 42, 53, 30, 32, 27, 25, 75, 64
791715779, -4322, 9651, 10263, 7159, 3939, 1150, -2364, 43, 192, -365, 42, 53, 30, 32, 27, 25, 75, 64
791723845, -4322, 9651, 10263, 7159, 3939, 1150, -2364, 43, 192, -365, 72, 66, 40, 30, 27, 24, 65, 54
791724664, -4322, 9651, 10263, 7159, 3939, 1150, -2364, 43, 192, -365, 72, 66, 40, 30, 27, 24, 65, 54
791739563, -4288, 9580, 10318, 7196, 3833, 1203, -2403, -16, 206, -532, 72, 66, 40, 30, 27, 24, 65, 54
791740372, -4288, 9580, 10318, 7196, 3833, 1203, -2403, -16, 206, -532, 95, 78, 52, 30, 28, 25, 50, 54
791741146, -4288, 9580, 10318, 7196, 3833, 1203, -2403, -16, 206, -532, 95, 78, 52, 30, 28, 25, 50, 54
791753227, -4239, 9497, 10393, 7227, 3846, 1308, -2462, 29, 158, -644, 95, 78, 52, 30, 28, 25, 50, 54
791761396, -4239, 9497, 10393, 7227, 3846, 1308, -2462, 29, 158, -644, 117, 97, 64, 32, 28, 25, 38, 50
791762117, -4239, 9497, 10393, 7227, 3846, 1308, -2462, 29, 158, -644, 117, 97, 64, 32, 28, 25, 38, 50
791775719, -4194, 9393, 10488, 7253, 3887, 1416, -2370, 161, 111, -758, 117, 97, 64, 32, 28, 25, 38, 50
791783895, -4194, 9393, 10488, 7253, 3887, 1416, -2370, 161, 111, -758, 139, 142, 87, 36, 31, 28, 38, 55
791784692, -4194, 9393, 10488, 7253, 3887, 1416, -2370, 161, 111, -758, 139, 142, 87, 36, 31, 28, 38, 55
791799527, -4162, 9259, 10612, 7264, 3870, 1460, -2322, 375, 120, -917, 139, 142, 87, 36, 31, 28, 38, 55
791800389, -4162, 9259, 10612, 7264, 3870, 1460, -2322, 375, 120, -917, 179, 151, 92, 36, 32, 29, 41, 62
791801137, -4162, 9259, 10612, 7264, 3870, 1460, -2322, 375, 120, -917, 179, 151, 92, 36, 32, 29, 41, 62
791813399, -4126, 9090, 10763, 7275, 3864, 1533, -2351, 471, 157, -1145, 179, 151, 92, 36, 32, 29, 41, 62
791821394, -4126, 9090, 10763, 7275, 3864, 1533, -2351, 471, 157, -1145, 194, 166, 93, 37, 32, 32, 44, 67
791822174, -4126, 9090, 10763, 7275, 3864, 1533, -2351, 471, 157, -1145, 194, 166, 93, 37, 32, 32, 44, 67
791835715, -4089, 8885, 10935, 7292, 3845, 1611, -2347, 544, 224, -1364, 194, 166, 93, 37, 32, 32, 44, 67
791843874, -4089, 8885, 10935, 7292, 3845, 1611, -2347, 544, 224, -1364, 202, 182, 100, 41, 32, 31, 47, 64
791844658, -4089, 8885, 10935, 7292, 3845, 1611, -2347, 544, 224, -1364, 202, 182, 100, 41, 32, 31, 47, 64
791859581, -4045, 8646, 11118, 7327, 3828, 1704, -2285, 542, 289, -1577, 202, 182, 100, 41, 32, 31, 47, 64
791860374, -4045, 8646, 11118, 7327, 3828, 1704, -2285, 542, 289, -1577, 202, 191, 101, 46, 37, 35, 53, 127
791861178, -4045, 8646, 11118, 7327, 3828, 1704, -2285, 542, 289, -1577, 202, 191, 101, 46, 37, 35, 53, 127
791873267, -4002, 8372, 11316, 7365, 3745, 1713, -2240, 602, 360, -1792, 202, 191, 101, 46, 37, 35, 53, 127
791881395, -4002, 8372, 11316, 7365, 3745, 1713, -2240, 602, 360, -1792, 196, 169, 88, 44, 36, 35, 56, 157
791882170, -4002, 8372, 11316, 7365, 3745, 1713, -2240, 602, 360, -1792, 196, 169, 88, 44, 36, 35, 56, 157
791895747, -3963, 8067, 11527, 7400, 3655, 1802, -2186, 700, 424, -1937, 196, 169, 88, 44, 36, 35, 56, 157
791903838, -3963, 8067, 11527, 7400, 3655, 1802, -2186, 700, 424, -1937, 176, 173, 104, 64, 41, 37, 56, 198
791904634, -3963, 8067, 11527, 7400, 3655, 1802, -2186, 700, 424, -1937, 176, 173, 104, 64, 41, 37, 56, 198
791920996, -3923, 7724, 11759, 7421, 3536, 1936, -2144, 855, 452, -2117, 176, 173, 104, 64, 41, 37, 56, 198
791921801, -4326, 9760, 10191, 7112, 3922, 1046, -2236, 30, -24, -6, 176, 173, 104, 64, 41, 37, 56, 198
791922627, -4327, 9759, 10194, 7109, 3930, 1041, -2235, 20, -15, -11, 176, 173, 104, 64, 41, 37, 56, 198
791923464, -4329, 9756, 10196, 7108, 3922, 1042, -2219, 23, -5, -16, 176, 173, 104, 64, 41, 37, 56, 198
791928411, -4332, 9751, 10199, 7109, 3942, 1053, -2229, 26, 9, -23, 176, 173, 104, 64, 41, 37, 56, 198
791929239, -4333, 9737, 10207, 7117, 3949, 1060, -2254, 16, 53, -84, 176, 173, 104, 64, 41, 37, 56, 198
791930079, -4333, 9737, 10207, 7117, 3949, 1060, -2254, 16, 53, -84, 44, 46, 26, 34, 28, 25, 93, 92
791930877, -4333, 9737, 10207, 7117, 3949, 1060, -2254, 16, 53, -84, 44, 46, 26, 34, 28, 25, 93, 92
791943455, -4333, 9737, 10207, 7117, 3949, 1060, -2254, 16, 53, -84, 42, 53, 30, 32, 27, 25, 75, 64
791944228, -4333, 9737, 10207, 7117, 3949, 1060, -2254, 16, 53, -84, 42, 53, 30, 32, 27, 25, 75, 64
791945039, -4333, 9737, 10207, 7117, 3949, 1060, -2254, 16, 53, -84, 42, 53, 30, 32, 27, 25, 75, 64
791945841, -4333, 9737, 10207, 7117, 3949, 1060, -2254, 16, 53, -84, 42, 53, 30, 32, 27, 25, 75, 64
791950805, -4333, 9737, 10207, 7117, 3949, 1060, -2254, 16, 53, -84, 42, 53, 30, 32, 27, 25, 75, 64
791951633, -4333, 9737, 10207, 7117, 3949, 1060, -2254, 16, 53, -84, 42, 53, 30, 32, 27, 25, 75, 64
791952442, -4333, 9737, 10207, 7117, 3949, 1060, -2254, 16, 53, -84, 42, 53, 30, 32, 27, 25, 75, 64
791953247, -4333, 9737, 10207, 7117, 3949, 1060, -2254, 16, 53, -84, 42, 53, 30, 32, 27, 25, 75, 64
791958411, -4333, 9737, 10207, 7117, 3949, 1060, -2254, 16, 53, -84, 72, 66, 40, 30, 27, 24, 65, 54
791959247, -4333, 9737, 10207, 7117, 3949, 1060, -2254, 16, 53, -84, 72, 66, 40, 30, 27, 24, 65, 54
791960039, -4333, 9737, 10207, 7117, 3949, 1060, -2254, 16, 53, -84, 72, 66, 40, 30, 27, 24, 65, 54
791960857, -4333, 9737, 10207, 7117, 3949, 1060, -2254, 16, 53, -84, 72, 66, 40, 30, 27, 24, 65, 54
791965834, -4333, 9737, 10207, 7117, 3949, 1060, -2254, 16, 53, -84, 72, 66, 40, 30, 27, 24, 65, 54
791966627, -4333, 9737, 10207, 7117, 3949, 1060, -2254, 16, 53, -84, 72, 66, 40, 30, 27, 24, 65, 54
791967448, -4333, 9737, 10207, 7117, 3949, 1060, -2254, 16, 53, -84, 72, 66, 40, 30, 27, 24, 65, 54
791968256, -4333, 9737, 10207, 7117, 3949, 1060, -2254, 16, 53, -84, 72, 66, 40, 30, 27, 24, 65, 54
791973392, -4333, 9737, 10207, 7117, 3949, 1060, -2254, 16, 53, -84, 72, 66, 40, 30, 27, 24, 65, 54
791974279, -4288, 9580, 10318, 7196, 3833, 1203, -2403, -16, 206, -532, 72, 66, 40, 30, 27, 24, 65, 54
791975069, -4288, 9580, 10318, 7196, 3833, 1203, -2403, -16, 206, -532, 95, 78, 52, 30, 28, 25, 50, 54
791975884, -4288, 9580, 10318, 7196, 3833, 1203, -2403, -16, 206, -532, 95, 78, 52, 30, 28, 25, 50, 54
791980909, -4288, 9580, 10318, 7196, 3833, 1203, -2403, -16, 206, -532, 95, 78, 52, 30, 28, 25, 50, 54
791981724, -4288, 9580, 10318, 7196, 3833, 1203, -2403, -16, 206, -532, 95, 78, 52, 30, 28, 25, 50, 54
791982520, -4288, 9580, 10318, 7196, 3833, 1203, -2403, -16, 206, -532, 95, 78, 52, 30, 28, 25, 50, 54
791983355, -4288, 9580, 10318, 7196, 3833, 1203, -2403, -16, 206, -532, 95, 78, 52, 30, 28, 25, 50, 54
791988355, -4288, 9580, 10318, 7196, 3833, 1203, -2403, -16, 206, -532, 95, 78, 52, 30, 28, 25, 50, 54
791989040, -4288, 9580, 10318, 7196, 3833, 1203, -2403, -16, 206, -532, 95, 78, 52, 30, 28, 25, 50, 54
791989919, -4288, 9580, 10318, 7196, 3833, 1203, -2403, -16, 206, -532, 95, 78, 52, 30, 28, 25, 50, 54
791990729, -4288, 9580, 10318, 7196, 3833, 1203, -2403, -16, 206, -532, 95, 78, 52, 30, 28, 25, 50, 54
792003384, -4288, 9580, 10318, 7196, 3833, 1203, -2403, -16, 206, -532, 95, 78, 52, 30, 28, 25, 50, 54
792004286, -4239, 9497, 10393, 7227, 3846, 1308, -2462, 29, 158, -644, 95, 78, 52, 30, 28, 25, 50, 54
792005107, -4239, 9497, 10393, 7227, 3846, 1308, -2462, 29, 158, -644, 117, 97, 64, 32, 28, 25, 38, 50
792005923, -4239, 9497, 10393, 7227, 3846, 1308, -2462, 29, 158, -644, 117, 97, 64, 32, 28, 25, 38, 50
792010920, -4239, 9497, 10393, 7227, 3846, 1308, -2462, 29, 158, -644, 117, 97, 64, 32, 28, 25, 38, 50
792011741, -4239, 9497, 10393, 7227, 3846, 1308, -2462, 29, 158, -644, 117, 97, 64, 32, 28, 25, 38, 50
792012550, -4239, 9497, 10393, 7227, 3846, 1308, -2462, 29, 158, -644, 117, 97, 64, 32, 28, 25, 38, 50
792013354, -4239, 9497, 10393, 7227, 3846, 1308, -2462, 29, 158, -644, 117, 97, 64, 32, 28, 25, 38, 50
792018374, -4239, 9497, 10393, 7227, 3846, 1308, -2462, 29, 158, -644, 117, 97, 64, 32, 28, 25, 38, 50
792019122, -4239, 9497, 10393, 7227, 3846, 1308, -2462, 29, 158, -644, 117, 97, 64, 32, 28, 25, 38, 50
792019935, -4239, 9497, 10393, 7227, 3846, 1308, -2462, 29, 158, -644, 117, 97, 64, 32, 28, 25, 38, 50
792020754, -4239, 9497, 10393, 7227, 3846, 1308, -2462, 29, 158, -644, 117, 97, 64, 32, 28, 25, 38, 50
792025843, -4239, 9497, 10393, 7227, 3846, 1308, -2462, 29, 158, -644, 117, 97, 64, 32, 28, 25, 38, 50
792026768, -4194, 9393, 10488, 7253, 3887, 1416, -2370, 161, 111, -758, 117, 97, 64, 32, 28, 25, 38, 50
792027575, -4194, 9393, 10488, 7253, 3887, 1416, -2370, 161, 111, -758, 139, 142, 87, 36, 31, 28, 38, 55
792028391, -4194, 9393, 10488, 7253, 3887, 1416, -2370, 161, 111, -758, 139, 142, 87, 36, 31, 28, 38, 55
792033440, -4194, 9393, 10488, 7253, 3887, 1416, -2370, 161, 111, -758, 139, 142, 87, 36, 31, 28, 38, 55
792034216, -4194, 9393, 10488, 7253, 3887, 1416, -2370, 161, 111, -758, 139, 142, 87, 36, 31, 28, 38, 55
792035019, -4194, 9393, 10488, 7253, 3887, 1416, -2370, 161, 111, -758, 139, 142, 87, 36, 31, 28, 38, 55
792035831, -4194, 9393, 10488, 7253, 3887, 1416, -2370, 161, 111, -758, 139, 142, 87, 36, 31, 28, 38, 55
792040825, -4194, 9393, 10488, 7253, 3887, 1416, -2370, 161, 111, -758, 139, 142, 87, 36, 31, 28, 38, 55
792041619, -4194, 9393, 10488, 7253, 3887, 1416, -2370, 161, 111, -758, 139, 142, 87, 36, 31, 28, 38, 55
792042416, -4194, 9393, 10488, 7253, 3887, 1416, -2370, 161, 111, -758, 139, 142, 87, 36, 31, 28, 38, 55
792043227, -4194, 9393, 10488, 7253, 3887, 1416, -2370, 161, 111, -758, 139, 142, 87, 36, 31, 28, 38, 55
792046097, -4194, 9393, 10488, 7253, 3887, 1416, -2370, 161, 111, -758, 139, 142, 87, 36, 31, 28, 38, 55
792055933, -4162, 9259, 10612, 7264, 3870, 1460, -2322, 375, 120, -917, 139, 142, 87, 36, 31, 28, 38, 55
792056736, -4162, 9259, 10612, 7264, 3870, 1460, -2322, 375, 120, -917, 179, 151, 92, 36, 32, 29, 41, 62
792057544, -4162, 9259, 10612, 7264, 3870, 1460, -2322, 375, 120, -917, 179, 151, 92, 36, 32, 29, 41, 62
792058355, -4162, 9259, 10612, 7264, 3870, 1460, -2322, 375, 120, -917, 179, 151, 92, 36, 32, 29, 41, 62
792063365, -4162, 9259, 10612, 7264, 3870, 1460, -2322, 375, 120, -917, 179, 151, 92, 36, 32, 29, 41, 62
792064131, -4162, 9259, 10612, 7264, 3870, 1460, -2322, 375, 120, -917, 179, 151, 92, 36, 32, 29, 41, 62
792064944, -4162, 9259, 10612, 7264, 3870, 1460, -2322, 375, 120, -917, 179, 151, 92, 36, 32, 29, 41, 62
792065765, -4162, 9259, 10612, 7264, 3870, 1460, -2322, 375, 120, -917, 179, 151, 92, 36, 32, 29, 41, 62
792070851, -4162, 9259, 10612, 7264, 3870, 1460, -2322, 375, 120, -917, 179, 151, 92, 36, 32, 29, 41, 62
792071770, -4126, 9090, 10763, 7275, 3864, 1533, -2351, 471, 157, -1145, 179, 151, 92, 36, 32, 29, 41, 62
792072590, -4126, 9090, 10763, 7275, 3864, 1533, -2351, 471, 157, -1145, 194, 166, 93, 37, 32, 32, 44, 67
792073426, -4126, 9090, 10763, 7275, 3864, 1533, -2351, 471, 157, -1145, 194, 166, 93, 37, 32, 32, 44, 67
792078427, -4126, 9090, 10763, 7275, 3864, 1533, -2351, 471, 157, -1145, 194, 166, 93, 37, 32, 32, 44, 67
792079237, -4126, 9090, 10763, 7275, 3864, 1533, -2351, 471, 157, -1145, 194, 166, 93, 37, 32, 32, 44, 67
792080043, -4126, 9090, 10763, 7275, 3864, 1533, -2351, 471, 157, -1145, 194, 166, 93, 37, 32, 32, 44, 67
792080863, -4126, 9090, 10763, 7275, 3864, 1533, -2351, 471, 157, -1145, 194, 166, 93, 37, 32, 32, 44, 67
792085824, -4126, 9090, 10763, 7275, 3864, 1533, -2351, 471, 157, -1145, 194, 166, 93, 37, 32, 32, 44, 67
792086606, -4126, 9090, 10763, 7275, 3864, 1533, -2351, 471, 157, -1145, 194, 166, 93, 37, 32, 32, 44, 67
792087415, -4126, 9090, 10763, 7275, 3864, 1533, -2351, 471, 157, -1145, 194, 166, 93, 37, 32, 32, 44, 67
792088224, -4126, 9090, 10763, 7275, 3864, 1533, -2351, 471, 157, -1145, 194, 166, 93, 37, 32, 32, 44, 67
792093361, -4126, 9090, 10763, 7275, 3864, 1533, -2351, 471, 157, -1145, 194, 166, 93, 37, 32, 32, 44, 67
792094246, -4089, 8885, 10935, 7292, 3845, 1611, -2347, 544, 224, -1364, 194, 166, 93, 37, 32, 32, 44, 67
792095070, -4089, 8885, 10935, 7292, 3845, 1611, -2347, 544, 224, -1364, 202, 182, 100, 41, 32, 31, 47, 64
792095880, -4089, 8885, 10935, 7292, 3845, 1611, -2347, 544, 224, -1364, 202, 182, 100, 41, 32, 31, 47, 64
792100901, -4089, 8885, 10935, 7292, 3845, 1611, -2347, 544, 224, -1364, 202, 182, 100, 41, 32, 31, 47, 64
792101697, -4089, 8885, 10935, 7292, 3845, 1611, -2347, 544, 224, -1364, 202, 182, 100, 41, 32, 31, 47, 64
792102519, -4089, 8885, 10935, 7292, 3845, 1611, -2347, 544, 224, -1364, 202, 182, 100, 41, 32, 31, 47, 64
792103387, -4089, 8885, 10935, 7292, 3845, 1611, -2347, 544, 224, -1364, 202, 182, 100, 41, 32, 31, 47, 64
792108394, -4089, 8885, 10935, 7292, 3845, 1611, -2347, 544, 224, -1364, 202, 182, 100, 41, 32, 31, 47, 64
792109163, -4089, 8885, 10935, 7292, 3845, 1611, -2347, 544, 224, -1364, 202, 182, 100, 41, 32, 31, 47, 64
792109952, -4089, 8885, 10935, 7292, 3845, 1611, -2347, 544, 224, -1364, 202, 182, 100, 41, 32, 31, 47, 64
792110784, -4089, 8885, 10935, 7292, 3845, 1611, -2347, 544, 224, -1364, 202, 182, 100, 41, 32, 31, 47, 64
792115866, -4089, 8885, 10935, 7292, 3845, 1611, -2347, 544, 224, -1364, 202, 182, 100, 41, 32, 31, 47, 64
792116791, -4045, 8646, 11118, 7327, 3828, 1704, -2285, 542, 289, -1577, 202, 182, 100, 41, 32, 31, 47, 64
792117602, -4045, 8646, 11118, 7327, 3828, 1704, -2285, 542, 289, -1577, 202, 191, 101, 46, 37, 35, 53, 127
792118415, -4045, 8646, 11118, 7327, 3828, 1704, -2285, 542, 289, -1577, 202, 191, 101, 46, 37, 35, 53, 127
792123425, -4045, 8646, 11118, 7327, 3828, 1704, -2285, 542, 289, -1577, 202, 191, 101, 46, 37, 35, 53, 127
792124223, -4045, 8646, 11118, 7327, 3828, 1704, -2285, 542, 289, -1577, 202, 191, 101, 46, 37, 35, 53, 127
792125039, -4045, 8646, 11118, 7327, 3828, 1704, -2285, 542, 289, -1577, 202, 191, 101, 46, 37, 35, 53, 127
792125875, -4045, 8646, 11118, 7327, 3828, 1704, -2285, 542, 289, -1577, 202, 191, 101, 46, 37, 35, 53, 127
792130835, -4045, 8646, 11118, 7327, 3828, 1704, -2285, 542, 289, -1577, 202, 191, 101, 46, 37, 35, 53, 127
792131633, -4045, 8646, 11118, 7327, 3828, 1704, -2285, 542, 289, -1577, 202, 191, 101, 46, 37, 35, 53, 127
792132443, -4045, 8646, 11118, 7327, 3828, 1704, -2285, 542, 289, -1577, 202, 191, 101, 46, 37, 35, 53, 127
792133250, -4045, 8646, 11118, 7327, 3828, 1704, -2285, 542, 289, -1577, 202, 191, 101, 46, 37, 35, 53, 127
792138100, -4045, 8646, 11118, 7327, 3828, 1704, -2285, 542, 289, -1577, 202, 191, 101, 46, 37, 35, 53, 127
792139021, -4002, 8372, 11316, 7365, 3745, 1713, -2240, 602, 360, -1792, 202, 191, 101, 46, 37, 35, 53, 127
792139834, -4002, 8372, 11316, 7365, 3745, 1713, -2240, 602, 360, -1792, 196, 169, 88, 44, 36, 35, 56, 157
792140646, -4002, 8372, 11316, 7365, 3745, 1713, -2240, 602, 360, -1792, 196, 169, 88, 44, 36, 35, 56, 157
792145910, -4002, 8372, 11316, 7365, 3745, 1713, -2240, 602, 360, -1792, 196, 169, 88, 44, 36, 35, 56, 157
792146714, -4002, 8372, 11316, 7365, 3745, 1713, -2240, 602, 360, -1792, 196, 169, 88, 44, 36, 35, 56, 157
792147522, -4002, 8372, 11316, 7365, 3745, 1713, -2240, 602, 360, -1792, 196, 169, 88, 44, 36, 35, 56, 157
792148355, -4002, 8372, 11316, 7365, 3745, 1713, -2240, 602, 360, -1792, 196, 169, 88, 44, 36, 35, 56, 157
792153365, -4002, 8372, 11316, 7365, 3745, 1713, -2240, 602, 360, -1792, 196, 169, 88, 44, 36, 35, 56, 157
792154171, -4002, 8372, 11316, 7365, 3745, 1713, -2240, 602, 360, -1792, 196, 169, 88, 44, 36, 35, 56, 157
792154966, -4002, 8372, 11316, 7365, 3745, 1713, -2240, 602, 360, -1792, 196, 169, 88, 44, 36, 35, 56, 157
792155780, -4002, 8372, 11316, 7365, 3745, 1713, -2240, 602, 360, -1792, 196, 169, 88, 44, 36, 35, 56, 157
792160937, -3963, 8067, 11527, 7400, 3655, 1802, -2186, 700, 424, -1937, 196, 169, 88, 44, 36, 35, 56, 157
792161739, -3963, 8067, 11527, 7400, 3655, 1802, -2186, 700, 424, -1937, 176, 173, 104, 64, 41, 37, 56, 198
792162544, -3963, 8067, 11527, 7400, 3655, 1802, -2186, 700, 424, -1937, 176, 173, 104, 64, 41, 37, 56, 198
792163394, -3963, 8067, 11527, 7400, 3655, 1802, -2186, 700, 424, -1937, 176, 173, 104, 64, 41, 37, 56, 198
792166787, -3963, 8067, 11527, 7400, 3655, 1802, -2186, 700, 424, -1937, 176, 173, 104, 64, 41, 37, 56, 198
792167603, -3963, 8067, 11527, 7400, 3655, 1802, -2186, 700, 424, -1937, 176, 173, 104, 64, 41, 37, 56, 198
792175830, -3963, 8067, 11527, 7400, 3655, 1802, -2186, 700, 424, -1937, 176, 173, 104, 64, 41, 37, 56, 198
792176630, -3963, 8067, 11527, 7400, 3655, 1802, -2186, 700, 424, -1937, 176, 173, 104, 64, 41, 37, 56, 198
792177462, -3963, 8067, 11527, 7400, 3655, 1802, -2186, 700, 424, -1937, 176, 173, 104, 64, 41, 37, 56, 198
792178395, -3923, 7724, 11759, 7421, 3536, 1936, -2144, 855, 452, -2117, 176, 173, 104, 64, 41, 37, 56, 198
792183401, -3923, 7724, 11759, 7421, 3536, 1936, -2144, 855, 452, -2117, 165, 177, 183, 184, 67, 40, 58, 207
792184203, -3923, 7724, 11759, 7421, 3536, 1936, -2144, 855, 452, -2117, 165, 177, 183, 184, 67, 40, 58, 207
792185017, -3923, 7724, 11759, 7421, 3536, 1936, -2144, 855, 452, -2117, 165, 177, 183, 184, 67, 40, 58, 207
792185870, -3923, 7724, 11759, 7421, 3536, 1936, -2144, 855, 452, -2117, 165, 177, 183, 184, 67, 40, 58, 207
792190820, -3923, 7724, 11759, 7421, 3536, 1936, -2144, 855, 452, -2117, 165, 177, 183, 184, 67, 40, 58, 207
792191612, -3923, 7724, 11759, 7421, 3536, 1936, -2144, 855, 452, -2117, 165, 177, 183, 184, 67, 40, 58, 207
792192422, -3923, 7724, 11759, 7421, 3536, 1936, -2144, 855, 452, -2117, 165, 177, 183, 184, 67, 40, 58, 207
792193255, -3923, 7724, 11759, 7421, 3536, 1936, -2144, 855, 452, -2117, 165, 177, 183, 184, 67, 40, 58, 207
792198382, -3923, 7724, 11759, 7421, 3536, 1936, -2144, 855, 452, -2117, 165, 177, 183, 184, 67, 40, 58, 207
792199287, -3863, 7345, 12012, 7433, 3470, 2049, -2233, 940, 417, -2367, 165, 177, 183, 184, 67, 40, 58, 207
792200095, -3863, 7345, 12012, 7433, 3470, 2049, -2233, 940, 417, -2367, 165, 175, 242, 309, 106, 46, 61, 218
792200916, -3863, 7345, 12012, 7433, 3470, 2049, -2233, 940, 417, -2367, 165, 175, 242, 309, 106, 46, 61, 218
792205936, -3863, 7345, 12012, 7433, 3470, 2049, -2233, 940, 417, -2367, 165, 175, 242, 309, 106, 46, 61, 218
792206736, -3863, 7345, 12012, 7433, 3470, 2049, -2233, 940, 417, -2367, 165, 175, 242, 309, 106, 46, 61, 218
792207579, -3863, 7345, 12012, 7433, 3470, 2049, -2233, 940, 417, -2367, 165, 175, 242, 309, 106, 46, 61, 218
792208405, -3863, 7345, 12012, 7433, 3470, 2049, -2233, 940, 417, -2367, 165, 175, 242, 309, 106, 46, 61, 218
792213378, -3863, 7345, 12012, 7433, 3470, 2049, -2233, 940, 417, -2367, 165, 175, 242, 309, 106, 46, 61, 218
792214150, -3863, 7345, 12012, 7433, 3470, 2049, -2233, 940, 417, -2367, 165, 175, 242, 309, 106, 46, 61, 218
792214940, -3863, 7345, 12012, 7433, 3470, 2049, -2233, 940, 417, -2367, 165, 175, 242, 309, 106, 46, 61, 218
792215792, -3863, 7345, 12012, 7433, 3470, 2049, -2233, 940, 417, -2367, 165, 175, 242, 309, 106, 46, 61, 218
792220854, -3863, 7345, 12012, 7433, 3470, 2049, -2233, 940, 417, -2367, 165, 175, 242, 309, 106, 46, 61, 218
792221791, -3759, 6925, 12275, 7460, 3447, 2287, -2201, 854, 351, -2682, 165, 175, 242, 309, 106, 46, 61, 218
792222600, -3759, 6925, 12275, 7460, 3447, 2287, -2201, 854, 351, -2682, 157, 168, 242, 318, 113, 44, 62, 196
792223452, -3759, 6925, 12275, 7460, 3447, 2287, -2201, 854, 351, -2682, 157, 168, 242, 318, 113, 44, 62, 196
792228442, -3759, 6925, 12275, 7460, 3447, 2287, -2201, 854, 351, -2682, 157, 168, 242, 318, 113, 44, 62, 196
792229249, -3759, 6925, 12275, 7460, 3447, 2287, -2201, 854, 351, -2682, 157, 168, 242, 318, 113, 44, 62, 196
792230051, -3759, 6925, 12275, 7460, 3447, 2287, -2201, 854, 351, -2682, 157, 168, 242, 318, 113, 44, 62, 196
792230843, -3759, 6925, 12275, 7460, 3447, 2287, -2201, 854, 351, -2682, 157, 168, 242, 318, 113, 44, 62, 196
792235804, -3759, 6925, 12275, 7460, 3447, 2287, -2201, 854, 351, -2682, 157, 168, 242, 318, 113, 44, 62, 196
792236610, -3759, 6925, 12275, 7460, 3447, 2287, -2201, 854, 351, -2682, 157, 168, 242, 318, 113, 44, 62, 196
792237431, -3759, 6925, 12275, 7460, 3447, 2287, -2201, 854, 351, -2682, 157, 168, 242, 318, 113, 44, 62, 196
792238240, -3759, 6925, 12275, 7460, 3447, 2287, -2201, 854, 351, -2682, 157, 168, 242, 318, 113, 44, 62, 196
792243398, -3759, 6925, 12275, 7460, 3447, 2287, -2201, 854, 351, -2682, 157, 168, 242, 318, 113, 44, 62, 196
792244264, -3628, 6467, 12539, 7497, 3517, 2418, -2241, 791, 352, -2951, 157, 168, 242, 318, 113, 44, 62, 196
792245074, -3628, 6467, 12539, 7497, 3517, 2418, -2241, 791, 352, -2951, 158, 160, 243, 323, 116, 44, 60, 177
792245900, -3628, 6467, 12539, 7497, 3517, 2418, -2241, 791, 352, -2951, 158, 160, 243, 323, 116, 44, 60, 177
792250912, -3628, 6467, 12539, 7497, 3517, 2418, -2241, 791, 352, -2951, 158, 160, 243, 323, 116, 44, 60, 177
792251715, -3628, 6467, 12539, 7497, 3517, 2418, -2241, 791, 352, -2951, 158, 160, 243, 323, 116, 44, 60, 177
792252521, -3628, 6467, 12539, 7497, 3517, 2418, -2241, 791, 352, -2951, 158, 160, 243, 323, 116, 44, 60, 177
792253390, -3628, 6467, 12539, 7497, 3517, 2418, -2241, 791, 352, -2951, 158, 160, 243, 323, 116, 44, 60, 177
792258290, -3628, 6467, 12539, 7497, 3517, 2418, -2241, 791, 352, -2951, 158, 160, 243, 323, 116, 44, 60, 177
792259102, -3628, 6467, 12539, 7497, 3517, 2418, -2241, 791, 352, -2951, 158, 160, 243, 323, 116, 44, 60, 177
792259912, -3628, 6467, 12539, 7497, 3517, 2418, -2241, 791, 352, -2951, 158, 160, 243, 323, 116, 44, 60, 177
792260742, -3628, 6467, 12539, 7497, 3517, 2418, -2241, 791, 352, -2951, 158, 160, 243, 323, 116, 44, 60, 177
792265859, -3628, 6467, 12539, 7497, 3517, 2418, -2241, 791, 352, -2951, 158, 160, 243, 323, 116, 44, 60, 177
792266798, -3520, 5958, 12799, 7532, 3500, 2269, -2233, 887, 567, -3139, 158, 160, 243, 323, 116, 44, 60, 177
792267604, -3520, 5958, 12799, 7532, 3500, 2269, -2233, 887, 567, -3139, 143, 155, 240, 331, 119, 44, 68, 154
792268430, -3520, 5958, 12799, 7532, 3500, 2269, -2233, 887, 567, -3139, 143, 155, 240, 331, 119, 44, 68, 154
792273440, -3520, 5958, 12799, 7532, 3500, 2269, -2233, 887, 567, -3139, 143, 155, 240, 331, 119, 44, 68, 154
792274235, -3520, 5958, 12799, 7532, 3500, 2269, -2233, 887, 567, -3139, 143, 155, 240, 331, 119, 44, 68, 154
792275046, -3520, 5958, 12799, 7532, 3500, 2269, -2233, 887, 567, -3139, 143, 155, 240, 331, 119, 44, 68, 154
792275863, -3520, 5958, 12799, 7532, 3500, 2269, -2233, 887, 567, -3139, 143, 155, 240, 331, 119, 44, 68, 154
792280832, -3520, 5958, 12799, 7532, 3500, 2269, -2233, 887, 567, -3139, 143, 155, 240, 331, 119, 44, 68, 154
792281645, -3520, 5958, 12799, 7532, 3500, 2269, -2233, 887, 567, -3139, 143, 155, 240, 331, 119, 44, 68, 154
792282443, -3520, 5958, 12799, 7532, 3500, 2269, -2233, 887, 567, -3139, 143, 155, 240, 331, 119, 44, 68, 154
792283281, -3520, 5958, 12799, 7532, 3500, 2269, -2233, 887, 567, -3139, 143, 155, 240, 331, 119, 44, 68, 154
792288397, -3520, 5958, 12799, 7532, 3500, 2269, -2233, 887, 567, -3139, 143, 155, 240, 331, 119, 44, 68, 154
792289279, -3464, 5397, 13060, 7531, 3323, 2082, -2252, 1192, 861, -3215, 143, 155, 240, 331, 119, 44, 68, 154
792290089, -3464, 5397, 13060, 7531, 3323, 2082, -2252, 1192, 861, -3215, 129, 134, 193, 287, 115, 52, 68, 161
792290890, -3464, 5397, 13060, 7531, 3323, 2082, -2252, 1192, 861, -3215, 129, 134, 193, 287, 115, 52, 68, 161
792295918, -3464, 5397, 13060, 7531, 3323, 2082, -2252, 1192, 861, -3215, 129, 134, 193, 287, 115, 52, 68, 161
792296712, -3464, 5397, 13060, 7531, 3323, 2082, -2252, 1192, 861, -3215, 129, 134, 193, 287, 115, 52, 68, 161
792297537, -3464, 5397, 13060, 7531, 3323, 2082, -2252, 1192, 861, -3215, 129, 134, 193, 287, 115, 52, 68, 161
792298390, -3464, 5397, 13060, 7531, 3323, 2082, -2252, 1192, 861, -3215, 129, 134, 193, 287, 115, 52, 68, 161
792303305, -3464, 5397, 13060, 7531, 3323, 2082, -2252, 1192, 861, -3215, 129, 134, 193, 287, 115, 52, 68, 161
792304105, -3464, 5397, 13060, 7531, 3323, 2082, -2252, 1192, 861, -3215, 129, 134, 193, 287, 115, 52, 68, 161
792304913, -3464, 5397, 13060, 7531, 3323, 2082, -2252, 1192, 861, -3215, 129, 134, 193, 287, 115, 52, 68, 161
792305740, -3464, 5397, 13060, 7531, 3323, 2082, -2252, 1192, 861, -3215, 129, 134, 193, 287, 115, 52, 68, 161
792310828, -3464, 5397, 13060, 7531, 3323, 2082, -2252, 1192, 861, -3215, 129, 134, 193, 287, 115, 52, 68, 161
792311740, -3460, 4803, 13326, 7468, 3082, 2107, -2301, 1606, 1068, -3159, 129, 134, 193, 287, 115, 52, 68, 161
792312551, -3460, 4803, 13326, 7468, 3082, 2107, -2301, 1606, 1068, -3159, 110, 121, 108, 161, 96, 64, 74, 245
792313358, -3460, 4803, 13326, 7468, 3082, 2107, -2301, 1606, 1068, -3159, 110, 121, 108, 161, 96, 64, 74, 245
792318372, -3460, 4803, 13326, 7468, 3082, 2107, -2301, 1606, 1068, -3159, 110, 121, 108, 161, 96, 64, 74, 245
792319213, -3460, 4803, 13326, 7468, 3082, 2107, -2301, 1606, 1068, -3159, 110, 121, 108, 161, 96, 64, 74, 245
792319995, -3460, 4803, 13326, 7468, 3082, 2107, -2301, 1606, 1068, -3159, 110, 121, 108, 161, 96, 64, 74, 245
792320812, -3460, 4803, 13326, 7468, 3082, 2107, -2301, 1606, 1068, -3159, 110, 121, 108, 161, 96, 64, 74, 245
792325596, -3460, 4803, 13326, 7468, 3082, 2107, -2301, 1606, 1068, -3159, 110, 121, 108, 161, 96, 64, 74, 245
792326416, -3460, 4803, 13326, 7468, 3082, 2107, -2301, 1606, 1068, -3159, 110, 121, 108, 161, 96, 64, 74, 245
792327229, -3460, 4803, 13326, 7468, 3082, 2107, -2301, 1606, 1068, -3159, 110, 121, 108, 161, 96, 64, 74, 245
792328040, -3460, 4803, 13326, 7468, 3082, 2107, -2301, 1606, 1068, -3159, 110, 121, 108, 161, 96, 64, 74, 245
792333390, -3460, 4803, 13326, 7468, 3082, 2107, -2301, 1606, 1068, -3159, 110, 121, 108, 161, 96, 64, 74, 245
792334284, -3492, 4189, 13592, 7344, 2940, 2199, -2318, 1977, 1178, -3088, 110, 121, 108, 161, 96, 64, 74, 245
792335096, -3492, 4189, 13592, 7344, 2940, 2199, -2318, 1977, 1178, -3088, 102, 111, 104, 163, 109, 89, 81, 257
792335919, -3492, 4189, 13592, 7344, 2940, 2199, -2318, 1977, 1178, -3088, 102, 111, 104, 163, 109, 89, 81, 257
792340937, -3492, 4189, 13592, 7344, 2940, 2199, -2318, 1977, 1178, -3088, 102, 111, 104, 163, 109, 89, 81, 257
792341720, -3492, 4189, 13592, 7344, 2940, 2199, -2318, 1977, 1178, -3088, 102, 111, 104, 163, 109, 89, 81, 257
792342547, -3492, 4189, 13592, 7344, 2940, 2199, -2318, 1977, 1178, -3088, 102, 111, 104, 163, 109, 89, 81, 257
792343362, -3492, 4189, 13592, 7344, 2940, 2199, -2318, 1977, 1178, -3088, 102, 111, 104, 163, 109, 89, 81, 257
792348372, -3492, 4189, 13592, 7344, 2940, 2199, -2318, 1977, 1178, -3088, 102, 111, 104, 163, 109, 89, 81, 257
792349134, -3492, 4189, 13592, 7344, 2940, 2199, -2318, 1977, 1178, -3088, 102, 111, 104, 163, 109, 89, 81, 257
792349927, -3492, 4189, 13592, 7344, 2940, 2199, -2318, 1977, 1178, -3088, 102, 111, 104, 163, 109, 89, 81, 257
792350753, -3492, 4189, 13592, 7344, 2940, 2199, -2318, 1977, 1178, -3088, 102, 111, 104, 163, 109, 89, 81, 257
792355820, -3492, 4189, 13592, 7344, 2940, 2199, -2318, 1977, 1178, -3088, 102, 111, 104, 163, 109, 89, 81, 257
792356771, -3558, 3551, 13849, 7166, 2954, 2309, -2343, 2284, 1318, -3039, 102, 111, 104, 163, 109, 89, 81, 257
792357573, -3558, 3551, 13849, 7166, 2954, 2309, -2343, 2284, 1318, -3039, 89, 116, 120, 173, 124, 104, 81, 262
792358387, -3558, 3551, 13849, 7166, 2954, 2309, -2343, 2284, 1318, -3039, 89, 116, 120, 173, 124, 104, 81, 262
792363408, -3558, 3551, 13849, 7166, 2954, 2309, -2343, 2284, 1318, -3039, 89, 116, 120, 173, 124, 104, 81, 262
792364209, -3558, 3551, 13849, 7166, 2954, 2309, -2343, 2284, 1318, -3039, 89, 116, 120, 173, 124, 104, 81, 262
792365018, -3558, 3551, 13849, 7166, 2954, 2309, -2343, 2284, 1318, -3039, 89, 116, 120, 173, 124, 104, 81, 262
792365851, -3558, 3551, 13849, 7166, 2954, 2309, -2343, 2284, 1318, -3039, 89, 116, 120, 173, 124, 104, 81, 262
792370819, -3558, 3551, 13849, 7166, 2954, 2309, -2343, 2284, 1318, -3039, 89, 116, 120, 173, 124, 104, 81, 262
792371612, -3558, 3551, 13849, 7166, 2954, 2309, -2343, 2284, 1318, -3039, 89, 116, 120, 173, 124, 104, 81, 262
792372416, -3558, 3551, 13849, 7166, 2954, 2309, -2343, 2284, 1318, -3039, 89, 116, 120, 173, 124, 104, 81, 262
792373233, -3558, 3551, 13849, 7166, 2954, 2309, -2343, 2284, 1318, -3039, 89, 116, 120, 173, 124, 104, 81, 262
792377466, -3558, 3551, 13849, 7166, 2954, 2309, -2343, 2284, 1318, -3039, 89, 116, 120, 173, 124, 104, 81, 262
792378403, -3651, 2896, 14075, 6972, 2870, 2292, -2474, 2324, 1504, -2998, 89, 116, 120, 173, 124, 104, 81, 262
792379205, -3651, 2896, 14075, 6972, 2870, 2292, -2474, 2324, 1504, -2998, 84, 106, 110, 160, 129, 109, 79, 256
792385890, -3651, 2896, 14075, 6972, 2870, 2292, -2474, 2324, 1504, -2998, 84, 106, 110, 160, 129, 109, 79, 256
792386680, -3651, 2896, 14075, 6972, 2870, 2292, -2474, 2324, 1504, -2998, 84, 106, 110, 160, 129, 109, 79, 256
792387499, -3651, 2896, 14075, 6972, 2870, 2292, -2474, 2324, 1504, -2998, 84, 106, 110, 160, 129, 109, 79, 256
792388388, -3651, 2896, 14075, 6972, 2870, 2292, -2474, 2324, 1504, -2998, 84, 106, 110, 160, 129, 109, 79, 256
792393381, -3651, 2896, 14075, 6972, 2870, 2292, -2474, 2324, 1504, -2998, 84, 106, 110, 160, 129, 109, 79, 256
792394128, -3651, 2896, 14075, 6972, 2870, 2292, -2474, 2324, 1504, -2998, 84, 106, 110, 160, 129, 109, 79, 256
792394973, -3651, 2896, 14075, 6972, 2870, 2292, -2474, 2324, 1504, -2998, 84, 106, 110, 160, 129, 109, 79, 256
792395766, -3651, 2896, 14075, 6972, 2870, 2292, -2474, 2324, 1504, -2998, 84, 106, 110, 160, 129, 109, 79, 256
792400853, -3651, 2896, 14075, 6972, 2870, 2292, -2474, 2324, 1504, -2998, 84, 106, 110, 160, 129, 109, 79, 256
792401780, -3773, 2256, 14259, 6766, 2708, 2207, -2529, 2285, 1657, -2805, 84, 106, 110, 160, 129, 109, 79, 256
792402606, -3773, 2256, 14259, 6766, 2708, 2207, -2529, 2285, 1657, -2805, 78, 100, 99, 157, 128, 108, 80, 277
792403398, -3773, 2256, 14259, 6766, 2708, 2207, -2529, 2285, 1657, -2805, 78, 100, 99, 157, 128, 108, 80, 277
792408408, -3773, 2256, 14259, 6766, 2708, 2207, -2529, 2285, 1657, -2805, 78, 100, 99, 157, 128, 108, 80, 277
792409230, -3773, 2256, 14259, 6766, 2708, 2207, -2529, 2285, 1657, -2805, 78, 100, 99, 157, 128, 108, 80, 277
792410056, -3773, 2256, 14259, 6766, 2708, 2207, -2529, 2285, 1657, -2805, 78, 100, 99, 157, 128, 108, 80, 277
792410848, -3773, 2256, 14259, 6766, 2708, 2207, -2529, 2285, 1657, -2805, 78, 100, 99, 157, 128, 108, 80, 277
792415819, -3773, 2256, 14259, 6766, 2708, 2207, -2529, 2285, 1657, -2805, 78, 100, 99, 157, 128, 108, 80, 277
792416633, -3773, 2256, 14259, 6766, 2708, 2207, -2529, 2285, 1657, -2805, 78, 100, 99, 157, 128, 108, 80, 277
792417444, -3773, 2256, 14259, 6766, 2708, 2207, -2529, 2285, 1657, -2805, 78, 100, 99, 157, 128, 108, 80, 277
792418243, -3773, 2256, 14259, 6766, 2708, 2207, -2529, 2285, 1657, -2805, 78, 100, 99, 157, 128, 108, 80, 277
792423400, -3773, 2256, 14259, 6766, 2708, 2207, -2529, 2285, 1657, -2805, 78, 100, 99, 157, 128, 108, 80, 277
792424337, -3907, 1649, 14407, 6547, 2575, 2135, -2472, 2236, 1670, -2565, 78, 100, 99, 157, 128, 108, 80, 277
792425095, -3907, 1649, 14407, 6547, 2575, 2135, -2472, 2236, 1670, -2565, 66, 86, 100, 151, 121, 104, 72, 206
792425914, -3907, 1649, 14407, 6547, 2575, 2135, -2472, 2236, 1670, -2565, 66, 86, 100, 151, 121, 104, 72, 206
792430933, -3907, 1649, 14407, 6547, 2575, 2135, -2472, 2236, 1670, -2565, 66, 86, 100, 151, 121, 104, 72, 206
792431717, -3907, 1649, 14407, 6547, 2575, 2135, -2472, 2236, 1670, -2565, 66, 86, 100, 151, 121, 104, 72, 206
792432500, -3907, 1649, 14407, 6547, 2575, 2135, -2472, 2236, 1670, -2565, 66, 86, 100, 151, 121, 104, 72, 206
792433397, -3907, 1649, 14407, 6547, 2575, 2135, -2472, 2236, 1670, -2565, 66, 86, 100, 151, 121, 104, 72, 206
792438294, -3907, 1649, 14407, 6547, 2575, 2135, -2472, 2236, 1670, -2565, 66, 86, 100, 151, 121, 104, 72, 206
792439113, -3907, 1649, 14407, 6547, 2575, 2135, -2472, 2236, 1670, -2565, 66, 86, 100, 151, 121, 104, 72, 206
792439927, -3907, 1649, 14407, 6547, 2575, 2135, -2472, 2236, 1670, -2565, 66, 86, 100, 151, 121, 104, 72, 206
792440734, -3907, 1649, 14407, 6547, 2575, 2135, -2472, 2236, 1670, -2565, 66, 86, 100, 151, 121, 104, 72, 206
792445883, -3907, 1649, 14407, 6547, 2575, 2135, -2472, 2236, 1670, -2565, 66, 86, 100, 151, 121, 104, 72, 206
792446798, -4055, 1073, 14534, 6292, 2513, 2142, -2528, 2338, 1678, -2315, 66, 86, 100, 151, 121, 104, 72, 206
792447604, -4055, 1073, 14534, 6292, 2513, 2142, -2528, 2338, 1678, -2315, 66, 83, 101, 140, 113, 99, 61, 195
792448445, -4055, 1073, 14534, 6292, 2513, 2142, -2528, 2338, 1678, -2315, 66, 83, 101, 140, 113, 99, 61, 195
792453442, -4055, 1073, 14534, 6292, 2513, 2142, -2528, 2338, 1678, -2315, 66, 83, 101, 140, 113, 99, 61, 195
792454244, -4055, 1073, 14534, 6292, 2513, 2142, -2528, 2338, 1678, -2315, 66, 83, 101, 140, 113, 99, 61, 195
792455055, -4055, 1073, 14534, 6292, 2513, 2142, -2528, 2338, 1678, -2315, 66, 83, 101, 140, 113, 99, 61, 195
792455874, -4055, 1073, 14534, 6292, 2513, 2142, -2528, 2338, 1678, -2315, 66, 83, 101, 140, 113, 99, 61, 195
792459514, -4055, 1073, 14534, 6292, 2513, 2142, -2528, 2338, 1678, -2315, 66, 83, 101, 140, 113, 99, 61, 195
792460367, -4055, 1073, 14534, 6292, 2513, 2142, -2528, 2338, 1678, -2315, 66, 83, 101, 140, 113, 99, 61, 195
792461125, -4055, 1073, 14534, 6292, 2513, 2142, -2528, 2338, 1678, -2315, 66, 83, 101, 140, 113, 99, 61, 195
792466372, -4055, 1073, 14534, 6292, 2513, 2142, -2528, 2338, 1678, -2315, 80, 41, 29, 30, 42, 64, 178, 223
792467093, -4055, 1073, 14534, 6292, 2513, 2142, -2528, 2338, 1678, -2315, 80, 41, 29, 30, 42, 64, 178, 223
792473300, -4809, -1829, 15195, 3326, 2584, 1716, -3298, -254, -1017, 761, 80, 41, 29, 30, 42, 64, 178, 223
792481383, -4809, -1829, 15195, 3326, 2584, 1716, -3298, -254, -1017, 761, 85, 50, 33, 31, 44, 69, 214, 241
792482074, -4809, -1829, 15195, 3326, 2584, 1716, -3298, -254, -1017, 761, 85, 50, 33, 31, 44, 69, 214, 241
792495721, -4691, -1608, 15254, 3337, 2545, 1728, -3296, -355, -1137, 885, 85, 50, 33, 31, 44, 69, 214, 241
792503805, -4691, -1608, 15254, 3337, 2545, 1728, -3296, -355, -1137, 885, 91, 51, 33, 31, 39, 73, 217, 237
792504611, -4691, -1608, 15254, 3337, 2545, 1728, -3296, -355, -1137, 885, 91, 51, 33, 31, 39, 73, 217, 237
792518234, -4556, -1370, 15315, 3354, 2547, 1713, -3312, -387, -1268, 941, 91, 51, 33, 31, 39, 73, 217, 237
792526292, -4556, -1370, 15315, 3354, 2547, 1713, -3312, -387, -1268, 941, 90, 51, 35, 28, 42, 81, 219, 232
792527107, -4556, -1370, 15315, 3354, 2547, 1713, -3312, -387, -1268, 941, 90, 51, 35, 28, 42, 81, 219, 232
792533293, -4410, -1123, 15374, 3370, 2539, 1705, -3343, -388, -1352, 978, 90, 51, 35, 28, 42, 81, 219, 232
792541300, -4410, -1123, 15374, 3370, 2539, 1705, -3343, -388, -1352, 978, 88, 51, 37, 29, 42, 74, 195, 251
792542122, -4410, -1123, 15374, 3370, 2539, 1705, -3343, -388, -1352, 978, 88, 51, 37, 29, 42, 74, 195, 251
792555730, -4256, -870, 15429, 3389, 2529, 1729, -3352, -379, -1424, 1005, 88, 51, 37, 29, 42, 74, 195, 251
792563826, -4256, -870, 15429, 3389, 2529, 1729, -3352, -379, -1424, 1005, 100, 58, 38, 29, 42, 73, 240, 303
792564612, -4256, -870, 15429, 3389, 2529, 1729, -3352, -379, -1424, 1005, 100, 58, 38, 29, 42, 73, 240, 303
792578209, -4094, -603, 15481, 3412, 2501, 1747, -3322, -392, -1502, 1073, 100, 58, 38, 29, 42, 73, 240, 303
792586390, -4094, -603, 15481, 3412, 2501, 1747, -3322, -392, -1502, 1073, 95, 51, 34, 48, 51, 71, 206, 289
792587160, -4094, -603, 15481, 3412, 2501, 1747, -3322, -392, -1502, 1073, 95, 51, 34, 48, 51, 71, 206, 289
792593394, -3928, -323, 15527, 3435, 2508, 1719, -3349, -414, -1563, 1120, 95, 51, 34, 48, 51, 71, 206, 289
792608855, -3928, -323, 15527, 3435, 2508, 1719, -3349, -414, -1563, 1120, 88, 48, 35, 53, 55, 68, 207, 290
792609674, -3928, -323, 15527, 3435, 2508, 1719, -3349, -414, -1563, 1120, 88, 48, 35, 53, 55, 68, 207, 290
792615834, -3711, -43, 15577, 3466, 2513, 1728, -3349, -453, -1630, 1157, 88, 48, 35, 53, 55, 68, 207, 290
792623805, -3711, -43, 15577, 3466, 2513, 1728, -3349, -453, -1630, 1157, 81, 47, 33, 63, 53, 61, 237, 281
792624596, -3711, -43, 15577, 3466, 2513, 1728, -3349, -453, -1630, 1157, 81, 47, 33, 63, 53, 61, 237, 281
792638205, -3491, 240, 15620, 3492, 2520, 1777, -3347, -427, -1654, 1177, 81, 47, 33, 63, 53, 61, 237, 281
792646411, -3491, 240, 15620, 3492, 2520, 1777, -3347, -427, -1654, 1177, 74, 45, 36, 67, 59, 61, 243, 269
792647153, -3491, 240, 15620, 3492, 2520, 1777, -3347, -427, -1654, 1177, 74, 45, 36, 67, 59, 61, 243, 269
792653332, -3269, 522, 15656, 3514, 2515, 1823, -3388, -404, -1664, 1176, 74, 45, 36, 67, 59, 61, 243, 269
792668861, -3269, 522, 15656, 3514, 2515, 1823, -3388, -404, -1664, 1176, 47, 42, 36, 70, 58, 59, 205, 224
792669642, -3269, 522, 15656, 3514, 2515, 1823, -3388, -404, -1664, 1176, 47, 42, 36, 70, 58, 59, 205, 224
792675838, -3050, 806, 15682, 3544, 2494, 1873, -3354, -451, -1651, 1176, 47, 42, 36, 70, 58, 59, 205, 224
792683861, -3050, 806, 15682, 3544, 2494, 1873, -3354, -451, -1651, 1176, 52, 45, 39, 58, 52, 82, 210, 220
792684670, -3050, 806, 15682, 3544, 2494, 1873, -3354, -451, -1651, 1176, 52, 45, 39, 58, 52, 82, 210, 220
792713200, -2831, 1090, 15697, 3581, 2470, 1863, -3306, -498, -1641, 1176, 52, 45, 39, 58, 52, 82, 210, 220
792721407, -2831, 1090, 15697, 3581, 2470, 1863, -3306, -498, -1641, 1176, 48, 47, 40, 91, 65, 83, 239, 191
792722170, -2831, 1090, 15697, 3581, 2470, 1863, -3306, -498, -1641, 1176, 48, 47, 40, 91, 65, 83, 239, 191
792736401, -2831, 1090, 15697, 3581, 2470, 1863, -3306, -498, -1641, 1176, 62, 50, 42, 92, 71, 83, 204, 230
792737077, -2831, 1090, 15697, 3581, 2470, 1863, -3306, -498, -1641, 1176, 62, 50, 42, 92, 71, 83, 204, 230
792751422, -2611, 1372, 15702, 3631, 2457, 1847, -3291, -578, -1646, 1146, 62, 50, 42, 92, 71, 83, 204, 230
792752213, -2389, 1655, 15696, 3689, 2446, 1868, -3236, -634, -1647, 1142, 62, 50, 42, 92, 71, 83, 204, 230
792758862, -2389, 1655, 15696, 3689, 2446, 1868, -3236, -634, -1647, 1142, 66, 50, 41, 94, 72, 91, 213, 219
792759650, -2389, 1655, 15696, 3689, 2446, 1868, -3236, -634, -1647, 1142, 66, 50, 41, 94, 72, 91, 213, 219
792765814, -2165, 1938, 15682, 3746, 2494, 1840, -3239, -643, -1672, 1136, 66, 50, 41, 94, 72, 91, 213, 219
792773874, -2165, 1938, 15682, 3746, 2494, 1840, -3239, -643, -1672, 1136, 67, 46, 41, 95, 77, 95, 222, 202
792774660, -2165, 1938, 15682, 3746, 2494, 1840, -3239, -643, -1672, 1136, 67, 46, 41, 95, 77, 95, 222, 202
792788242, -1943, 2194, 15668, 3789, 2157, 1904, -3238, -537, -1608, 1020, 67, 46, 41, 95, 77, 95, 222, 202
792796580, -1943, 2194, 15668, 3789, 2157, 1904, -3238, -537, -1608, 1020, 64, 44, 38, 99, 79, 77, 219, 212
792797146, -1943, 2194, 15668, 3789, 2157, 1904, -3238, -537, -1608, 1020, 64, 44, 38, 99, 79, 77, 219, 212
792803310, -1804, 2446, 15632, 3850, 2129, 1902, -3300, -481, -1517, 964, 64, 44, 38, 99, 79, 77, 219, 212
792811411, -1804, 2446, 15632, 3850, 2129, 1902, -3300, -481, -1517, 964, 72, 49, 41, 103, 76, 75, 183, 228
792812133, -1804, 2446, 15632, 3850, 2129, 1902, -3300, -481, -1517, 964, 72, 49, 41, 103, 76, 75, 183, 228
792818408, -1579, 2690, 15608, 3884, 2196, 2142, -3563, -500, -1615, 960, 72, 49, 41, 103, 76, 75, 183, 228
792826320, -1579, 2690, 15608, 3884, 2196, 2142, -3563, -500, -1615, 960, 71, 51, 41, 101, 71, 74, 191, 221
792827113, -1579, 2690, 15608, 3884, 2196, 2142, -3563, -500, -1615, 960, 71, 51, 41, 101, 71, 74, 191, 221
792840693, -1353, 2946, 15564, 3956, 2657, 1931, -2680, -715, -1676, 973, 71, 51, 41, 101, 71, 74, 191, 221
792848842, -1353, 2946, 15564, 3956, 2657, 1931, -2680, -715, -1676, 973, 71, 54, 41, 100, 66, 66, 181, 232
792849628, -1353, 2946, 15564, 3956, 2657, 1931, -2680, -715, -1676, 973, 71, 54, 41, 100, 66, 66, 181, 232
792855817, -1202, 3180, 15510, 4036, 1988, 1991, -3459, -626, -1535, 838, 71, 54, 41, 100, 66, 66, 181, 232
792871405, -1202, 3180, 15510, 4036, 1988, 1991, -3459, -626, -1535, 838, 69, 53, 36, 100, 61, 62, 172, 263
792872132, -1202, 3180, 15510, 4036, 1988, 1991, -3459, -626, -1535, 838, 69, 53, 36, 100, 61, 62, 172, 263
792878293, -971, 3408, 15458, 4112, 2464, 1845, -2479, -751, -1650, 820, 69, 53, 36, 100, 61, 62, 172, 263
792886306, -971, 3408, 15458, 4112, 2464, 1845, -2479, -751, -1650, 820, 69, 53, 38, 95, 62, 69, 169, 273
792887088, -971, 3408, 15458, 4112, 2464, 1845, -2479, -751, -1650, 820, 69, 53, 38, 95, 62, 69, 169, 273
792900697, -709, 3619, 15418, 4135, 2729, 2289, -3512, -556, -1640, 786, 69, 53, 38, 95, 62, 69, 169, 273
792908862, -709, 3619, 15418, 4135, 2729, 2289, -3512, -556, -1640, 786, 63, 46, 33, 65, 53, 71, 175, 267
792909634, -709, 3619, 15418, 4135, 2729, 2289, -3512, -556, -1640, 786, 63, 46, 33, 65, 53, 71, 175, 267
792915828, -538, 3821, 15357, 4207, 1573, 1930, -3285, -638, -1516, 669, 63, 46, 33, 65, 53, 71, 175, 267
792931152, -538, 3821, 15357, 4207, 1573, 1930, -3285, -638, -1516, 669, 61, 47, 31, 94, 66, 73, 163, 235
792938856, -538, 3821, 15357, 4207, 1573, 1930, -3285, -638, -1516, 669, 61, 47, 31, 94, 66, 73, 163, 235
792939748, -363, 4027, 15279, 4316, 1478, 1744, -2503, -780, -1529, 683, 61, 47, 31, 94, 66, 73, 163, 235
792948424, -363, 4027, 15279, 4316, 1478, 1744, -2503, -780, -1529, 683, 58, 42, 31, 95, 68, 71, 160, 256
792949215, -363, 4027, 15279, 4316, 1478, 1744, -2503, -780, -1529, 683, 58, 42, 31, 95, 68, 71, 160, 256
792950030, -363, 4027, 15279, 4316, 1478, 1744, -2503, -780, -1529, 683, 58, 42, 31, 95, 68, 71, 160, 256
792950872, -363, 4027, 15279, 4316, 1478, 1744, -2503, -780, -1529, 683, 58, 42, 31, 95, 68, 71, 160, 256
792955191, -363, 4027, 15279, 4316, 1478, 1744, -2503, -780, -1529, 683, 58, 42, 31, 95, 68, 71, 160, 256
792955972, -363, 4027, 15279, 4316, 1478, 1744, -2503, -780, -1529, 683, 58, 42, 31, 95, 68, 71, 160, 256
792956760, -363, 4027, 15279, 4316, 1478, 1744, -2503, -780, -1529, 683, 58, 42, 31, 95, 68, 71, 160, 256
792957597, -363, 4027, 15279, 4316, 1478, 1744, -2503, -780, -1529, 683, 58, 42, 31, 95, 68, 71, 160, 256
792960750, -247, 4255, 15174, 4473, 2275, 1968, -2239, -838, -1587, 710, 58, 42, 31, 95, 68, 71, 160, 256
792968824, -247, 4255, 15174, 4473, 2275, 1968, -2239, -838, -1587, 710, 60, 44, 32, 97, 69, 73, 147, 230
792969590, -247, 4255, 15174, 4473, 2275, 1968, -2239, -838, -1587, 710, 60, 44, 32, 97, 69, 73, 147, 230
792975758, -25, 4461, 15087, 4569, 2953, 2179, -2377, -881, -1610, 692, 60, 44, 32, 97, 69, 73, 147, 230
792991318, -25, 4461, 15087, 4569, 2953, 2179, -2377, -881, -1610, 692, 60, 42, 32, 98, 66, 75, 144, 222
792992089, -25, 4461, 15087, 4569, 2953, 2179, -2377, -881, -1610, 692, 60, 42, 32, 98, 66, 75, 144, 222
792998261, 251, 4646, 15012, 4628, 3232, 2240, -2446, -841, -1618, 637, 60, 42, 32, 98, 66, 75, 144, 222
793006287, 251, 4646, 15012, 4628, 3232, 2240, -2446, -841, -1618, 637, 63, 48, 30, 94, 63, 70, 123, 219
793007111, 251, 4646, 15012, 4628, 3232, 2240, -2446, -841, -1618, 637, 63, 48, 30, 94, 63, 70, 123, 219
793020741, 524, 4825, 14931, 4683, 3189, 2224, -2342, -831, -1601, 617, 63, 48, 30, 94, 63, 70, 123, 219
793028782, 524, 4825, 14931, 4683, 3189, 2224, -2342, -831, -1601, 617, 74, 47, 28, 59, 48, 68, 121, 305
793029600, 524, 4825, 14931, 4683, 3189, 2224, -2342, -831, -1601, 617, 74, 47, 28, 59, 48, 68, 121, 305
793035767, 605, 5045, 14802, 4848, 2529, 2060, -2176, -855, -1545, 593, 74, 47, 28, 59, 48, 68, 121, 305
793051294, 605, 5045, 14802, 4848, 2529, 2060, -2176, -855, -1545, 593, 73, 48, 29, 73, 60, 80, 132, 280
793052086, 605, 5045, 14802, 4848, 2529, 2060, -2176, -855, -1545, 593, 73, 48, 29, 73, 60, 80, 132, 280
793058232, 785, 5222, 14707, 4922, 1083, 1773, -2498, -786, -1444, 542, 73, 48, 29, 73, 60, 80, 132, 280
793066305, 785, 5222, 14707, 4922, 1083, 1773, -2498, -786, -1444, 542, 69, 45, 29, 69, 60, 78, 126, 333
793067106, 785, 5222, 14707, 4922, 1083, 1773, -2498, -786, -1444, 542, 69, 45, 29, 69, 60, 78, 126, 333
793080703, 976, 5378, 14634, 4936, 768, 1953, -3380, -696, -1395, 443, 69, 45, 29, 69, 60, 78, 126, 333
793088795, 976, 5378, 14634, 4936, 768, 1953, -3380, -696, -1395, 443, 81, 52, 32, 75, 64, 71, 146, 342
793089567, 976, 5378, 14634, 4936, 768, 1953, -3380, -696, -1395, 443, 81, 52, 32, 75, 64, 71, 146, 342
793095762, 1214, 5516, 14559, 4954, 3303, 2499, -2967, -606, -1413, 430, 81, 52, 32, 75, 64, 71, 146, 342
793111398, 1214, 5516, 14559, 4954, 3303, 2499, -2967, -606, -1413, 430, 83, 51, 38, 75, 65, 73, 148, 353
793112136, 1214, 5516, 14559, 4954, 3303, 2499, -2967, -606, -1413, 430, 83, 51, 38, 75, 65, 73, 148, 353
793118284, 1268, 5721, 14432, 5077, 2369, 2052, -2120, -626, -1400, 530, 83, 51, 38, 75, 65, 73, 148, 353
793133835, 1268, 5721, 14432, 5077, 2369, 2052, -2120, -626, -1400, 530, 70, 51, 39, 77, 67, 81, 160, 291
793134638, 1268, 5721, 14432, 5077, 2369, 2052, -2120, -626, -1400, 530, 70, 51, 39, 77, 67, 81, 160, 291
793140795, 1415, 5890, 14353, 5071, 956, 2147, -3466, -540, -1357, 487, 70, 51, 39, 77, 67, 81, 160, 291
793148787, 1415, 5890, 14353, 5071, 956, 2147, -3466, -540, -1357, 487, 72, 49, 38, 64, 62, 72, 147, 296
793149573, 1415, 5890, 14353, 5071, 956, 2147, -3466, -540, -1357, 487, 72, 49, 38, 64, 62, 72, 147, 296
793163181, 1643, 6041, 14259, 5089, 3262, 2368, -1901, -639, -1388, 541, 72, 49, 38, 64, 62, 72, 147, 296
793171404, 1643, 6041, 14259, 5089, 3262, 2368, -1901, -639, -1388, 541, 73, 53, 39, 76, 61, 68, 153, 270
793172139, 1643, 6041, 14259, 5089, 3262, 2368, -1901, -639, -1388, 541, 73, 53, 39, 76, 61, 68, 153, 270
793178291, 1747, 6223, 14159, 5114, 1413, 2270, -3403, -588, -1353, 497, 73, 53, 39, 76, 61, 68, 153, 270
793186292, 1747, 6223, 14159, 5114, 1413, 2270, -3403, -588, -1353, 497, 60, 50, 36, 109, 73, 69, 140, 254
793187077, 1747, 6223, 14159, 5114, 1413, 2270, -3403, -588, -1353, 497, 60, 50, 36, 109, 73, 69, 140, 254
793200699, 1869, 6401, 14035, 5193, 1445, 1984, -2316, -703, -1366, 512, 60, 50, 36, 109, 73, 69, 140, 254
793208847, 1869, 6401, 14035, 5193, 1445, 1984, -2316, -703, -1366, 512, 59, 51, 35, 111, 70, 66, 158, 267
793209636, 1869, 6401, 14035, 5193, 1445, 1984, -2316, -703, -1366, 512, 59, 51, 35, 111, 70, 66, 158, 267
793223175, 2094, 6545, 13931, 5207, 3667, 2606, -2008, -655, -1373, 530, 59, 51, 35, 111, 70, 66, 158, 267
793231405, 2094, 6545, 13931, 5207, 3667, 2606, -2008, -655, -1373, 530, 57, 49, 33, 119, 77, 63, 148, 275
793232062, 2094, 6545, 13931, 5207, 3667, 2606, -2008, -655, -1373, 530, 57, 49, 33, 119, 77, 63, 148, 275
793238288, 2162, 6739, 13808, 5258, 1852, 2400, -3230, -611, -1364, 493, 57, 49, 33, 119, 77, 63, 148, 275
793246397, 2162, 6739, 13808, 5258, 1852, 2400, -3230, -611, -1364, 493, 65, 53, 35, 122, 76, 59, 151, 289
793247126, 2162, 6739, 13808, 5258, 1852, 2400, -3230, -611, -1364, 493, 65, 53, 35, 122, 76, 59, 151, 289
793260659, 2330, 6896, 13714, 5230, 478, 1999, -3307, -679, -1360, 488, 65, 53, 35, 122, 76, 59, 151, 289
793268820, 2330, 6896, 13714, 5230, 478, 1999, -3307, -679, -1360, 488, 67, 54, 38, 119, 78, 60, 163, 276
793269634, 2330, 6896, 13714, 5230, 478, 1999, -3307, -679, -1360, 488, 67, 54, 38, 119, 78, 60, 163, 276
793283163, 2467, 7056, 13598, 5257, 1026, 1919, -2570, -668, -1349, 447, 67, 54, 38, 119, 78, 60, 163, 276
793291313, 2467, 7056, 13598, 5257, 1026, 1919, -2570, -668, -1349, 447, 69, 53, 42, 116, 78, 64, 161, 278
793292107, 2467, 7056, 13598, 5257, 1026, 1919, -2570, -668, -1349, 447, 69, 53, 42, 116, 78, 64, 161, 278
793298252, 2540, 7231, 13453, 5356, 1976, 2066, -1977, -626, -1316, 418, 69, 53, 42, 116, 78, 64, 161, 278
793306378, 2540, 7231, 13453, 5356, 1976, 2066, -1977, -626, -1316, 418, 61, 47, 43, 140, 106, 75, 158, 257
793307053, 2540, 7231, 13453, 5356, 1976, 2066, -1977, -626, -1316, 418, 61, 47, 43, 140, 106, 75, 158, 257
793320668, 2576, 7416, 13291, 5488, 2497, 2230, -1740, -582, -1285, 414, 61, 47, 43, 140, 106, 75, 158, 257
793328807, 2576, 7416, 13291, 5488, 2497, 2230, -1740, -582, -1285, 414, 72, 51, 44, 135, 100, 71, 153, 263
793329596, 2576, 7416, 13291, 5488, 2497, 2230, -1740, -582, -1285, 414, 72, 51, 44, 135, 100, 71, 153, 263
793343199, 2604, 7599, 13123, 5627, 2605, 2276, -1663, -579, -1244, 407, 72, 51, 44, 135, 100, 71, 153, 263
793351312, 2604, 7599, 13123, 5627, 2605, 2276, -1663, -579, -1244, 407, 68, 50, 44, 133, 102, 74, 166, 260
793352102, 2604, 7599, 13123, 5627, 2605, 2276, -1663, -579, -1244, 407, 68, 50, 44, 133, 102, 74, 166, 260
793358275, 2648, 7767, 12969, 5732, 2271, 2196, -1764, -556, -1206, 367, 68, 50, 44, 133, 102, 74, 166, 260
793366399, 2648, 7767, 12969, 5732, 2271, 2196, -1764, -556, -1206, 367, 69, 52, 49, 137, 109, 75, 155, 242
793367053, 2648, 7767, 12969, 5732, 2271, 2196, -1764, -556, -1206, 367, 69, 52, 49, 137, 109, 75, 155, 242
793380729, 2734, 7913, 12851, 5759, 1472, 2020, -2196, -526, -1180, 320, 69, 52, 49, 137, 109, 75, 155, 242
793388817, 2734, 7913, 12851, 5759, 1472, 2020, -2196, -526, -1180, 320, 71, 54, 47, 117, 101, 71, 153, 247
793389596, 2734, 7913, 12851, 5759, 1472, 2020, -2196, -526, -1180, 320, 71, 54, 47, 117, 101, 71, 153, 247
793403180, 2853, 8042, 12773, 5695, 621, 1889, -2979, -523, -1153, 301, 71, 54, 47, 117, 101, 71, 153, 247
793411284, 2853, 8042, 12773, 5695, 621, 1889, -2979, -523, -1153, 301, 73, 57, 44, 94, 77, 65, 136, 263
793412073, 2853, 8042, 12773, 5695, 621, 1889, -2979, -523, -1153, 301, 73, 57, 44, 94, 77, 65, 136, 263
793418271, 2945, 8176, 12695, 5632, 879, 2121, -3391, -521, -1139, 279, 73, 57, 44, 94, 77, 65, 136, 263
793426324, 2945, 8176, 12695, 5632, 879, 2121, -3391, -521, -1139, 279, 62, 53, 44, 91, 80, 62, 157, 252
793427141, 2945, 8176, 12695, 5632, 879, 2121, -3391, -521, -1139, 279, 62, 53, 44, 91, 80, 62, 157, 252
793440701, 2937, 8334, 12547, 5735, 2754, 2631, -2466, -508, -1092, 231, 62, 53, 44, 91, 80, 62, 157, 252
793448799, 2937, 8334, 12547, 5735, 2754, 2631, -2466, -508, -1092, 231, 65, 60, 44, 87, 88, 62, 141, 228
793449589, 2937, 8334, 12547, 5735, 2754, 2631, -2466, -508, -1092, 231, 65, 60, 44, 87, 88, 62, 141, 228
793463191, 3106, 8411, 12465, 5712, 3516, 2637, -1189, -466, -1023, 207, 65, 60, 44, 87, 88, 62, 141, 228
793479493, 3106, 8411, 12465, 5712, 3516, 2637, -1189, -466, -1023, 207, 67, 62, 42, 89, 84, 63, 135, 239
793480291, 3106, 8411, 12465, 5712, 3516, 2637, -1189, -466, -1023, 207, 67, 62, 42, 89, 84, 63, 135, 239
793481208, 3178, 8518, 12380, 5700, 1170, 2004, -2336, -389, -1002, 151, 67, 62, 42, 89, 84, 63, 135, 239
793487749, 3178, 8518, 12380, 5700, 1170, 2004, -2336, -389, -1002, 151, 66, 68, 44, 103, 89, 62, 126, 243
793488551, 3178, 8518, 12380, 5700, 1170, 2004, -2336, -389, -1002, 151, 66, 68, 44, 103, 89, 62, 126, 243
793489361, 3178, 8518, 12380, 5700, 1170, 2004, -2336, -389, -1002, 151, 66, 68, 44, 103, 89, 62, 126, 243
793494448, 3178, 8518, 12380, 5700, 1170, 2004, -2336, -389, -1002, 151, 66, 68, 44, 103, 89, 62, 126, 243
793495237, 3178, 8518, 12380, 5700, 1170, 2004, -2336, -389, -1002, 151, 66, 68, 44, 103, 89, 62, 126, 243
793496044, 3178, 8518, 12380, 5700, 1170, 2004, -2336, -389, -1002, 151, 66, 68, 44, 103, 89, 62, 126, 243
793500750, 3221, 8634, 12302, 5670, 1369, 2310, -3211, -443, -982, 129, 66, 68, 44, 103, 89, 62, 126, 243
793508776, 3221, 8634, 12302, 5670, 1369, 2310, -3211, -443, -982, 129, 65, 73, 43, 96, 89, 56, 132, 260
793509596, 3221, 8634, 12302, 5670, 1369, 2310, -3211, -443, -982, 129, 65, 73, 43, 96, 89, 56, 132, 260
793523191, 3374, 8693, 12231, 5644, 3531, 2749, -1093, -418, -913, 125, 65, 73, 43, 96, 89, 56, 132, 260
793531277, 3374, 8693, 12231, 5644, 3531, 2749, -1093, -418, -913, 125, 72, 74, 43, 101, 95, 67, 117, 255
793532075, 3374, 8693, 12231, 5644, 3531, 2749, -1093, -418, -913, 125, 72, 74, 43, 101, 95, 67, 117, 255
793538244, 3440, 8782, 12177, 5584, 743, 1948, -2737, -324, -888, 91, 72, 74, 43, 101, 95, 67, 117, 255
793546289, 3440, 8782, 12177, 5584, 743, 1948, -2737, -324, -888, 91, 63, 67, 46, 105, 86, 68, 127, 255
793547078, 3440, 8782, 12177, 5584, 743, 1948, -2737, -324, -888, 91, 63, 67, 46, 105, 86, 68, 127, 255
793560694, 3410, 8906, 12056, 5667, 2484, 2641, -2446, -340, -856, 110, 63, 67, 46, 105, 86, 68, 127, 255
793568784, 3410, 8906, 12056, 5667, 2484, 2641, -2446, -340, -856, 110, 59, 62, 40, 97, 85, 75, 146, 238
793569566, 3410, 8906, 12056, 5667, 2484, 2641, -2446, -340, -856, 110, 59, 62, 40, 97, 85, 75, 146, 238
793583197, 3401, 9007, 11921, 5797, 2577, 2426, -1219, -254, -815, 54, 59, 62, 40, 97, 85, 75, 146, 238
793591274, 3401, 9007, 11921, 5797, 2577, 2426, -1219, -254, -815, 54, 71, 60, 40, 80, 82, 76, 151, 248
793592083, 3401, 9007, 11921, 5797, 2577, 2426, -1219, -254, -815, 54, 71, 60, 40, 80, 82, 76, 151, 248
793598233, 3441, 9096, 11893, 5690, 671, 2074, -3335, -240, -803, 59, 71, 60, 40, 80, 82, 76, 151, 248
793606292, 3441, 9096, 11893, 5690, 671, 2074, -3335, -240, -803, 59, 78, 56, 42, 86, 80, 75, 151, 198
793607080, 3441, 9096, 11893, 5690, 671, 2074, -3335, -240, -803, 59, 78, 56, 42, 86, 80, 75, 151, 198
793620687, 3562, 9143, 11837, 5659, 3472, 2800, -1337, -302, -745, 89, 78, 56, 42, 86, 80, 75, 151, 198
793628783, 3562, 9143, 11837, 5659, 3472, 2800, -1337, -302, -745, 89, 73, 55, 41, 106, 81, 72, 150, 199
793629572, 3562, 9143, 11837, 5659, 3472, 2800, -1337, -302, -745, 89, 73, 55, 41, 106, 81, 72, 150, 199
793643161, 3581, 9222, 11775, 5648, 1189, 2059, -2137, -154, -696, 56, 73, 55, 41, 106, 81, 72, 150, 199
793651258, 3581, 9222, 11775, 5648, 1189, 2059, -2137, -154, -696, 56, 79, 53, 41, 104, 76, 69, 140, 214
793652057, 3581, 9222, 11775, 5648, 1189, 2059, -2137, -154, -696, 56, 79, 53, 41, 104, 76, 69, 140, 214
793658258, 3548, 9324, 11704, 5647, 1763, 2460, -2871, -168, -683, 77, 79, 53, 41, 104, 76, 69, 140, 214
