Timestamp, Orientation x, Orientation y, Orientation z, Orientation w, Acceleration x, Acceleration y, Acceleration z, Rotation x, Rotation y, Rotation z, EMG 0, EMG 1, EMG 2, EMG 3, EMG 4, EMG 5, EMG 6, EMG 7
262666328, 5774, 3355, -13843, -5676, 1863, 2390, -1369, 36, -44, 33, 0, 0, 0, 0, 0, 0, 0, 0
262673819, 5809, 3330, -13838, -5667, 1895, 2379, -1424, 41, -36, 34, 0, 0, 0, 0, 0, 0, 0, 0
262688841, 5845, 3303, -13829, -5668, 1866, 2362, -1399, -15, -35, 40, 0, 0, 0, 0, 0, 0, 0, 0
262711377, 5874, 3277, -13825, -5663, 1852, 2330, -1382, 24, -60, 37, 0, 0, 0, 0, 0, 0, 0, 0
262735179, 5896, 3255, -13827, -5647, 1882, 2414, -1449, 102, -73, 52, 0, 0, 0, 0, 0, 0, 0, 0
262735946, 5896, 3255, -13827, -5647, 1882, 2414, -1449, 102, -73, 52, 36, 63, 32, 294, 97, 34, 40, 34
262736744, 5896, 3255, -13827, -5647, 1882, 2414, -1449, 102, -73, 52, 36, 63, 32, 294, 97, 34, 40, 34
262748824, 5928, 3224, -13820, -5651, 1901, 2349, -1420, -48, -54, 51, 36, 63, 32, 294, 97, 34, 40, 34
262756986, 5928, 3224, -13820, -5651, 1901, 2349, -1420, -48, -54, 51, 35, 64, 34, 220, 95, 35, 41, 33
262757777, 5928, 3224, -13820, -5651, 1901, 2349, -1420, -48, -54, 51, 35, 64, 34, 220, 95, 35, 41, 33
262771324, 5958, 3190, -13813, -5655, 1872, 2343, -1410, -52, -58, 71, 35, 64, 34, 220, 95, 35, 41, 33
262779462, 5958, 3190, -13813, -5655, 1872, 2343, -1410, -52, -58, 71, 46, 66, 35, 252, 96, 35, 42, 33
262780263, 5958, 3190, -13813, -5655, 1872, 2343, -1410, -52, -58, 71, 46, 66, 35, 252, 96, 35, 42, 33
262795189, 5980, 3162, -13812, -5650, 1869, 2353, -1417, 17, -78, 61, 46, 66, 35, 252, 96, 35, 42, 33
262795973, 5980, 3162, -13812, -5650, 1869, 2353, -1417, 17, -78, 61, 49, 75, 36, 268, 109, 36, 43, 33
262796784, 5980, 3162, -13812, -5650, 1869, 2353, -1417, 17, -78, 61, 49, 75, 36, 268, 109, 36, 43, 33
262808854, 5999, 3133, -13812, -5646, 1886, 2365, -1435, 14, -95, 63, 49, 75, 36, 268, 109, 36, 43, 33
262824501, 5999, 3133, -13812, -5646, 1886, 2365, -1435, 14, -95, 63, 48, 69, 35, 256, 95, 34, 40, 30
262825280, 5999, 3133, -13812, -5646, 1886, 2365, -1435, 14, -95, 63, 48, 69, 35, 256, 95, 34, 40, 30
262831505, 6019, 3100, -13811, -5646, 1880, 2346, -1421, -14, -97, 76, 48, 69, 35, 256, 95, 34, 40, 30
262839426, 6019, 3100, -13811, -5646, 1880, 2346, -1421, -14, -97, 76, 49, 67, 36, 266, 92, 32, 40, 31
262840251, 6019, 3100, -13811, -5646, 1880, 2346, -1421, -14, -97, 76, 49, 67, 36, 266, 92, 32, 40, 31
262855161, 6040, 3070, -13810, -5641, 1903, 2348, -1423, 13, -85, 74, 49, 67, 36, 266, 92, 32, 40, 31
262855941, 6040, 3070, -13810, -5641, 1903, 2348, -1423, 13, -85, 74, 50, 75, 35, 239, 103, 32, 41, 31
262856760, 6040, 3070, -13810, -5641, 1903, 2348, -1423, 13, -85, 74, 50, 75, 35, 239, 103, 32, 41, 31
262877701, 6061, 3041, -13808, -5639, 1899, 2355, -1437, -14, -73, 69, 50, 75, 35, 239, 103, 32, 41, 31
262878465, 6061, 3041, -13808, -5639, 1899, 2355, -1437, -14, -73, 69, 47, 76, 33, 263, 103, 35, 44, 33
262879274, 6061, 3041, -13808, -5639, 1899, 2355, -1437, -14, -73, 69, 47, 76, 33, 263, 103, 35, 44, 33
262891342, 6082, 3012, -13803, -5644, 1890, 2347, -1428, -48, -66, 56, 47, 76, 33, 263, 103, 35, 44, 33
262899434, 6082, 3012, -13803, -5644, 1890, 2347, -1428, -48, -66, 56, 42, 65, 32, 246, 97, 35, 43, 34
262900237, 6082, 3012, -13803, -5644, 1890, 2347, -1428, -48, -66, 56, 42, 65, 32, 246, 97, 35, 43, 34
262915146, 6103, 2982, -13798, -5649, 1898, 2328, -1423, -55, -70, 58, 42, 65, 32, 246, 97, 35, 43, 34
262915937, 6103, 2982, -13798, -5649, 1898, 2328, -1423, -55, -70, 58, 54, 65, 30, 258, 91, 38, 42, 34
262916756, 6103, 2982, -13798, -5649, 1898, 2328, -1423, -55, -70, 58, 54, 65, 30, 258, 91, 38, 42, 34
262928833, 6123, 2957, -13796, -5648, 1909, 2323, -1426, -15, -64, 51, 54, 65, 30, 258, 91, 38, 42, 34
262936933, 6123, 2957, -13796, -5648, 1909, 2323, -1426, -15, -64, 51, 54, 70, 28, 319, 98, 38, 41, 33
262937734, 6123, 2957, -13796, -5648, 1909, 2323, -1426, -15, -64, 51, 54, 70, 28, 319, 98, 38, 41, 33
262951319, 6140, 2937, -13793, -5644, 1901, 2338, -1439, 6, -50, 36, 54, 70, 28, 319, 98, 38, 41, 33
262959504, 6140, 2937, -13793, -5644, 1901, 2338, -1439, 6, -50, 36, 52, 57, 29, 321, 96, 40, 41, 33
262960264, 6140, 2937, -13793, -5644, 1901, 2338, -1439, 6, -50, 36, 52, 57, 29, 321, 96, 40, 41, 33
262975224, 6156, 2918, -13790, -5646, 1897, 2354, -1424, -7, -62, 24, 52, 57, 29, 321, 96, 40, 41, 33
262975974, 6156, 2918, -13790, -5646, 1897, 2354, -1424, -7, -62, 24, 46, 55, 28, 294, 98, 36, 37, 29
262976774, 6156, 2918, -13790, -5646, 1897, 2354, -1424, -7, -62, 24, 46, 55, 28, 294, 98, 36, 37, 29
262988856, 6171, 2899, -13786, -5648, 1919, 2349, -1437, -14, -63, 15, 46, 55, 28, 294, 98, 36, 37, 29
262996973, 6171, 2899, -13786, -5648, 1919, 2349, -1437, -14, -63, 15, 49, 53, 31, 319, 98, 36, 37, 25
262997758, 6171, 2899, -13786, -5648, 1919, 2349, -1437, -14, -63, 15, 49, 53, 31, 319, 98, 36, 37, 25
263011345, 6187, 2881, -13781, -5652, 1920, 2334, -1412, -26, -60, 9, 49, 53, 31, 319, 98, 36, 37, 25
263019436, 6187, 2881, -13781, -5652, 1920, 2334, -1412, -26, -60, 9, 35, 55, 32, 321, 101, 34, 36, 30
263020236, 6187, 2881, -13781, -5652, 1920, 2334, -1412, -26, -60, 9, 35, 55, 32, 321, 101, 34, 36, 30
263035203, 6199, 2865, -13778, -5654, 1922, 2322, -1407, -2, -73, -5, 35, 55, 32, 321, 101, 34, 36, 30
263035962, 6199, 2865, -13778, -5654, 1922, 2322, -1407, -2, -73, -5, 31, 50, 32, 250, 96, 35, 40, 29
263036750, 6199, 2865, -13778, -5654, 1922, 2322, -1407, -2, -73, -5, 31, 50, 32, 250, 96, 35, 40, 29
263048838, 6211, 2851, -13776, -5654, 1923, 2334, -1400, 16, -73, -3, 31, 50, 32, 250, 96, 35, 40, 29
263056950, 6211, 2851, -13776, -5654, 1923, 2334, -1400, 16, -73, -3, 47, 52, 34, 255, 86, 34, 39, 30
263057748, 6211, 2851, -13776, -5654, 1923, 2334, -1400, 16, -73, -3, 47, 52, 34, 255, 86, 34, 39, 30
263071330, 6222, 2837, -13773, -5654, 1937, 2349, -1409, 13, -74, -7, 47, 52, 34, 255, 86, 34, 39, 30
263079510, 6222, 2837, -13773, -5654, 1937, 2349, -1409, 13, -74, -7, 48, 49, 36, 269, 89, 41, 42, 35
263080264, 6222, 2837, -13773, -5654, 1937, 2349, -1409, 13, -74, -7, 48, 49, 36, 269, 89, 41, 42, 35
263095134, 6233, 2825, -13771, -5654, 1937, 2362, -1421, 23, -67, -9, 48, 49, 36, 269, 89, 41, 42, 35
263095925, 6233, 2825, -13771, -5654, 1937, 2362, -1421, 23, -67, -9, 48, 55, 34, 261, 85, 42, 44, 35
263096728, 6233, 2825, -13771, -5654, 1937, 2362, -1421, 23, -67, -9, 48, 55, 34, 261, 85, 42, 44, 35
263108802, 6244, 2814, -13768, -5655, 1935, 2361, -1420, 13, -56, -12, 48, 55, 34, 261, 85, 42, 44, 35
263116952, 6244, 2814, -13768, -5655, 1935, 2361, -1420, 13, -56, -12, 49, 60, 34, 252, 89, 44, 44, 34
263117758, 6244, 2814, -13768, -5655, 1935, 2361, -1420, 13, -56, -12, 49, 60, 34, 252, 89, 44, 44, 34
263131465, 6257, 2802, -13764, -5657, 1939, 2343, -1409, -1, -57, -12, 49, 60, 34, 252, 89, 44, 44, 34
263139453, 6257, 2802, -13764, -5657, 1939, 2343, -1409, -1, -57, -12, 48, 58, 33, 294, 89, 43, 42, 35
263140262, 6257, 2802, -13764, -5657, 1939, 2343, -1409, -1, -57, -12, 48, 58, 33, 294, 89, 43, 42, 35
263154537, 6270, 2789, -13760, -5659, 1951, 2361, -1424, -6, -52, -5, 48, 58, 33, 294, 89, 43, 42, 35
263155329, 6270, 2789, -13760, -5659, 1951, 2361, -1424, -6, -52, -5, 33, 58, 35, 317, 100, 45, 42, 35
263161304, 6270, 2789, -13760, -5659, 1951, 2361, -1424, -6, -52, -5, 33, 58, 35, 317, 100, 45, 42, 35
263168948, 6282, 2774, -13756, -5661, 1959, 2354, -1430, -14, -56, 0, 33, 58, 35, 317, 100, 45, 42, 35
263176959, 6282, 2774, -13756, -5661, 1959, 2354, -1430, -14, -56, 0, 31, 62, 36, 295, 117, 39, 39, 32
263177770, 6282, 2774, -13756, -5661, 1959, 2354, -1430, -14, -56, 0, 31, 62, 36, 295, 117, 39, 39, 32
263191299, 6292, 2760, -13755, -5661, 1958, 2353, -1425, 5, -65, 1, 31, 62, 36, 295, 117, 39, 39, 32
263199467, 6292, 2760, -13755, -5661, 1958, 2353, -1425, 5, -65, 1, 36, 56, 40, 281, 121, 39, 40, 34
263200260, 6292, 2760, -13755, -5661, 1958, 2353, -1425, 5, -65, 1, 36, 56, 40, 281, 121, 39, 40, 34
263214533, 6302, 2747, -13753, -5660, 1963, 2358, -1409, 19, -69, 7, 36, 56, 40, 281, 121, 39, 40, 34
263215327, 6302, 2747, -13753, -5660, 1963, 2358, -1409, 19, -69, 7, 47, 52, 42, 275, 120, 37, 42, 32
263221291, 6302, 2747, -13753, -5660, 1963, 2358, -1409, 19, -69, 7, 47, 52, 42, 275, 120, 37, 42, 32
263228901, 6311, 2732, -13753, -5658, 1975, 2366, -1427, 20, -74, 12, 47, 52, 42, 275, 120, 37, 42, 32
263236963, 6311, 2732, -13753, -5658, 1975, 2366, -1427, 20, -74, 12, 49, 52, 44, 245, 128, 37, 43, 31
263237769, 6311, 2732, -13753, -5658, 1975, 2366, -1427, 20, -74, 12, 49, 52, 44, 245, 128, 37, 43, 31
263251345, 6322, 2718, -13752, -5656, 1977, 2376, -1415, 23, -62, 11, 49, 52, 44, 245, 128, 37, 43, 31
263259455, 6322, 2718, -13752, -5656, 1977, 2376, -1415, 23, -62, 11, 52, 50, 44, 357, 136, 35, 46, 31
263260248, 6322, 2718, -13752, -5656, 1977, 2376, -1415, 23, -62, 11, 52, 50, 44, 357, 136, 35, 46, 31
263273839, 6334, 2706, -13751, -5650, 1994, 2366, -1470, 23, -39, 11, 52, 50, 44, 357, 136, 35, 46, 31
263281937, 6334, 2706, -13751, -5650, 1994, 2366, -1470, 23, -39, 11, 59, 45, 45, 366, 130, 39, 47, 31
263282741, 6334, 2706, -13751, -5650, 1994, 2366, -1470, 23, -39, 11, 59, 45, 45, 366, 130, 39, 47, 31
263288920, 6338, 2704, -13750, -5649, 1993, 2330, -1453, -5, -11, -3, 59, 45, 45, 366, 130, 39, 47, 31
263296963, 6338, 2704, -13750, -5649, 1993, 2330, -1453, -5, -11, -3, 61, 55, 42, 380, 134, 39, 44, 30
263297748, 6338, 2704, -13750, -5649, 1993, 2330, -1453, -5, -11, -3, 61, 55, 42, 380, 134, 39, 44, 30
263311359, 6346, 2701, -13753, -5634, 1967, 2347, -1470, 90, -29, -8, 61, 55, 42, 380, 134, 39, 44, 30
263319453, 6346, 2701, -13753, -5634, 1967, 2347, -1470, 90, -29, -8, 54, 53, 40, 378, 127, 42, 42, 32
263320256, 6346, 2701, -13753, -5634, 1967, 2347, -1470, 90, -29, -8, 54, 53, 40, 378, 127, 42, 42, 32
263333834, 6349, 2696, -13759, -5617, 1950, 2373, -1470, 116, -57, 18, 54, 53, 40, 378, 127, 42, 42, 32
263341942, 6349, 2696, -13759, -5617, 1950, 2373, -1470, 116, -57, 18, 54, 55, 38, 408, 117, 41, 38, 32
263342740, 6349, 2696, -13759, -5617, 1950, 2373, -1470, 116, -57, 18, 54, 55, 38, 408, 117, 41, 38, 32
263348927, 6358, 2682, -13763, -5604, 1976, 2363, -1463, 72, -57, 52, 54, 55, 38, 408, 117, 41, 38, 32
263356959, 6358, 2682, -13763, -5604, 1976, 2363, -1463, 72, -57, 52, 52, 55, 32, 315, 108, 39, 39, 31
263357739, 6358, 2682, -13763, -5604, 1976, 2363, -1463, 72, -57, 52, 52, 55, 32, 315, 108, 39, 39, 31
263371352, 6369, 2671, -13767, -5587, 1983, 2373, -1456, 100, -38, 53, 52, 55, 32, 315, 108, 39, 39, 31
263379460, 6369, 2671, -13767, -5587, 1983, 2373, -1456, 100, -38, 53, 47, 54, 30, 345, 113, 37, 38, 29
263380251, 6369, 2671, -13767, -5587, 1983, 2373, -1456, 100, -38, 53, 47, 54, 30, 345, 113, 37, 38, 29
263393835, 6386, 2663, -13768, -5568, 2020, 2377, -1496, 91, 10, 49, 47, 54, 30, 345, 113, 37, 38, 29
263401932, 6386, 2663, -13768, -5568, 2020, 2377, -1496, 91, 10, 49, 42, 59, 31, 396, 114, 36, 44, 33
263402724, 6386, 2663, -13768, -5568, 2020, 2377, -1496, 91, 10, 49, 42, 59, 31, 396, 114, 36, 44, 33
263408905, 6406, 2656, -13767, -5552, 2010, 2374, -1509, 71, 39, 48, 42, 59, 31, 396, 114, 36, 44, 33
263416946, 6406, 2656, -13767, -5552, 2010, 2374, -1509, 71, 39, 48, 38, 62, 30, 469, 133, 30, 46, 35
263417737, 6406, 2656, -13767, -5552, 2010, 2374, -1509, 71, 39, 48, 38, 62, 30, 469, 133, 30, 46, 35
263431333, 6424, 2650, -13766, -5536, 1985, 2345, -1497, 70, 30, 47, 38, 62, 30, 469, 133, 30, 46, 35
263439434, 6424, 2650, -13766, -5536, 1985, 2345, -1497, 70, 30, 47, 46, 62, 30, 560, 146, 33, 48, 39
263440230, 6424, 2650, -13766, -5536, 1985, 2345, -1497, 70, 30, 47, 46, 62, 30, 560, 146, 33, 48, 39
263453861, 6438, 2648, -13773, -5503, 2019, 2356, -1535, 172, 23, 57, 46, 62, 30, 560, 146, 33, 48, 39
263461942, 6438, 2648, -13773, -5503, 2019, 2356, -1535, 172, 23, 57, 59, 65, 32, 593, 154, 34, 50, 41
263462716, 6438, 2648, -13773, -5503, 2019, 2356, -1535, 172, 23, 57, 59, 65, 32, 593, 154, 34, 50, 41
263468948, 6448, 2652, -13785, -5460, 2034, 2375, -1569, 237, 23, 58, 59, 65, 32, 593, 154, 34, 50, 41
263476984, 6448, 2652, -13785, -5460, 2034, 2375, -1569, 237, 23, 58, 61, 74, 31, 604, 185, 37, 52, 41
263477720, 6448, 2652, -13785, -5460, 2034, 2375, -1569, 237, 23, 58, 61, 74, 31, 604, 185, 37, 52, 41
263491334, 6455, 2664, -13803, -5401, 2082, 2426, -1644, 348, 34, 61, 61, 74, 31, 604, 185, 37, 52, 41
263499434, 6455, 2664, -13803, -5401, 2082, 2426, -1644, 348, 34, 61, 63, 63, 33, 604, 200, 38, 57, 39
263500218, 6455, 2664, -13803, -5401, 2082, 2426, -1644, 348, 34, 61, 63, 63, 33, 604, 200, 38, 57, 39
263513825, 6468, 2678, -13823, -5327, 2191, 2437, -1735, 397, 65, 73, 63, 63, 33, 604, 200, 38, 57, 39
263521988, 6468, 2678, -13823, -5327, 2191, 2437, -1735, 397, 65, 73, 67, 64, 33, 586, 195, 45, 57, 38
263522771, 6468, 2678, -13823, -5327, 2191, 2437, -1735, 397, 65, 73, 67, 64, 33, 586, 195, 45, 57, 38
263539047, 6502, 2681, -13836, -5248, 2236, 2340, -1749, 345, 161, 135, 67, 64, 33, 586, 195, 45, 57, 38
263539830, 6502, 2681, -13836, -5248, 2236, 2340, -1749, 345, 161, 135, 67, 64, 33, 586, 195, 45, 57, 38
263540680, 6322, 2718, -13752, -5656, 1977, 2376, -1415, 23, -62, 11, 67, 64, 33, 586, 195, 45, 57, 38
263541485, 6322, 2718, -13752, -5656, 1977, 2376, -1415, 23, -62, 11, 52, 50, 44, 357, 136, 35, 46, 31
263546450, 6322, 2718, -13752, -5656, 1977, 2376, -1415, 23, -62, 11, 52, 50, 44, 357, 136, 35, 46, 31
263547370, 6334, 2706, -13751, -5650, 1994, 2366, -1470, 23, -39, 11, 52, 50, 44, 357, 136, 35, 46, 31
263548174, 6334, 2706, -13751, -5650, 1994, 2366, -1470, 23, -39, 11, 59, 45, 45, 366, 130, 39, 47, 31
263548981, 6334, 2706, -13751, -5650, 1994, 2366, -1470, 23, -39, 11, 59, 45, 45, 366, 130, 39, 47, 31
263554032, 6334, 2706, -13751, -5650, 1994, 2366, -1470, 23, -39, 11, 59, 45, 45, 366, 130, 39, 47, 31
263554835, 6334, 2706, -13751, -5650, 1994, 2366, -1470, 23, -39, 11, 59, 45, 45, 366, 130, 39, 47, 31
263555632, 6334, 2706, -13751, -5650, 1994, 2366, -1470, 23, -39, 11, 59, 45, 45, 366, 130, 39, 47, 31
263556440, 6334, 2706, -13751, -5650, 1994, 2366, -1470, 23, -39, 11, 59, 45, 45, 366, 130, 39, 47, 31
263561423, 6334, 2706, -13751, -5650, 1994, 2366, -1470, 23, -39, 11, 59, 45, 45, 366, 130, 39, 47, 31
263562219, 6334, 2706, -13751, -5650, 1994, 2366, -1470, 23, -39, 11, 59, 45, 45, 366, 130, 39, 47, 31
263563099, 6334, 2706, -13751, -5650, 1994, 2366, -1470, 23, -39, 11, 59, 45, 45, 366, 130, 39, 47, 31
263563773, 6334, 2706, -13751, -5650, 1994, 2366, -1470, 23, -39, 11, 59, 45, 45, 366, 130, 39, 47, 31
263568920, 6334, 2706, -13751, -5650, 1994, 2366, -1470, 23, -39, 11, 59, 45, 45, 366, 130, 39, 47, 31
263569849, 6338, 2704, -13750, -5649, 1993, 2330, -1453, -5, -11, -3, 59, 45, 45, 366, 130, 39, 47, 31
263570647, 6338, 2704, -13750, -5649, 1993, 2330, -1453, -5, -11, -3, 61, 55, 42, 380, 134, 39, 44, 30
263571466, 6338, 2704, -13750, -5649, 1993, 2330, -1453, -5, -11, -3, 61, 55, 42, 380, 134, 39, 44, 30
263576524, 6338, 2704, -13750, -5649, 1993, 2330, -1453, -5, -11, -3, 61, 55, 42, 380, 134, 39, 44, 30
263577317, 6338, 2704, -13750, -5649, 1993, 2330, -1453, -5, -11, -3, 61, 55, 42, 380, 134, 39, 44, 30
263578097, 6338, 2704, -13750, -5649, 1993, 2330, -1453, -5, -11, -3, 61, 55, 42, 380, 134, 39, 44, 30
263578937, 6338, 2704, -13750, -5649, 1993, 2330, -1453, -5, -11, -3, 61, 55, 42, 380, 134, 39, 44, 30
263583907, 6338, 2704, -13750, -5649, 1993, 2330, -1453, -5, -11, -3, 61, 55, 42, 380, 134, 39, 44, 30
263584702, 6338, 2704, -13750, -5649, 1993, 2330, -1453, -5, -11, -3, 61, 55, 42, 380, 134, 39, 44, 30
263585520, 6338, 2704, -13750, -5649, 1993, 2330, -1453, -5, -11, -3, 61, 55, 42, 380, 134, 39, 44, 30
263586331, 6338, 2704, -13750, -5649, 1993, 2330, -1453, -5, -11, -3, 61, 55, 42, 380, 134, 39, 44, 30
263591461, 6338, 2704, -13750, -5649, 1993, 2330, -1453, -5, -11, -3, 61, 55, 42, 380, 134, 39, 44, 30
263592396, 6346, 2701, -13753, -5634, 1967, 2347, -1470, 90, -29, -8, 61, 55, 42, 380, 134, 39, 44, 30
263593201, 6346, 2701, -13753, -5634, 1967, 2347, -1470, 90, -29, -8, 54, 53, 40, 378, 127, 42, 42, 32
263594013, 6346, 2701, -13753, -5634, 1967, 2347, -1470, 90, -29, -8, 54, 53, 40, 378, 127, 42, 42, 32
263599023, 6346, 2701, -13753, -5634, 1967, 2347, -1470, 90, -29, -8, 54, 53, 40, 378, 127, 42, 42, 32
263599833, 6346, 2701, -13753, -5634, 1967, 2347, -1470, 90, -29, -8, 54, 53, 40, 378, 127, 42, 42, 32
263600644, 6346, 2701, -13753, -5634, 1967, 2347, -1470, 90, -29, -8, 54, 53, 40, 378, 127, 42, 42, 32
263601495, 6346, 2701, -13753, -5634, 1967, 2347, -1470, 90, -29, -8, 54, 53, 40, 378, 127, 42, 42, 32
263606433, 6346, 2701, -13753, -5634, 1967, 2347, -1470, 90, -29, -8, 54, 53, 40, 378, 127, 42, 42, 32
263607239, 6346, 2701, -13753, -5634, 1967, 2347, -1470, 90, -29, -8, 54, 53, 40, 378, 127, 42, 42, 32
263608089, 6346, 2701, -13753, -5634, 1967, 2347, -1470, 90, -29, -8, 54, 53, 40, 378, 127, 42, 42, 32
263608854, 6346, 2701, -13753, -5634, 1967, 2347, -1470, 90, -29, -8, 54, 53, 40, 378, 127, 42, 42, 32
263613938, 6346, 2701, -13753, -5634, 1967, 2347, -1470, 90, -29, -8, 54, 53, 40, 378, 127, 42, 42, 32
263614868, 6349, 2696, -13759, -5617, 1950, 2373, -1470, 116, -57, 18, 54, 53, 40, 378, 127, 42, 42, 32
263615676, 6349, 2696, -13759, -5617, 1950, 2373, -1470, 116, -57, 18, 54, 55, 38, 408, 117, 41, 38, 32
263616488, 6349, 2696, -13759, -5617, 1950, 2373, -1470, 116, -57, 18, 54, 55, 38, 408, 117, 41, 38, 32
263621521, 6349, 2696, -13759, -5617, 1950, 2373, -1470, 116, -57, 18, 54, 55, 38, 408, 117, 41, 38, 32
263622312, 6349, 2696, -13759, -5617, 1950, 2373, -1470, 116, -57, 18, 54, 55, 38, 408, 117, 41, 38, 32
263623126, 6349, 2696, -13759, -5617, 1950, 2373, -1470, 116, -57, 18, 54, 55, 38, 408, 117, 41, 38, 32
263623929, 6349, 2696, -13759, -5617, 1950, 2373, -1470, 116, -57, 18, 54, 55, 38, 408, 117, 41, 38, 32
263628895, 6349, 2696, -13759, -5617, 1950, 2373, -1470, 116, -57, 18, 54, 55, 38, 408, 117, 41, 38, 32
263629702, 6349, 2696, -13759, -5617, 1950, 2373, -1470, 116, -57, 18, 54, 55, 38, 408, 117, 41, 38, 32
263630513, 6349, 2696, -13759, -5617, 1950, 2373, -1470, 116, -57, 18, 54, 55, 38, 408, 117, 41, 38, 32
263631330, 6349, 2696, -13759, -5617, 1950, 2373, -1470, 116, -57, 18, 54, 55, 38, 408, 117, 41, 38, 32
263636426, 6349, 2696, -13759, -5617, 1950, 2373, -1470, 116, -57, 18, 54, 55, 38, 408, 117, 41, 38, 32
263637347, 6358, 2682, -13763, -5604, 1976, 2363, -1463, 72, -57, 52, 54, 55, 38, 408, 117, 41, 38, 32
263638153, 6358, 2682, -13763, -5604, 1976, 2363, -1463, 72, -57, 52, 52, 55, 32, 315, 108, 39, 39, 31
263638958, 6358, 2682, -13763, -5604, 1976, 2363, -1463, 72, -57, 52, 52, 55, 32, 315, 108, 39, 39, 31
263643990, 6358, 2682, -13763, -5604, 1976, 2363, -1463, 72, -57, 52, 52, 55, 32, 315, 108, 39, 39, 31
263644787, 6358, 2682, -13763, -5604, 1976, 2363, -1463, 72, -57, 52, 52, 55, 32, 315, 108, 39, 39, 31
263645592, 6358, 2682, -13763, -5604, 1976, 2363, -1463, 72, -57, 52, 52, 55, 32, 315, 108, 39, 39, 31
263646409, 6358, 2682, -13763, -5604, 1976, 2363, -1463, 72, -57, 52, 52, 55, 32, 315, 108, 39, 39, 31
263651378, 6358, 2682, -13763, -5604, 1976, 2363, -1463, 72, -57, 52, 52, 55, 32, 315, 108, 39, 39, 31
263652189, 6358, 2682, -13763, -5604, 1976, 2363, -1463, 72, -57, 52, 52, 55, 32, 315, 108, 39, 39, 31
263652985, 6358, 2682, -13763, -5604, 1976, 2363, -1463, 72, -57, 52, 52, 55, 32, 315, 108, 39, 39, 31
263653800, 6358, 2682, -13763, -5604, 1976, 2363, -1463, 72, -57, 52, 52, 55, 32, 315, 108, 39, 39, 31
263658974, 6358, 2682, -13763, -5604, 1976, 2363, -1463, 72, -57, 52, 52, 55, 32, 315, 108, 39, 39, 31
263659908, 6369, 2671, -13767, -5587, 1983, 2373, -1456, 100, -38, 53, 52, 55, 32, 315, 108, 39, 39, 31
263660710, 6369, 2671, -13767, -5587, 1983, 2373, -1456, 100, -38, 53, 47, 54, 30, 345, 113, 37, 38, 29
263661493, 6369, 2671, -13767, -5587, 1983, 2373, -1456, 100, -38, 53, 47, 54, 30, 345, 113, 37, 38, 29
263666564, 6369, 2671, -13767, -5587, 1983, 2373, -1456, 100, -38, 53, 47, 54, 30, 345, 113, 37, 38, 29
263667342, 6369, 2671, -13767, -5587, 1983, 2373, -1456, 100, -38, 53, 47, 54, 30, 345, 113, 37, 38, 29
263668158, 6369, 2671, -13767, -5587, 1983, 2373, -1456, 100, -38, 53, 47, 54, 30, 345, 113, 37, 38, 29
263668958, 6369, 2671, -13767, -5587, 1983, 2373, -1456, 100, -38, 53, 47, 54, 30, 345, 113, 37, 38, 29
263673909, 6369, 2671, -13767, -5587, 1983, 2373, -1456, 100, -38, 53, 47, 54, 30, 345, 113, 37, 38, 29
263674733, 6369, 2671, -13767, -5587, 1983, 2373, -1456, 100, -38, 53, 47, 54, 30, 345, 113, 37, 38, 29
263675546, 6369, 2671, -13767, -5587, 1983, 2373, -1456, 100, -38, 53, 47, 54, 30, 345, 113, 37, 38, 29
263676355, 6369, 2671, -13767, -5587, 1983, 2373, -1456, 100, -38, 53, 47, 54, 30, 345, 113, 37, 38, 29
263681460, 6369, 2671, -13767, -5587, 1983, 2373, -1456, 100, -38, 53, 47, 54, 30, 345, 113, 37, 38, 29
263682369, 6386, 2663, -13768, -5568, 2020, 2377, -1496, 91, 10, 49, 47, 54, 30, 345, 113, 37, 38, 29
263683175, 6386, 2663, -13768, -5568, 2020, 2377, -1496, 91, 10, 49, 42, 59, 31, 396, 114, 36, 44, 33
263683987, 6386, 2663, -13768, -5568, 2020, 2377, -1496, 91, 10, 49, 42, 59, 31, 396, 114, 36, 44, 33
263689160, 6386, 2663, -13768, -5568, 2020, 2377, -1496, 91, 10, 49, 42, 59, 31, 396, 114, 36, 44, 33
263689814, 6386, 2663, -13768, -5568, 2020, 2377, -1496, 91, 10, 49, 42, 59, 31, 396, 114, 36, 44, 33
263690621, 6386, 2663, -13768, -5568, 2020, 2377, -1496, 91, 10, 49, 42, 59, 31, 396, 114, 36, 44, 33
263691453, 6386, 2663, -13768, -5568, 2020, 2377, -1496, 91, 10, 49, 42, 59, 31, 396, 114, 36, 44, 33
263696410, 6386, 2663, -13768, -5568, 2020, 2377, -1496, 91, 10, 49, 42, 59, 31, 396, 114, 36, 44, 33
263697193, 6386, 2663, -13768, -5568, 2020, 2377, -1496, 91, 10, 49, 42, 59, 31, 396, 114, 36, 44, 33
263698015, 6386, 2663, -13768, -5568, 2020, 2377, -1496, 91, 10, 49, 42, 59, 31, 396, 114, 36, 44, 33
263698859, 6386, 2663, -13768, -5568, 2020, 2377, -1496, 91, 10, 49, 42, 59, 31, 396, 114, 36, 44, 33
263703935, 6386, 2663, -13768, -5568, 2020, 2377, -1496, 91, 10, 49, 42, 59, 31, 396, 114, 36, 44, 33
263704869, 6406, 2656, -13767, -5552, 2010, 2374, -1509, 71, 39, 48, 42, 59, 31, 396, 114, 36, 44, 33
263705658, 6406, 2656, -13767, -5552, 2010, 2374, -1509, 71, 39, 48, 38, 62, 30, 469, 133, 30, 46, 35
263706476, 6406, 2656, -13767, -5552, 2010, 2374, -1509, 71, 39, 48, 38, 62, 30, 469, 133, 30, 46, 35
263711477, 6406, 2656, -13767, -5552, 2010, 2374, -1509, 71, 39, 48, 38, 62, 30, 469, 133, 30, 46, 35
263712288, 6406, 2656, -13767, -5552, 2010, 2374, -1509, 71, 39, 48, 38, 62, 30, 469, 133, 30, 46, 35
263713096, 6406, 2656, -13767, -5552, 2010, 2374, -1509, 71, 39, 48, 38, 62, 30, 469, 133, 30, 46, 35
263713906, 6406, 2656, -13767, -5552, 2010, 2374, -1509, 71, 39, 48, 38, 62, 30, 469, 133, 30, 46, 35
263718919, 6406, 2656, -13767, -5552, 2010, 2374, -1509, 71, 39, 48, 38, 62, 30, 469, 133, 30, 46, 35
263719731, 6406, 2656, -13767, -5552, 2010, 2374, -1509, 71, 39, 48, 38, 62, 30, 469, 133, 30, 46, 35
263720556, 6406, 2656, -13767, -5552, 2010, 2374, -1509, 71, 39, 48, 38, 62, 30, 469, 133, 30, 46, 35
263721414, 6406, 2656, -13767, -5552, 2010, 2374, -1509, 71, 39, 48, 38, 62, 30, 469, 133, 30, 46, 35
263726481, 6406, 2656, -13767, -5552, 2010, 2374, -1509, 71, 39, 48, 38, 62, 30, 469, 133, 30, 46, 35
263727380, 6424, 2650, -13766, -5536, 1985, 2345, -1497, 70, 30, 47, 38, 62, 30, 469, 133, 30, 46, 35
263728196, 6424, 2650, -13766, -5536, 1985, 2345, -1497, 70, 30, 47, 46, 62, 30, 560, 146, 33, 48, 39
263729011, 6424, 2650, -13766, -5536, 1985, 2345, -1497, 70, 30, 47, 46, 62, 30, 560, 146, 33, 48, 39
263734024, 6424, 2650, -13766, -5536, 1985, 2345, -1497, 70, 30, 47, 46, 62, 30, 560, 146, 33, 48, 39
263734817, 6424, 2650, -13766, -5536, 1985, 2345, -1497, 70, 30, 47, 46, 62, 30, 560, 146, 33, 48, 39
263735626, 6424, 2650, -13766, -5536, 1985, 2345, -1497, 70, 30, 47, 46, 62, 30, 560, 146, 33, 48, 39
263736459, 6424, 2650, -13766, -5536, 1985, 2345, -1497, 70, 30, 47, 46, 62, 30, 560, 146, 33, 48, 39
263741431, 6424, 2650, -13766, -5536, 1985, 2345, -1497, 70, 30, 47, 46, 62, 30, 560, 146, 33, 48, 39
263742216, 6424, 2650, -13766, -5536, 1985, 2345, -1497, 70, 30, 47, 46, 62, 30, 560, 146, 33, 48, 39
263743013, 6424, 2650, -13766, -5536, 1985, 2345, -1497, 70, 30, 47, 46, 62, 30, 560, 146, 33, 48, 39
263743833, 6424, 2650, -13766, -5536, 1985, 2345, -1497, 70, 30, 47, 46, 62, 30, 560, 146, 33, 48, 39
263748928, 6424, 2650, -13766, -5536, 1985, 2345, -1497, 70, 30, 47, 46, 62, 30, 560, 146, 33, 48, 39
263749851, 6438, 2648, -13773, -5503, 2019, 2356, -1535, 172, 23, 57, 46, 62, 30, 560, 146, 33, 48, 39
263750644, 6438, 2648, -13773, -5503, 2019, 2356, -1535, 172, 23, 57, 59, 65, 32, 593, 154, 34, 50, 41
263751467, 6438, 2648, -13773, -5503, 2019, 2356, -1535, 172, 23, 57, 59, 65, 32, 593, 154, 34, 50, 41
263755846, 6438, 2648, -13773, -5503, 2019, 2356, -1535, 172, 23, 57, 59, 65, 32, 593, 154, 34, 50, 41
263756651, 6438, 2648, -13773, -5503, 2019, 2356, -1535, 172, 23, 57, 59, 65, 32, 593, 154, 34, 50, 41
263757467, 6438, 2648, -13773, -5503, 2019, 2356, -1535, 172, 23, 57, 59, 65, 32, 593, 154, 34, 50, 41
263758284, 6438, 2648, -13773, -5503, 2019, 2356, -1535, 172, 23, 57, 59, 65, 32, 593, 154, 34, 50, 41
263761921, 6438, 2648, -13773, -5503, 2019, 2356, -1535, 172, 23, 57, 469, 83, 37, 209, 89, 38, 113, 53
263762727, 6438, 2648, -13773, -5503, 2019, 2356, -1535, 172, 23, 57, 469, 83, 37, 209, 89, 38, 113, 53
263779026, 10768, 2011, -11007, -5224, 2192, 2491, -1269, -2050, 3106, 1244, 469, 83, 37, 209, 89, 38, 113, 53
263779812, 10768, 2011, -11007, -5224, 2192, 2491, -1269, -2050, 3106, 1244, 469, 83, 37, 209, 89, 38, 113, 53
263780656, 6455, 2664, -13803, -5401, 2082, 2426, -1644, 348, 34, 61, 469, 83, 37, 209, 89, 38, 113, 53
263781464, 6455, 2664, -13803, -5401, 2082, 2426, -1644, 348, 34, 61, 63, 63, 33, 604, 200, 38, 57, 39
263786421, 6455, 2664, -13803, -5401, 2082, 2426, -1644, 348, 34, 61, 63, 63, 33, 604, 200, 38, 57, 39
263787342, 6468, 2678, -13823, -5327, 2191, 2437, -1735, 397, 65, 73, 63, 63, 33, 604, 200, 38, 57, 39
263788151, 6468, 2678, -13823, -5327, 2191, 2437, -1735, 397, 65, 73, 67, 64, 33, 586, 195, 45, 57, 38
263788959, 6468, 2678, -13823, -5327, 2191, 2437, -1735, 397, 65, 73, 67, 64, 33, 586, 195, 45, 57, 38
263793983, 6468, 2678, -13823, -5327, 2191, 2437, -1735, 397, 65, 73, 67, 64, 33, 586, 195, 45, 57, 38
263794778, 6468, 2678, -13823, -5327, 2191, 2437, -1735, 397, 65, 73, 67, 64, 33, 586, 195, 45, 57, 38
263795593, 6468, 2678, -13823, -5327, 2191, 2437, -1735, 397, 65, 73, 67, 64, 33, 586, 195, 45, 57, 38
263796406, 6468, 2678, -13823, -5327, 2191, 2437, -1735, 397, 65, 73, 67, 64, 33, 586, 195, 45, 57, 38
263801387, 6468, 2678, -13823, -5327, 2191, 2437, -1735, 397, 65, 73, 67, 64, 33, 586, 195, 45, 57, 38
263802187, 6468, 2678, -13823, -5327, 2191, 2437, -1735, 397, 65, 73, 67, 64, 33, 586, 195, 45, 57, 38
263802989, 6468, 2678, -13823, -5327, 2191, 2437, -1735, 397, 65, 73, 67, 64, 33, 586, 195, 45, 57, 38
263803807, 6468, 2678, -13823, -5327, 2191, 2437, -1735, 397, 65, 73, 67, 64, 33, 586, 195, 45, 57, 38
263808951, 6468, 2678, -13823, -5327, 2191, 2437, -1735, 397, 65, 73, 67, 64, 33, 586, 195, 45, 57, 38
263809881, 6502, 2681, -13836, -5248, 2236, 2340, -1749, 345, 161, 135, 67, 64, 33, 586, 195, 45, 57, 38
263810694, 6502, 2681, -13836, -5248, 2236, 2340, -1749, 345, 161, 135, 60, 74, 32, 593, 186, 47, 58, 35
263811487, 6502, 2681, -13836, -5248, 2236, 2340, -1749, 345, 161, 135, 60, 74, 32, 593, 186, 47, 58, 35
263816512, 6502, 2681, -13836, -5248, 2236, 2340, -1749, 345, 161, 135, 60, 74, 32, 593, 186, 47, 58, 35
263817349, 6502, 2681, -13836, -5248, 2236, 2340, -1749, 345, 161, 135, 60, 74, 32, 593, 186, 47, 58, 35
263818150, 6502, 2681, -13836, -5248, 2236, 2340, -1749, 345, 161, 135, 60, 74, 32, 593, 186, 47, 58, 35
263818952, 6502, 2681, -13836, -5248, 2236, 2340, -1749, 345, 161, 135, 60, 74, 32, 593, 186, 47, 58, 35
263823931, 6502, 2681, -13836, -5248, 2236, 2340, -1749, 345, 161, 135, 60, 74, 32, 593, 186, 47, 58, 35
263824721, 6502, 2681, -13836, -5248, 2236, 2340, -1749, 345, 161, 135, 60, 74, 32, 593, 186, 47, 58, 35
263825533, 6502, 2681, -13836, -5248, 2236, 2340, -1749, 345, 161, 135, 60, 74, 32, 593, 186, 47, 58, 35
263826346, 6502, 2681, -13836, -5248, 2236, 2340, -1749, 345, 161, 135, 60, 74, 32, 593, 186, 47, 58, 35
263831542, 6557, 2687, -13847, -5148, 2222, 2345, -1697, 454, 282, 226, 60, 74, 32, 593, 186, 47, 58, 35
263832349, 6557, 2687, -13847, -5148, 2222, 2345, -1697, 454, 282, 226, 53, 78, 34, 646, 188, 47, 59, 33
263833148, 6557, 2687, -13847, -5148, 2222, 2345, -1697, 454, 282, 226, 53, 78, 34, 646, 188, 47, 59, 33
263833958, 6557, 2687, -13847, -5148, 2222, 2345, -1697, 454, 282, 226, 53, 78, 34, 646, 188, 47, 59, 33
263837321, 6557, 2687, -13847, -5148, 2222, 2345, -1697, 454, 282, 226, 53, 78, 34, 646, 188, 47, 59, 33
263838120, 6557, 2687, -13847, -5148, 2222, 2345, -1697, 454, 282, 226, 53, 78, 34, 646, 188, 47, 59, 33
263846431, 6557, 2687, -13847, -5148, 2222, 2345, -1697, 454, 282, 226, 53, 78, 34, 646, 188, 47, 59, 33
263847247, 6557, 2687, -13847, -5148, 2222, 2345, -1697, 454, 282, 226, 53, 78, 34, 646, 188, 47, 59, 33
263848082, 6557, 2687, -13847, -5148, 2222, 2345, -1697, 454, 282, 226, 53, 78, 34, 646, 188, 47, 59, 33
263849004, 6639, 2717, -13846, -5026, 2294, 2523, -1729, 616, 498, 261, 53, 78, 34, 646, 188, 47, 59, 33
263854028, 6639, 2717, -13846, -5026, 2294, 2523, -1729, 616, 498, 261, 68, 72, 35, 653, 151, 45, 62, 35
263854831, 6639, 2717, -13846, -5026, 2294, 2523, -1729, 616, 498, 261, 68, 72, 35, 653, 151, 45, 62, 35
263855636, 6639, 2717, -13846, -5026, 2294, 2523, -1729, 616, 498, 261, 68, 72, 35, 653, 151, 45, 62, 35
263856490, 6639, 2717, -13846, -5026, 2294, 2523, -1729, 616, 498, 261, 68, 72, 35, 653, 151, 45, 62, 35
263861415, 6639, 2717, -13846, -5026, 2294, 2523, -1729, 616, 498, 261, 68, 72, 35, 653, 151, 45, 62, 35
263862230, 6639, 2717, -13846, -5026, 2294, 2523, -1729, 616, 498, 261, 68, 72, 35, 653, 151, 45, 62, 35
263863083, 6639, 2717, -13846, -5026, 2294, 2523, -1729, 616, 498, 261, 68, 72, 35, 653, 151, 45, 62, 35
263863765, 6639, 2717, -13846, -5026, 2294, 2523, -1729, 616, 498, 261, 68, 72, 35, 653, 151, 45, 62, 35
263868905, 6639, 2717, -13846, -5026, 2294, 2523, -1729, 616, 498, 261, 68, 72, 35, 653, 151, 45, 62, 35
263869850, 6789, 2749, -13800, -4933, 2352, 2601, -1758, 353, 916, 289, 68, 72, 35, 653, 151, 45, 62, 35
263870660, 6789, 2749, -13800, -4933, 2352, 2601, -1758, 353, 916, 289, 148, 76, 41, 629, 130, 43, 62, 35
263871451, 6789, 2749, -13800, -4933, 2352, 2601, -1758, 353, 916, 289, 148, 76, 41, 629, 130, 43, 62, 35
263876484, 6789, 2749, -13800, -4933, 2352, 2601, -1758, 353, 916, 289, 148, 76, 41, 629, 130, 43, 62, 35
263877289, 6789, 2749, -13800, -4933, 2352, 2601, -1758, 353, 916, 289, 148, 76, 41, 629, 130, 43, 62, 35
263878111, 6789, 2749, -13800, -4933, 2352, 2601, -1758, 353, 916, 289, 148, 76, 41, 629, 130, 43, 62, 35
263878929, 6789, 2749, -13800, -4933, 2352, 2601, -1758, 353, 916, 289, 148, 76, 41, 629, 130, 43, 62, 35
263883883, 6789, 2749, -13800, -4933, 2352, 2601, -1758, 353, 916, 289, 148, 76, 41, 629, 130, 43, 62, 35
263884691, 6789, 2749, -13800, -4933, 2352, 2601, -1758, 353, 916, 289, 148, 76, 41, 629, 130, 43, 62, 35
263885504, 6789, 2749, -13800, -4933, 2352, 2601, -1758, 353, 916, 289, 148, 76, 41, 629, 130, 43, 62, 35
263886318, 6789, 2749, -13800, -4933, 2352, 2601, -1758, 353, 916, 289, 148, 76, 41, 629, 130, 43, 62, 35
263891387, 6789, 2749, -13800, -4933, 2352, 2601, -1758, 353, 916, 289, 148, 76, 41, 629, 130, 43, 62, 35
263892327, 7026, 2781, -13690, -4893, 2232, 2646, -1673, -74, 1473, 345, 148, 76, 41, 629, 130, 43, 62, 35
263893130, 7026, 2781, -13690, -4893, 2232, 2646, -1673, -74, 1473, 345, 401, 71, 43, 604, 129, 37, 79, 49
263893932, 7026, 2781, -13690, -4893, 2232, 2646, -1673, -74, 1473, 345, 148, 76, 41, 629, 130, 43, 62, 35
263899019, 7026, 2781, -13690, -4893, 2232, 2646, -1673, -74, 1473, 345, 401, 71, 43, 604, 129, 37, 79, 49
263899780, 7026, 2781, -13690, -4893, 2232, 2646, -1673, -74, 1473, 345, 401, 71, 43, 604, 129, 37, 79, 49
263900588, 7026, 2781, -13690, -4893, 2232, 2646, -1673, -74, 1473, 345, 401, 71, 43, 604, 129, 37, 79, 49
263901399, 7026, 2781, -13690, -4893, 2232, 2646, -1673, -74, 1473, 345, 401, 71, 43, 604, 129, 37, 79, 49
263906421, 7026, 2781, -13690, -4893, 2232, 2646, -1673, -74, 1473, 345, 401, 71, 43, 604, 129, 37, 79, 49
263907222, 7026, 2781, -13690, -4893, 2232, 2646, -1673, -74, 1473, 345, 401, 71, 43, 604, 129, 37, 79, 49
263908081, 7026, 2781, -13690, -4893, 2232, 2646, -1673, -74, 1473, 345, 401, 71, 43, 604, 129, 37, 79, 49
263908849, 7026, 2781, -13690, -4893, 2232, 2646, -1673, -74, 1473, 345, 401, 71, 43, 604, 129, 37, 79, 49
263913920, 7026, 2781, -13690, -4893, 2232, 2646, -1673, -74, 1473, 345, 401, 71, 43, 604, 129, 37, 79, 49
263914850, 7346, 2808, -13525, -4864, 1958, 2662, -1610, -366, 1989, 378, 401, 71, 43, 604, 129, 37, 79, 49
263915665, 7346, 2808, -13525, -4864, 1958, 2662, -1610, -366, 1989, 378, 494, 64, 47, 493, 137, 34, 122, 58
263916479, 7346, 2808, -13525, -4864, 1958, 2662, -1610, -366, 1989, 378, 494, 64, 47, 493, 137, 34, 122, 58
263921504, 7346, 2808, -13525, -4864, 1958, 2662, -1610, -366, 1989, 378, 494, 64, 47, 493, 137, 34, 122, 58
263922302, 7346, 2808, -13525, -4864, 1958, 2662, -1610, -366, 1989, 378, 494, 64, 47, 493, 137, 34, 122, 58
263923117, 7346, 2808, -13525, -4864, 1958, 2662, -1610, -366, 1989, 378, 494, 64, 47, 493, 137, 34, 122, 58
263923927, 7346, 2808, -13525, -4864, 1958, 2662, -1610, -366, 1989, 378, 494, 64, 47, 493, 137, 34, 122, 58
263928886, 7346, 2808, -13525, -4864, 1958, 2662, -1610, -366, 1989, 378, 494, 64, 47, 493, 137, 34, 122, 58
263929689, 7346, 2808, -13525, -4864, 1958, 2662, -1610, -366, 1989, 378, 494, 64, 47, 493, 137, 34, 122, 58
263930501, 7346, 2808, -13525, -4864, 1958, 2662, -1610, -366, 1989, 378, 494, 64, 47, 493, 137, 34, 122, 58
263931320, 7346, 2808, -13525, -4864, 1958, 2662, -1610, -366, 1989, 378, 494, 64, 47, 493, 137, 34, 122, 58
263936420, 7346, 2808, -13525, -4864, 1958, 2662, -1610, -366, 1989, 378, 494, 64, 47, 493, 137, 34, 122, 58
263937336, 7743, 2799, -13286, -4914, 1880, 2711, -1571, -1032, 2421, 424, 494, 64, 47, 493, 137, 34, 122, 58
263938136, 7743, 2799, -13286, -4914, 1880, 2711, -1571, -1032, 2421, 424, 560, 67, 46, 351, 132, 34, 161, 64
263938961, 7743, 2799, -13286, -4914, 1880, 2711, -1571, -1032, 2421, 424, 560, 67, 46, 351, 132, 34, 161, 64
263944012, 7743, 2799, -13286, -4914, 1880, 2711, -1571, -1032, 2421, 424, 560, 67, 46, 351, 132, 34, 161, 64
263944809, 7743, 2799, -13286, -4914, 1880, 2711, -1571, -1032, 2421, 424, 560, 67, 46, 351, 132, 34, 161, 64
263945585, 7743, 2799, -13286, -4914, 1880, 2711, -1571, -1032, 2421, 424, 560, 67, 46, 351, 132, 34, 161, 64
263946403, 7743, 2799, -13286, -4914, 1880, 2711, -1571, -1032, 2421, 424, 560, 67, 46, 351, 132, 34, 161, 64
263951387, 7743, 2799, -13286, -4914, 1880, 2711, -1571, -1032, 2421, 424, 560, 67, 46, 351, 132, 34, 161, 64
263952194, 7743, 2799, -13286, -4914, 1880, 2711, -1571, -1032, 2421, 424, 560, 67, 46, 351, 132, 34, 161, 64
263953029, 7743, 2799, -13286, -4914, 1880, 2711, -1571, -1032, 2421, 424, 560, 67, 46, 351, 132, 34, 161, 64
263953847, 7743, 2799, -13286, -4914, 1880, 2711, -1571, -1032, 2421, 424, 560, 67, 46, 351, 132, 34, 161, 64
263958918, 7743, 2799, -13286, -4914, 1880, 2711, -1571, -1032, 2421, 424, 560, 67, 46, 351, 132, 34, 161, 64
263959847, 8217, 2743, -12973, -5011, 1960, 2621, -1377, -1579, 2841, 565, 560, 67, 46, 351, 132, 34, 161, 64
263960626, 8217, 2743, -12973, -5011, 1960, 2621, -1377, -1579, 2841, 565, 631, 68, 46, 297, 123, 34, 172, 66
263961434, 8217, 2743, -12973, -5011, 1960, 2621, -1377, -1579, 2841, 565, 631, 68, 46, 297, 123, 34, 172, 66
263966474, 8217, 2743, -12973, -5011, 1960, 2621, -1377, -1579, 2841, 565, 631, 68, 46, 297, 123, 34, 172, 66
263967276, 8217, 2743, -12973, -5011, 1960, 2621, -1377, -1579, 2841, 565, 631, 68, 46, 297, 123, 34, 172, 66
263968113, 8217, 2743, -12973, -5011, 1960, 2621, -1377, -1579, 2841, 565, 631, 68, 46, 297, 123, 34, 172, 66
263968908, 8217, 2743, -12973, -5011, 1960, 2621, -1377, -1579, 2841, 565, 631, 68, 46, 297, 123, 34, 172, 66
263973950, 8217, 2743, -12973, -5011, 1960, 2621, -1377, -1579, 2841, 565, 631, 68, 46, 297, 123, 34, 172, 66
263974727, 8217, 2743, -12973, -5011, 1960, 2621, -1377, -1579, 2841, 565, 631, 68, 46, 297, 123, 34, 172, 66
263975538, 8217, 2743, -12973, -5011, 1960, 2621, -1377, -1579, 2841, 565, 631, 68, 46, 297, 123, 34, 172, 66
263976343, 8217, 2743, -12973, -5011, 1960, 2621, -1377, -1579, 2841, 565, 631, 68, 46, 297, 123, 34, 172, 66
263981441, 8217, 2743, -12973, -5011, 1960, 2621, -1377, -1579, 2841, 565, 631, 68, 46, 297, 123, 34, 172, 66
263982362, 8773, 2622, -12586, -5116, 1991, 2370, -1115, -2012, 3293, 890, 631, 68, 46, 297, 123, 34, 172, 66
263983168, 8773, 2622, -12586, -5116, 1991, 2370, -1115, -2012, 3293, 890, 666, 69, 38, 266, 118, 34, 178, 67
263983986, 8773, 2622, -12586, -5116, 1991, 2370, -1115, -2012, 3293, 890, 666, 69, 38, 266, 118, 34, 178, 67
263989001, 8773, 2622, -12586, -5116, 1991, 2370, -1115, -2012, 3293, 890, 666, 69, 38, 266, 118, 34, 178, 67
263989805, 8773, 2622, -12586, -5116, 1991, 2370, -1115, -2012, 3293, 890, 666, 69, 38, 266, 118, 34, 178, 67
263990613, 8773, 2622, -12586, -5116, 1991, 2370, -1115, -2012, 3293, 890, 666, 69, 38, 266, 118, 34, 178, 67
263991429, 8773, 2622, -12586, -5116, 1991, 2370, -1115, -2012, 3293, 890, 666, 69, 38, 266, 118, 34, 178, 67
263996422, 8773, 2622, -12586, -5116, 1991, 2370, -1115, -2012, 3293, 890, 666, 69, 38, 266, 118, 34, 178, 67
263997192, 8773, 2622, -12586, -5116, 1991, 2370, -1115, -2012, 3293, 890, 666, 69, 38, 266, 118, 34, 178, 67
263998091, 8773, 2622, -12586, -5116, 1991, 2370, -1115, -2012, 3293, 890, 666, 69, 38, 266, 118, 34, 178, 67
263998770, 8773, 2622, -12586, -5116, 1991, 2370, -1115, -2012, 3293, 890, 666, 69, 38, 266, 118, 34, 178, 67
264003925, 8773, 2622, -12586, -5116, 1991, 2370, -1115, -2012, 3293, 890, 666, 69, 38, 266, 118, 34, 178, 67
264004837, 9322, 2483, -12192, -5170, 1869, 2395, -1091, -1874, 3324, 1123, 666, 69, 38, 266, 118, 34, 178, 67
264005655, 9322, 2483, -12192, -5170, 1869, 2395, -1091, -1874, 3324, 1123, 574, 71, 38, 230, 113, 33, 179, 61
264006465, 9322, 2483, -12192, -5170, 1869, 2395, -1091, -1874, 3324, 1123, 574, 71, 38, 230, 113, 33, 179, 61
264011474, 9322, 2483, -12192, -5170, 1869, 2395, -1091, -1874, 3324, 1123, 574, 71, 38, 230, 113, 33, 179, 61
264012280, 9322, 2483, -12192, -5170, 1869, 2395, -1091, -1874, 3324, 1123, 574, 71, 38, 230, 113, 33, 179, 61
264013086, 9322, 2483, -12192, -5170, 1869, 2395, -1091, -1874, 3324, 1123, 574, 71, 38, 230, 113, 33, 179, 61
264013896, 9322, 2483, -12192, -5170, 1869, 2395, -1091, -1874, 3324, 1123, 574, 71, 38, 230, 113, 33, 179, 61
264017555, 9322, 2483, -12192, -5170, 1869, 2395, -1091, -1874, 3324, 1123, 574, 71, 38, 230, 113, 33, 179, 61
264018352, 9322, 2483, -12192, -5170, 1869, 2395, -1091, -1874, 3324, 1123, 574, 71, 38, 230, 113, 33, 179, 61
264019189, 9322, 2483, -12192, -5170, 1869, 2395, -1091, -1874, 3324, 1123, 574, 71, 38, 230, 113, 33, 179, 61
264024429, 9322, 2483, -12192, -5170, 1869, 2395, -1091, -1874, 3324, 1123, 101, 52, 34, 31, 48, 33, 36, 33
264025211, 9322, 2483, -12192, -5170, 1869, 2395, -1091, -1874, 3324, 1123, 101, 52, 34, 31, 48, 33, 36, 33
264031375, 13821, 1001, -6954, -5296, 1440, 1673, -655, -136, 601, -150, 101, 52, 34, 31, 48, 33, 36, 33
264046910, 13821, 1001, -6954, -5296, 1440, 1673, -655, -136, 601, -150, 85, 49, 38, 31, 51, 32, 33, 33
264047704, 13821, 1001, -6954, -5296, 1440, 1673, -655, -136, 601, -150, 85, 49, 38, 31, 51, 32, 33, 33
264053888, 13744, 1129, -7067, -5320, 1455, 1685, -659, 68, 245, -208, 85, 49, 38, 31, 51, 32, 33, 33
264061928, 13744, 1129, -7067, -5320, 1455, 1685, -659, 68, 245, -208, 67, 46, 39, 31, 48, 35, 31, 37
264062762, 13744, 1129, -7067, -5320, 1455, 1685, -659, 68, 245, -208, 67, 46, 39, 31, 48, 35, 31, 37
264068888, 13632, 1265, -7240, -5346, 1480, 1735, -675, 218, -111, -275, 67, 46, 39, 31, 48, 35, 31, 37
264084429, 13632, 1265, -7240, -5346, 1480, 1735, -675, 218, -111, -275, 44, 44, 36, 31, 47, 38, 31, 34
264085240, 13632, 1265, -7240, -5346, 1480, 1735, -675, 218, -111, -275, 44, 44, 36, 31, 47, 38, 31, 34
264091395, 13486, 1404, -7461, -5380, 1479, 1775, -675, 314, -432, -356, 44, 44, 36, 31, 47, 38, 31, 34
264106910, 13486, 1404, -7461, -5380, 1479, 1775, -675, 314, -432, -356, 30, 38, 36, 28, 48, 39, 29, 34
264107708, 13486, 1404, -7461, -5380, 1479, 1775, -675, 314, -432, -356, 30, 38, 36, 28, 48, 39, 29, 34
264113852, 13307, 1544, -7721, -5418, 1480, 1777, -665, 419, -722, -431, 30, 38, 36, 28, 48, 39, 29, 34
264121919, 13307, 1544, -7721, -5418, 1480, 1777, -665, 419, -722, -431, 29, 34, 37, 27, 50, 40, 26, 31
264122705, 13307, 1544, -7721, -5418, 1480, 1777, -665, 419, -722, -431, 29, 34, 37, 27, 50, 40, 26, 31
264128873, 13100, 1687, -8016, -5453, 1460, 1798, -678, 538, -973, -459, 29, 34, 37, 27, 50, 40, 26, 31
264144172, 13100, 1687, -8016, -5453, 1460, 1798, -678, 538, -973, -459, 27, 35, 31, 26, 51, 40, 28, 31
264151928, 13100, 1687, -8016, -5453, 1460, 1798, -678, 538, -973, -459, 27, 35, 31, 26, 51, 40, 28, 31
264152837, 12860, 1832, -8343, -5486, 1445, 1802, -709, 655, -1227, -500, 27, 35, 31, 26, 51, 40, 28, 31
264166915, 12860, 1832, -8343, -5486, 1445, 1802, -709, 655, -1227, -500, 24, 32, 36, 29, 53, 38, 28, 28
264167704, 12860, 1832, -8343, -5486, 1445, 1802, -709, 655, -1227, -500, 24, 32, 36, 29, 53, 38, 28, 28
264173854, 12582, 1986, -8707, -5511, 1444, 1832, -719, 832, -1505, -539, 24, 32, 36, 29, 53, 38, 28, 28
264181918, 12582, 1986, -8707, -5511, 1444, 1832, -719, 832, -1505, -539, 26, 32, 41, 29, 53, 34, 26, 32
264182723, 12582, 1986, -8707, -5511, 1444, 1832, -719, 832, -1505, -539, 26, 32, 41, 29, 53, 34, 26, 32
264188912, 12327, 2087, -9026, -5536, 1488, 1881, -749, 988, -1810, -599, 26, 32, 41, 29, 53, 34, 26, 32
264212602, 12327, 2087, -9026, -5536, 1488, 1881, -749, 988, -1810, -599, 27, 30, 43, 32, 51, 33, 28, 33
264213385, 12327, 2087, -9026, -5536, 1488, 1881, -749, 988, -1810, -599, 27, 30, 43, 32, 51, 33, 28, 33
264214328, 12035, 2195, -9376, -5556, 1557, 1900, -738, 1122, -2046, -652, 27, 30, 43, 32, 51, 33, 28, 33
264226939, 12035, 2195, -9376, -5556, 1557, 1900, -738, 1122, -2046, -652, 26, 43, 42, 40, 50, 31, 30, 32
264227731, 12035, 2195, -9376, -5556, 1557, 1900, -738, 1122, -2046, -652, 26, 43, 42, 40, 50, 31, 30, 32
264233887, 11709, 2309, -9745, -5570, 1610, 1935, -811, 1235, -2220, -699, 26, 43, 42, 40, 50, 31, 30, 32
264241880, 11709, 2309, -9745, -5570, 1610, 1935, -811, 1235, -2220, -699, 26, 41, 44, 53, 46, 37, 29, 33
264242690, 11709, 2309, -9745, -5570, 1610, 1935, -811, 1235, -2220, -699, 26, 41, 44, 53, 46, 37, 29, 33
264248897, 11349, 2433, -10129, -5579, 1667, 1977, -867, 1356, -2374, -778, 26, 41, 44, 53, 46, 37, 29, 33
264264451, 11349, 2433, -10129, -5579, 1667, 1977, -867, 1356, -2374, -778, 27, 44, 41, 61, 48, 41, 29, 31
264265368, 11349, 2433, -10129, -5579, 1667, 1977, -867, 1356, -2374, -778, 27, 44, 41, 61, 48, 41, 29, 31
264271385, 10954, 2566, -10519, -5586, 1727, 2053, -919, 1448, -2510, -857, 27, 44, 41, 61, 48, 41, 29, 31
264286911, 10954, 2566, -10519, -5586, 1727, 2053, -919, 1448, -2510, -857, 26, 48, 39, 67, 50, 42, 36, 29
264287709, 10954, 2566, -10519, -5586, 1727, 2053, -919, 1448, -2510, -857, 26, 48, 39, 67, 50, 42, 36, 29
264293889, 10534, 2707, -10903, -5590, 1820, 2080, -919, 1515, -2573, -944, 26, 48, 39, 67, 50, 42, 36, 29
264301911, 10534, 2707, -10903, -5590, 1820, 2080, -919, 1515, -2573, -944, 24, 57, 39, 76, 60, 43, 36, 29
264302726, 10534, 2707, -10903, -5590, 1820, 2080, -919, 1515, -2573, -944, 24, 57, 39, 76, 60, 43, 36, 29
264308937, 10103, 2854, -11273, -5582, 1835, 2116, -925, 1580, -2560, -964, 24, 57, 39, 76, 60, 43, 36, 29
264324438, 10103, 2854, -11273, -5582, 1835, 2116, -925, 1580, -2560, -964, 24, 51, 46, 81, 72, 46, 40, 30
264325230, 10103, 2854, -11273, -5582, 1835, 2116, -925, 1580, -2560, -964, 24, 51, 46, 81, 72, 46, 40, 30
264331383, 9678, 2989, -11616, -5559, 1888, 2152, -926, 1555, -2471, -886, 24, 51, 46, 81, 72, 46, 40, 30
264346923, 9678, 2989, -11616, -5559, 1888, 2152, -926, 1555, -2471, -886, 27, 52, 46, 111, 74, 46, 41, 27
264347725, 9678, 2989, -11616, -5559, 1888, 2152, -926, 1555, -2471, -886, 27, 52, 46, 111, 74, 46, 41, 27
264353874, 9258, 3125, -11940, -5513, 1953, 2257, -994, 1623, -2374, -831, 27, 52, 46, 111, 74, 46, 41, 27
264361926, 9258, 3125, -11940, -5513, 1953, 2257, -994, 1623, -2374, -831, 31, 61, 47, 154, 80, 41, 49, 27
264362707, 9258, 3125, -11940, -5513, 1953, 2257, -994, 1623, -2374, -831, 31, 61, 47, 154, 80, 41, 49, 27
264368879, 8827, 3261, -12250, -5463, 1975, 2282, -1122, 1631, -2382, -859, 31, 61, 47, 154, 80, 41, 49, 27
264384414, 8827, 3261, -12250, -5463, 1975, 2282, -1122, 1631, -2382, -859, 32, 67, 47, 180, 86, 43, 46, 30
264385226, 8827, 3261, -12250, -5463, 1975, 2282, -1122, 1631, -2382, -859, 32, 67, 47, 180, 86, 43, 46, 30
264391390, 8406, 3393, -12528, -5414, 1992, 2351, -1135, 1561, -2270, -867, 32, 67, 47, 180, 86, 43, 46, 30
