Timestamp, Orientation x, Orientation y, Orientation z, Orientation w, Acceleration x, Acceleration y, Acceleration z, Rotation x, Rotation y, Rotation z, EMG 0, EMG 1, EMG 2, EMG 3, EMG 4, EMG 5, EMG 6, EMG 7
156321877, -665, -5175, -15161, -3375, 136, 1029, -2406, 32, -14, -7, 0, 0, 0, 0, 0, 0, 0, 0
156329380, -662, -5176, -15163, -3365, 140, 1052, -2407, 51, 0, 5, 0, 0, 0, 0, 0, 0, 0, 0
156344388, -662, -5176, -15163, -3364, 132, 1040, -2405, 2, -13, -3, 0, 0, 0, 0, 0, 0, 0, 0
156366878, -696, -5174, -15162, -3363, 112, 964, -2414, -114, -169, -50, 0, 0, 0, 0, 0, 0, 0, 0
156390721, -766, -5176, -15161, -3350, 76, 959, -2264, -85, -370, -67, 0, 0, 0, 0, 0, 0, 0, 0
156391538, -766, -5176, -15161, -3350, 76, 959, -2264, -85, -370, -67, 607, 450, 563, 809, 333, 132, 68, 180
156392337, -766, -5176, -15161, -3350, 76, 959, -2264, -85, -370, -67, 607, 450, 563, 809, 333, 132, 68, 180
156413216, -850, -5155, -15158, -3375, 154, 804, -2178, -380, -407, -216, 607, 450, 563, 809, 333, 132, 68, 180
156414030, -850, -5155, -15158, -3375, 154, 804, -2178, -380, -407, -216, 716, 568, 774, 925, 559, 283, 145, 238
156414815, -850, -5155, -15158, -3375, 154, 804, -2178, -380, -407, -216, 716, 568, 774, 925, 559, 283, 145, 238
156426862, -950, -5099, -15162, -3415, 122, 861, -2377, -518, -413, -415, 716, 568, 774, 925, 559, 283, 145, 238
156435003, -950, -5099, -15162, -3415, 122, 861, -2377, -518, -413, -415, 721, 579, 915, 1118, 694, 438, 208, 252
156435838, -950, -5099, -15162, -3415, 122, 861, -2377, -518, -413, -415, 721, 579, 915, 1118, 694, 438, 208, 252
156450693, -1072, -5027, -15170, -3451, -26, 977, -2253, -460, -462, -511, 721, 579, 915, 1118, 694, 438, 208, 252
156451532, -1072, -5027, -15170, -3451, -26, 977, -2253, -460, -462, -511, 762, 650, 997, 1233, 859, 534, 253, 265
156452320, -1072, -5027, -15170, -3451, -26, 977, -2253, -460, -462, -511, 762, 650, 997, 1233, 859, 534, 253, 265
156473216, -1212, -4985, -15155, -3530, 86, 1418, -2225, -528, -595, -353, 762, 650, 997, 1233, 859, 534, 253, 265
156474032, -1212, -4985, -15155, -3530, 86, 1418, -2225, -528, -595, -353, 777, 665, 1035, 1287, 922, 586, 273, 274
156474830, -1212, -4985, -15155, -3530, 86, 1418, -2225, -528, -595, -353, 777, 665, 1035, 1287, 922, 586, 273, 274
156486865, -1294, -4951, -15127, -3668, 205, 1502, -2295, -746, -279, -232, 777, 665, 1035, 1287, 922, 586, 273, 274
156494996, -1294, -4951, -15127, -3668, 205, 1502, -2295, -746, -279, -232, 578, 559, 1063, 1299, 897, 584, 275, 229
156495824, -1294, -4951, -15127, -3668, 205, 1502, -2295, -746, -279, -232, 578, 559, 1063, 1299, 897, 584, 275, 229
156510716, -1381, -4953, -15084, -3806, -35, 1245, -2226, -897, -241, 34, 578, 559, 1063, 1299, 897, 584, 275, 229
156511560, -1381, -4953, -15084, -3806, -35, 1245, -2226, -897, -241, 34, 525, 490, 997, 1362, 863, 538, 255, 185
156512424, -1381, -4953, -15084, -3806, -35, 1245, -2226, -897, -241, 34, 525, 490, 997, 1362, 863, 538, 255, 185
156533198, -1413, -5017, -15043, -3872, 112, 1113, -1993, -418, -221, 350, 525, 490, 997, 1362, 863, 538, 255, 185
156534031, -1413, -5017, -15043, -3872, 112, 1113, -1993, -418, -221, 350, 777, 698, 985, 1306, 864, 514, 257, 220
156534816, -1413, -5017, -15043, -3872, 112, 1113, -1993, -418, -221, 350, 777, 698, 985, 1306, 864, 514, 257, 220
156546849, -1374, -5069, -15026, -3884, 249, 837, -2321, -214, 14, 282, 777, 698, 985, 1306, 864, 514, 257, 220
156554973, -1374, -5069, -15026, -3884, 249, 837, -2321, -214, 14, 282, 794, 698, 984, 1238, 754, 457, 243, 224
156555748, -1374, -5069, -15026, -3884, 249, 837, -2321, -214, 14, 282, 794, 698, 984, 1238, 754, 457, 243, 224
156570666, -1368, -5075, -15012, -3934, 21, 1166, -2342, -335, 84, 78, 794, 698, 984, 1238, 754, 457, 243, 224
156571469, -1368, -5075, -15012, -3934, 21, 1166, -2342, -335, 84, 78, 741, 699, 914, 1146, 666, 391, 224, 211
156572287, -1368, -5075, -15012, -3934, 21, 1166, -2342, -335, 84, 78, 741, 699, 914, 1146, 666, 391, 224, 211
156593219, -1385, -5060, -14990, -4032, 65, 777, -2360, -854, 57, -36, 741, 699, 914, 1146, 666, 391, 224, 211
156594014, -1385, -5060, -14990, -4032, 65, 777, -2360, -854, 57, -36, 760, 726, 863, 1080, 705, 410, 241, 216
156594856, -1385, -5060, -14990, -4032, 65, 777, -2360, -854, 57, -36, 760, 726, 863, 1080, 705, 410, 241, 216
156606867, -1393, -5065, -14980, -4058, 143, 627, -2291, -502, -81, 4, 760, 726, 863, 1080, 705, 410, 241, 216
156615005, -1393, -5065, -14980, -4058, 143, 627, -2291, -502, -81, 4, 822, 816, 975, 1096, 739, 484, 290, 271
156615789, -1393, -5065, -14980, -4058, 143, 627, -2291, -502, -81, 4, 822, 816, 975, 1096, 739, 484, 290, 271
156630681, -1341, -5112, -14988, -3988, 196, 670, -2187, 205, -7, 211, 822, 816, 975, 1096, 739, 484, 290, 271
156631496, -1341, -5112, -14988, -3988, 196, 670, -2187, 205, -7, 211, 681, 724, 965, 1100, 718, 515, 327, 287
156632335, -1341, -5112, -14988, -3988, 196, 670, -2187, 205, -7, 211, 681, 724, 965, 1100, 718, 515, 327, 287
156653194, -1289, -5132, -15010, -3894, 120, 947, -2233, 475, 31, 63, 681, 724, 965, 1100, 718, 515, 327, 287
156654025, -1289, -5132, -15010, -3894, 120, 947, -2233, 475, 31, 63, 643, 791, 998, 1151, 688, 503, 329, 293
156654843, -1289, -5132, -15010, -3894, 120, 947, -2233, 475, 31, 63, 643, 791, 998, 1151, 688, 503, 329, 293
156666874, -1286, -5126, -15016, -3881, 26, 1192, -2247, 52, -6, -51, 643, 791, 998, 1151, 688, 503, 329, 293
156674989, -1286, -5126, -15016, -3881, 26, 1192, -2247, 52, -6, -51, 701, 838, 1075, 1241, 841, 634, 381, 309
156675789, -1286, -5126, -15016, -3881, 26, 1192, -2247, 52, -6, -51, 701, 838, 1075, 1241, 841, 634, 381, 309
156690719, -1272, -5132, -15017, -3872, 138, 968, -2146, -29, -11, 13, 701, 838, 1075, 1241, 841, 634, 381, 309
156691499, -1272, -5132, -15017, -3872, 138, 968, -2146, -29, -11, 13, 687, 804, 1093, 1192, 827, 622, 375, 303
156692345, -1272, -5132, -15017, -3872, 138, 968, -2146, -29, -11, 13, 687, 804, 1093, 1192, 827, 622, 375, 303
156713185, -1245, -5122, -15030, -3842, 110, 1076, -2191, 157, 59, -77, 687, 804, 1093, 1192, 827, 622, 375, 303
156713994, -1245, -5122, -15030, -3842, 110, 1076, -2191, 157, 59, -77, 599, 713, 960, 1038, 725, 575, 336, 249
156714790, -1245, -5122, -15030, -3842, 110, 1076, -2191, 157, 59, -77, 599, 713, 960, 1038, 725, 575, 336, 249
156726823, -1226, -5100, -15047, -3811, 80, 997, -2229, 108, 51, -151, 599, 713, 960, 1038, 725, 575, 336, 249
156735013, -1226, -5100, -15047, -3811, 80, 997, -2229, 108, 51, -151, 627, 745, 1001, 1040, 693, 503, 286, 216
156735789, -1226, -5100, -15047, -3811, 80, 997, -2229, 108, 51, -151, 627, 745, 1001, 1040, 693, 503, 286, 216
156750694, -1199, -5088, -15057, -3796, 101, 1227, -2175, 163, 93, -68, 627, 745, 1001, 1040, 693, 503, 286, 216
156751521, -1199, -5088, -15057, -3796, 101, 1227, -2175, 163, 93, -68, 615, 633, 888, 887, 746, 547, 275, 192
156752319, -1199, -5088, -15057, -3796, 101, 1227, -2175, 163, 93, -68, 615, 633, 888, 887, 746, 547, 275, 192
156764356, -1155, -5077, -15066, -3789, 137, 1255, -2214, 161, 178, -45, 615, 633, 888, 887, 746, 547, 275, 192
156772509, -1155, -5077, -15066, -3789, 137, 1255, -2214, 161, 178, -45, 555, 566, 792, 777, 609, 403, 195, 171
156773311, -1155, -5077, -15066, -3789, 137, 1255, -2214, 161, 178, -45, 555, 566, 792, 777, 609, 403, 195, 171
156786883, -1109, -5058, -15073, -3802, 122, 1191, -2268, 5, 251, -64, 555, 566, 792, 777, 609, 403, 195, 171
156802523, -1109, -5058, -15073, -3802, 122, 1191, -2268, 5, 251, -64, 538, 611, 734, 744, 600, 463, 177, 159
156803336, -1109, -5058, -15073, -3802, 122, 1191, -2268, 5, 251, -64, 538, 611, 734, 744, 600, 463, 177, 159
156811453, -1047, -5021, -15083, -3827, 140, 1087, -2247, -74, 377, -142, 538, 611, 734, 744, 600, 463, 177, 159
156812263, -1047, -5021, -15083, -3827, 140, 1087, -2247, -74, 377, -142, 471, 591, 747, 719, 627, 579, 180, 155
156813091, -1047, -5021, -15083, -3827, 140, 1087, -2247, -74, 377, -142, 471, 591, 747, 719, 627, 579, 180, 155
156813888, -1047, -5021, -15083, -3827, 140, 1087, -2247, -74, 377, -142, 471, 591, 747, 719, 627, 579, 180, 155
156817940, -1047, -5021, -15083, -3827, 140, 1087, -2247, -74, 377, -142, 471, 591, 747, 719, 627, 579, 180, 155
156818739, -1047, -5021, -15083, -3827, 140, 1087, -2247, -74, 377, -142, 471, 591, 747, 719, 627, 579, 180, 155
156824293, -1047, -5021, -15083, -3827, 140, 1087, -2247, -74, 377, -142, 471, 591, 747, 719, 627, 579, 180, 155
156834667, -945, -4985, -15107, -3809, 151, 1041, -2294, 206, 517, -117, 471, 591, 747, 719, 627, 579, 180, 155
156835445, -945, -4985, -15107, -3809, 151, 1041, -2294, 206, 517, -117, 341, 544, 634, 567, 717, 646, 161, 154
156836239, -945, -4985, -15107, -3809, 151, 1041, -2294, 206, 517, -117, 341, 544, 634, 567, 717, 646, 161, 154
156837105, -945, -4985, -15107, -3809, 151, 1041, -2294, 206, 517, -117, 341, 544, 634, 567, 717, 646, 161, 154
156841939, -945, -4985, -15107, -3809, 151, 1041, -2294, 206, 517, -117, 341, 544, 634, 567, 717, 646, 161, 154
156842772, -945, -4985, -15107, -3809, 151, 1041, -2294, 206, 517, -117, 341, 544, 634, 567, 717, 646, 161, 154
156843603, -945, -4985, -15107, -3809, 151, 1041, -2294, 206, 517, -117, 341, 544, 634, 567, 717, 646, 161, 154
156844390, -945, -4985, -15107, -3809, 151, 1041, -2294, 206, 517, -117, 341, 544, 634, 567, 717, 646, 161, 154
156847518, -945, -4985, -15107, -3809, 151, 1041, -2294, 206, 517, -117, 341, 544, 634, 567, 717, 646, 161, 154
156848438, -825, -4983, -15125, -3767, 93, 1218, -2396, 440, 572, 104, 341, 544, 634, 567, 717, 646, 161, 154
156857129, -825, -4983, -15125, -3767, 93, 1218, -2396, 440, 572, 104, 387, 709, 660, 519, 705, 633, 163, 173
156857912, -825, -4983, -15125, -3767, 93, 1218, -2396, 440, 572, 104, 387, 709, 660, 519, 705, 633, 163, 173
156858726, -825, -4983, -15125, -3767, 93, 1218, -2396, 440, 572, 104, 387, 709, 660, 519, 705, 633, 163, 173
156859516, -825, -4983, -15125, -3767, 93, 1218, -2396, 440, 572, 104, 387, 709, 660, 519, 705, 633, 163, 173
156862304, -825, -4983, -15125, -3767, 93, 1218, -2396, 440, 572, 104, 387, 709, 660, 519, 705, 633, 163, 173
156871988, -825, -4983, -15125, -3767, 93, 1218, -2396, 440, 572, 104, 387, 709, 660, 519, 705, 633, 163, 173
156872817, -825, -4983, -15125, -3767, 93, 1218, -2396, 440, 572, 104, 387, 709, 660, 519, 705, 633, 163, 173
156873704, -825, -4983, -15125, -3767, 93, 1218, -2396, 440, 572, 104, 387, 709, 660, 519, 705, 633, 163, 173
156874567, -755, -5000, -15126, -3753, 28, 1161, -2475, 151, 378, 205, 387, 709, 660, 519, 705, 633, 163, 173
156879567, -755, -5000, -15126, -3753, 28, 1161, -2475, 151, 378, 205, 485, 924, 748, 466, 711, 626, 185, 208
156880370, -755, -5000, -15126, -3753, 28, 1161, -2475, 151, 378, 205, 485, 924, 748, 466, 711, 626, 185, 208
156881216, -755, -5000, -15126, -3753, 28, 1161, -2475, 151, 378, 205, 485, 924, 748, 466, 711, 626, 185, 208
156881989, -755, -5000, -15126, -3753, 28, 1161, -2475, 151, 378, 205, 485, 924, 748, 466, 711, 626, 185, 208
156886968, -755, -5000, -15126, -3753, 28, 1161, -2475, 151, 378, 205, 485, 924, 748, 466, 711, 626, 185, 208
156887764, -755, -5000, -15126, -3753, 28, 1161, -2475, 151, 378, 205, 485, 924, 748, 466, 711, 626, 185, 208
156888593, -755, -5000, -15126, -3753, 28, 1161, -2475, 151, 378, 205, 485, 924, 748, 466, 711, 626, 185, 208
156889391, -755, -5000, -15126, -3753, 28, 1161, -2475, 151, 378, 205, 485, 924, 748, 466, 711, 626, 185, 208
156894471, -755, -5000, -15126, -3753, 28, 1161, -2475, 151, 378, 205, 485, 924, 748, 466, 711, 626, 185, 208
156895392, -706, -5050, -15116, -3735, 19, 1175, -2441, 152, 226, 364, 485, 924, 748, 466, 711, 626, 185, 208
156896223, -706, -5050, -15116, -3735, 19, 1175, -2441, 152, 226, 364, 519, 972, 742, 465, 833, 672, 186, 216
156897014, -706, -5050, -15116, -3735, 19, 1175, -2441, 152, 226, 364, 519, 972, 742, 465, 833, 672, 186, 216
156902040, -706, -5050, -15116, -3735, 19, 1175, -2441, 152, 226, 364, 519, 972, 742, 465, 833, 672, 186, 216
156902838, -706, -5050, -15116, -3735, 19, 1175, -2441, 152, 226, 364, 519, 972, 742, 465, 833, 672, 186, 216
156903675, -706, -5050, -15116, -3735, 19, 1175, -2441, 152, 226, 364, 519, 972, 742, 465, 833, 672, 186, 216
156904468, -706, -5050, -15116, -3735, 19, 1175, -2441, 152, 226, 364, 519, 972, 742, 465, 833, 672, 186, 216
156909518, -706, -5050, -15116, -3735, 19, 1175, -2441, 152, 226, 364, 519, 972, 742, 465, 833, 672, 186, 216
156910289, -706, -5050, -15116, -3735, 19, 1175, -2441, 152, 226, 364, 519, 972, 742, 465, 833, 672, 186, 216
156911141, -706, -5050, -15116, -3735, 19, 1175, -2441, 152, 226, 364, 519, 972, 742, 465, 833, 672, 186, 216
156911926, -706, -5050, -15116, -3735, 19, 1175, -2441, 152, 226, 364, 519, 972, 742, 465, 833, 672, 186, 216
156917012, -706, -5050, -15116, -3735, 19, 1175, -2441, 152, 226, 364, 519, 972, 742, 465, 833, 672, 186, 216
156917915, -613, -5142, -15111, -3646, 182, 683, -2095, 473, 198, 567, 519, 972, 742, 465, 833, 672, 186, 216
156918779, -613, -5142, -15111, -3646, 182, 683, -2095, 473, 198, 567, 557, 1072, 783, 443, 815, 582, 182, 230
156919567, -613, -5142, -15111, -3646, 182, 683, -2095, 473, 198, 567, 557, 1072, 783, 443, 815, 582, 182, 230
156932105, -613, -5142, -15111, -3646, 182, 683, -2095, 473, 198, 567, 557, 1072, 783, 443, 815, 582, 182, 230
156932886, -613, -5142, -15111, -3646, 182, 683, -2095, 473, 198, 567, 557, 1072, 783, 443, 815, 582, 182, 230
156933712, -613, -5142, -15111, -3646, 182, 683, -2095, 473, 198, 567, 557, 1072, 783, 443, 815, 582, 182, 230
156934517, -613, -5142, -15111, -3646, 182, 683, -2095, 473, 198, 567, 557, 1072, 783, 443, 815, 582, 182, 230
156939505, -613, -5142, -15111, -3646, 182, 683, -2095, 473, 198, 567, 557, 1072, 783, 443, 815, 582, 182, 230
156940264, -613, -5142, -15111, -3646, 182, 683, -2095, 473, 198, 567, 557, 1072, 783, 443, 815, 582, 182, 230
156941129, -613, -5142, -15111, -3646, 182, 683, -2095, 473, 198, 567, 557, 1072, 783, 443, 815, 582, 182, 230
156941883, -613, -5142, -15111, -3646, 182, 683, -2095, 473, 198, 567, 557, 1072, 783, 443, 815, 582, 182, 230
156946991, -613, -5142, -15111, -3646, 182, 683, -2095, 473, 198, 567, 557, 1072, 783, 443, 815, 582, 182, 230
156947916, -556, -5252, -15116, -3476, 124, 668, -1946, 898, -125, 589, 557, 1072, 783, 443, 815, 582, 182, 230
156948704, -556, -5252, -15116, -3476, 124, 668, -1946, 898, -125, 589, 554, 1060, 825, 398, 756, 560, 175, 224
156949518, -556, -5252, -15116, -3476, 124, 668, -1946, 898, -125, 589, 554, 1060, 825, 398, 756, 560, 175, 224
156954525, -556, -5252, -15116, -3476, 124, 668, -1946, 898, -125, 589, 554, 1060, 825, 398, 756, 560, 175, 224
156955321, -556, -5252, -15116, -3476, 124, 668, -1946, 898, -125, 589, 554, 1060, 825, 398, 756, 560, 175, 224
156956159, -556, -5252, -15116, -3476, 124, 668, -1946, 898, -125, 589, 554, 1060, 825, 398, 756, 560, 175, 224
156956981, -556, -5252, -15116, -3476, 124, 668, -1946, 898, -125, 589, 554, 1060, 825, 398, 756, 560, 175, 224
156961026, -556, -5252, -15116, -3476, 124, 668, -1946, 898, -125, 589, 554, 1060, 825, 398, 756, 560, 175, 224
156961870, -556, -5252, -15116, -3476, 124, 668, -1946, 898, -125, 589, 554, 1060, 825, 398, 756, 560, 175, 224
156962664, -556, -5252, -15116, -3476, 124, 668, -1946, 898, -125, 589, 554, 1060, 825, 398, 756, 560, 175, 224
156969505, -556, -5252, -15116, -3476, 124, 668, -1946, 898, -125, 589, 554, 1060, 825, 398, 756, 560, 175, 224
156970315, -556, -5252, -15116, -3476, 124, 668, -1946, 898, -125, 589, 554, 1060, 825, 398, 756, 560, 175, 224
156971274, -407, -5335, -15145, -3233, 492, 622, -2171, 1433, 92, 431, 554, 1060, 825, 398, 756, 560, 175, 224
156972065, -407, -5335, -15145, -3233, 492, 622, -2171, 1433, 92, 431, 632, 1057, 909, 415, 748, 539, 177, 262
156977093, -407, -5335, -15145, -3233, 492, 622, -2171, 1433, 92, 431, 632, 1057, 909, 415, 748, 539, 177, 262
156977889, -407, -5335, -15145, -3233, 492, 622, -2171, 1433, 92, 431, 632, 1057, 909, 415, 748, 539, 177, 262
156978692, -407, -5335, -15145, -3233, 492, 622, -2171, 1433, 92, 431, 632, 1057, 909, 415, 748, 539, 177, 262
156979539, -407, -5335, -15145, -3233, 492, 622, -2171, 1433, 92, 431, 632, 1057, 909, 415, 748, 539, 177, 262
156984464, -407, -5335, -15145, -3233, 492, 622, -2171, 1433, 92, 431, 632, 1057, 909, 415, 748, 539, 177, 262
156985330, -407, -5335, -15145, -3233, 492, 622, -2171, 1433, 92, 431, 632, 1057, 909, 415, 748, 539, 177, 262
156986111, -407, -5335, -15145, -3233, 492, 622, -2171, 1433, 92, 431, 632, 1057, 909, 415, 748, 539, 177, 262
156986937, -407, -5335, -15145, -3233, 492, 622, -2171, 1433, 92, 431, 632, 1057, 909, 415, 748, 539, 177, 262
156991964, -407, -5335, -15145, -3233, 492, 622, -2171, 1433, 92, 431, 632, 1057, 909, 415, 748, 539, 177, 262
156992958, -223, -5327, -15202, -2989, -187, 1320, -2748, 1698, 578, 49, 632, 1057, 909, 415, 748, 539, 177, 262
156993740, -223, -5327, -15202, -2989, -187, 1320, -2748, 1698, 578, 49, 576, 941, 850, 395, 758, 608, 165, 249
156994557, -223, -5327, -15202, -2989, -187, 1320, -2748, 1698, 578, 49, 576, 941, 850, 395, 758, 608, 165, 249
156999540, -223, -5327, -15202, -2989, -187, 1320, -2748, 1698, 578, 49, 576, 941, 850, 395, 758, 608, 165, 249
157000398, -223, -5327, -15202, -2989, -187, 1320, -2748, 1698, 578, 49, 576, 941, 850, 395, 758, 608, 165, 249
157001169, -223, -5327, -15202, -2989, -187, 1320, -2748, 1698, 578, 49, 576, 941, 850, 395, 758, 608, 165, 249
157002031, -223, -5327, -15202, -2989, -187, 1320, -2748, 1698, 578, 49, 576, 941, 850, 395, 758, 608, 165, 249
157006939, -223, -5327, -15202, -2989, -187, 1320, -2748, 1698, 578, 49, 576, 941, 850, 395, 758, 608, 165, 249
157007791, -223, -5327, -15202, -2989, -187, 1320, -2748, 1698, 578, 49, 576, 941, 850, 395, 758, 608, 165, 249
157008567, -223, -5327, -15202, -2989, -187, 1320, -2748, 1698, 578, 49, 576, 941, 850, 395, 758, 608, 165, 249
157009413, -223, -5327, -15202, -2989, -187, 1320, -2748, 1698, 578, 49, 576, 941, 850, 395, 758, 608, 165, 249
157014464, -223, -5327, -15202, -2989, -187, 1320, -2748, 1698, 578, 49, 576, 941, 850, 395, 758, 608, 165, 249
157015407, -253, -5281, -15203, -3060, -263, 1386, -2724, -252, 296, -146, 576, 941, 850, 395, 758, 608, 165, 249
157016215, -253, -5281, -15203, -3060, -263, 1386, -2724, -252, 296, -146, 603, 906, 902, 368, 666, 501, 193, 278
157017043, -253, -5281, -15203, -3060, -263, 1386, -2724, -252, 296, -146, 603, 906, 902, 368, 666, 501, 193, 278
157022039, -253, -5281, -15203, -3060, -263, 1386, -2724, -252, 296, -146, 603, 906, 902, 368, 666, 501, 193, 278
157022842, -253, -5281, -15203, -3060, -263, 1386, -2724, -252, 296, -146, 603, 906, 902, 368, 666, 501, 193, 278
157023701, -253, -5281, -15203, -3060, -263, 1386, -2724, -252, 296, -146, 603, 906, 902, 368, 666, 501, 193, 278
157024468, -253, -5281, -15203, -3060, -263, 1386, -2724, -252, 296, -146, 603, 906, 902, 368, 666, 501, 193, 278
157029490, -253, -5281, -15203, -3060, -263, 1386, -2724, -252, 296, -146, 603, 906, 902, 368, 666, 501, 193, 278
157030275, -253, -5281, -15203, -3060, -263, 1386, -2724, -252, 296, -146, 603, 906, 902, 368, 666, 501, 193, 278
157031100, -253, -5281, -15203, -3060, -263, 1386, -2724, -252, 296, -146, 603, 906, 902, 368, 666, 501, 193, 278
157031891, -253, -5281, -15203, -3060, -263, 1386, -2724, -252, 296, -146, 603, 906, 902, 368, 666, 501, 193, 278
157036991, -253, -5281, -15203, -3060, -263, 1386, -2724, -252, 296, -146, 603, 906, 902, 368, 666, 501, 193, 278
157037971, -321, -5278, -15169, -3223, 329, 899, -2448, -1055, -105, -33, 603, 906, 902, 368, 666, 501, 193, 278
157038739, -321, -5278, -15169, -3223, 329, 899, -2448, -1055, -105, -33, 573, 807, 837, 367, 689, 481, 187, 267
157039594, -321, -5278, -15169, -3223, 329, 899, -2448, -1055, -105, -33, 573, 807, 837, 367, 689, 481, 187, 267
157044564, -321, -5278, -15169, -3223, 329, 899, -2448, -1055, -105, -33, 573, 807, 837, 367, 689, 481, 187, 267
157045429, -321, -5278, -15169, -3223, 329, 899, -2448, -1055, -105, -33, 573, 807, 837, 367, 689, 481, 187, 267
157046189, -321, -5278, -15169, -3223, 329, 899, -2448, -1055, -105, -33, 573, 807, 837, 367, 689, 481, 187, 267
157047054, -321, -5278, -15169, -3223, 329, 899, -2448, -1055, -105, -33, 573, 807, 837, 367, 689, 481, 187, 267
157051967, -321, -5278, -15169, -3223, 329, 899, -2448, -1055, -105, -33, 573, 807, 837, 367, 689, 481, 187, 267
157052756, -321, -5278, -15169, -3223, 329, 899, -2448, -1055, -105, -33, 573, 807, 837, 367, 689, 481, 187, 267
157053654, -321, -5278, -15169, -3223, 329, 899, -2448, -1055, -105, -33, 573, 807, 837, 367, 689, 481, 187, 267
157054317, -321, -5278, -15169, -3223, 329, 899, -2448, -1055, -105, -33, 573, 807, 837, 367, 689, 481, 187, 267
157059464, -321, -5278, -15169, -3223, 329, 899, -2448, -1055, -105, -33, 573, 807, 837, 367, 689, 481, 187, 267
157060440, -340, -5295, -15155, -3259, 357, 577, -2354, -439, -121, 52, 573, 807, 837, 367, 689, 481, 187, 267
157061214, -340, -5295, -15155, -3259, 357, 577, -2354, -439, -121, 52, 544, 807, 817, 329, 651, 373, 172, 252
157062069, -340, -5295, -15155, -3259, 357, 577, -2354, -439, -121, 52, 544, 807, 817, 329, 651, 373, 172, 252
157067045, -340, -5295, -15155, -3259, 357, 577, -2354, -439, -121, 52, 544, 807, 817, 329, 651, 373, 172, 252
157067866, -340, -5295, -15155, -3259, 357, 577, -2354, -439, -121, 52, 544, 807, 817, 329, 651, 373, 172, 252
157068707, -340, -5295, -15155, -3259, 357, 577, -2354, -439, -121, 52, 544, 807, 817, 329, 651, 373, 172, 252
157069532, -340, -5295, -15155, -3259, 357, 577, -2354, -439, -121, 52, 544, 807, 817, 329, 651, 373, 172, 252
157074461, -340, -5295, -15155, -3259, 357, 577, -2354, -439, -121, 52, 544, 807, 817, 329, 651, 373, 172, 252
157075280, -340, -5295, -15155, -3259, 357, 577, -2354, -439, -121, 52, 544, 807, 817, 329, 651, 373, 172, 252
157076067, -340, -5295, -15155, -3259, 357, 577, -2354, -439, -121, 52, 544, 807, 817, 329, 651, 373, 172, 252
157076901, -340, -5295, -15155, -3259, 357, 577, -2354, -439, -121, 52, 544, 807, 817, 329, 651, 373, 172, 252
157081941, -340, -5295, -15155, -3259, 357, 577, -2354, -439, -121, 52, 544, 807, 817, 329, 651, 373, 172, 252
157082882, -331, -5294, -15173, -3179, 140, 958, -2373, 451, -53, -20, 544, 807, 817, 329, 651, 373, 172, 252
157083665, -331, -5294, -15173, -3179, 140, 958, -2373, 451, -53, -20, 386, 659, 666, 281, 629, 336, 143, 195
157084492, -331, -5294, -15173, -3179, 140, 958, -2373, 451, -53, -20, 386, 659, 666, 281, 629, 336, 143, 195
157089513, -331, -5294, -15173, -3179, 140, 958, -2373, 451, -53, -20, 386, 659, 666, 281, 629, 336, 143, 195
157090378, -331, -5294, -15173, -3179, 140, 958, -2373, 451, -53, -20, 386, 659, 666, 281, 629, 336, 143, 195
157091140, -331, -5294, -15173, -3179, 140, 958, -2373, 451, -53, -20, 386, 659, 666, 281, 629, 336, 143, 195
157091990, -331, -5294, -15173, -3179, 140, 958, -2373, 451, -53, -20, 386, 659, 666, 281, 629, 336, 143, 195
157096964, -331, -5294, -15173, -3179, 140, 958, -2373, 451, -53, -20, 386, 659, 666, 281, 629, 336, 143, 195
157097780, -331, -5294, -15173, -3179, 140, 958, -2373, 451, -53, -20, 386, 659, 666, 281, 629, 336, 143, 195
157098639, -331, -5294, -15173, -3179, 140, 958, -2373, 451, -53, -20, 386, 659, 666, 281, 629, 336, 143, 195
157099341, -331, -5294, -15173, -3179, 140, 958, -2373, 451, -53, -20, 386, 659, 666, 281, 629, 336, 143, 195
157104482, -331, -5294, -15173, -3179, 140, 958, -2373, 451, -53, -20, 386, 659, 666, 281, 629, 336, 143, 195
157105391, -364, -5276, -15179, -3176, 102, 1354, -2355, 166, -96, -103, 386, 659, 666, 281, 629, 336, 143, 195
157106213, -364, -5276, -15179, -3176, 102, 1354, -2355, 166, -96, -103, 339, 558, 656, 262, 589, 198, 130, 175
157107013, -364, -5276, -15179, -3176, 102, 1354, -2355, 166, -96, -103, 339, 558, 656, 262, 589, 198, 130, 175
157112063, -364, -5276, -15179, -3176, 102, 1354, -2355, 166, -96, -103, 339, 558, 656, 262, 589, 198, 130, 175
157112902, -364, -5276, -15179, -3176, 102, 1354, -2355, 166, -96, -103, 339, 558, 656, 262, 589, 198, 130, 175
157113689, -364, -5276, -15179, -3176, 102, 1354, -2355, 166, -96, -103, 339, 558, 656, 262, 589, 198, 130, 175
157114489, -364, -5276, -15179, -3176, 102, 1354, -2355, 166, -96, -103, 339, 558, 656, 262, 589, 198, 130, 175
157119437, -364, -5276, -15179, -3176, 102, 1354, -2355, 166, -96, -103, 339, 558, 656, 262, 589, 198, 130, 175
157120256, -364, -5276, -15179, -3176, 102, 1354, -2355, 166, -96, -103, 339, 558, 656, 262, 589, 198, 130, 175
157121085, -364, -5276, -15179, -3176, 102, 1354, -2355, 166, -96, -103, 339, 558, 656, 262, 589, 198, 130, 175
157121887, -364, -5276, -15179, -3176, 102, 1354, -2355, 166, -96, -103, 339, 558, 656, 262, 589, 198, 130, 175
157126992, -364, -5276, -15179, -3176, 102, 1354, -2355, 166, -96, -103, 339, 558, 656, 262, 589, 198, 130, 175
157127891, -407, -5252, -15178, -3214, 148, 1121, -2307, -190, -105, -144, 339, 558, 656, 262, 589, 198, 130, 175
157128716, -407, -5252, -15178, -3214, 148, 1121, -2307, -190, -105, -144, 223, 613, 652, 193, 541, 199, 82, 108
157129523, -407, -5252, -15178, -3214, 148, 1121, -2307, -190, -105, -144, 223, 613, 652, 193, 541, 199, 82, 108
157134579, -407, -5252, -15178, -3214, 148, 1121, -2307, -190, -105, -144, 223, 613, 652, 193, 541, 199, 82, 108
157135367, -407, -5252, -15178, -3214, 148, 1121, -2307, -190, -105, -144, 223, 613, 652, 193, 541, 199, 82, 108
157136205, -407, -5252, -15178, -3214, 148, 1121, -2307, -190, -105, -144, 223, 613, 652, 193, 541, 199, 82, 108
157137011, -407, -5252, -15178, -3214, 148, 1121, -2307, -190, -105, -144, 223, 613, 652, 193, 541, 199, 82, 108
157141937, -407, -5252, -15178, -3214, 148, 1121, -2307, -190, -105, -144, 223, 613, 652, 193, 541, 199, 82, 108
157142738, -407, -5252, -15178, -3214, 148, 1121, -2307, -190, -105, -144, 223, 613, 652, 193, 541, 199, 82, 108
157143582, -407, -5252, -15178, -3214, 148, 1121, -2307, -190, -105, -144, 223, 613, 652, 193, 541, 199, 82, 108
157144393, -407, -5252, -15178, -3214, 148, 1121, -2307, -190, -105, -144, 223, 613, 652, 193, 541, 199, 82, 108
157149529, -407, -5252, -15178, -3214, 148, 1121, -2307, -190, -105, -144, 223, 613, 652, 193, 541, 199, 82, 108
157150454, -435, -5242, -15180, -3221, 125, 968, -2317, -79, -87, -73, 223, 613, 652, 193, 541, 199, 82, 108
157151238, -435, -5242, -15180, -3221, 125, 968, -2317, -79, -87, -73, 238, 682, 669, 213, 539, 197, 78, 111
157152064, -435, -5242, -15180, -3221, 125, 968, -2317, -79, -87, -73, 238, 682, 669, 213, 539, 197, 78, 111
157157074, -435, -5242, -15180, -3221, 125, 968, -2317, -79, -87, -73, 238, 682, 669, 213, 539, 197, 78, 111
157157869, -435, -5242, -15180, -3221, 125, 968, -2317, -79, -87, -73, 238, 682, 669, 213, 539, 197, 78, 111
157158664, -435, -5242, -15180, -3221, 125, 968, -2317, -79, -87, -73, 238, 682, 669, 213, 539, 197, 78, 111
157159491, -435, -5242, -15180, -3221, 125, 968, -2317, -79, -87, -73, 238, 682, 669, 213, 539, 197, 78, 111
157164494, -435, -5242, -15180, -3221, 125, 968, -2317, -79, -87, -73, 238, 682, 669, 213, 539, 197, 78, 111
157165264, -435, -5242, -15180, -3221, 125, 968, -2317, -79, -87, -73, 238, 682, 669, 213, 539, 197, 78, 111
157166129, -435, -5242, -15180, -3221, 125, 968, -2317, -79, -87, -73, 238, 682, 669, 213, 539, 197, 78, 111
157166918, -435, -5242, -15180, -3221, 125, 968, -2317, -79, -87, -73, 238, 682, 669, 213, 539, 197, 78, 111
157171965, -435, -5242, -15180, -3221, 125, 968, -2317, -79, -87, -73, 238, 682, 669, 213, 539, 197, 78, 111
157172924, -432, -5232, -15187, -3202, 149, 1063, -2379, 149, 16, -47, 238, 682, 669, 213, 539, 197, 78, 111
157173724, -432, -5232, -15187, -3202, 149, 1063, -2379, 149, 16, -47, 220, 655, 556, 211, 521, 209, 78, 102
157174544, -432, -5232, -15187, -3202, 149, 1063, -2379, 149, 16, -47, 238, 682, 669, 213, 539, 197, 78, 111
157179537, -432, -5232, -15187, -3202, 149, 1063, -2379, 149, 16, -47, 220, 655, 556, 211, 521, 209, 78, 102
157180368, -432, -5232, -15187, -3202, 149, 1063, -2379, 149, 16, -47, 220, 655, 556, 211, 521, 209, 78, 102
157181175, -432, -5232, -15187, -3202, 149, 1063, -2379, 149, 16, -47, 220, 655, 556, 211, 521, 209, 78, 102
157181988, -432, -5232, -15187, -3202, 149, 1063, -2379, 149, 16, -47, 220, 655, 556, 211, 521, 209, 78, 102
157186979, -432, -5232, -15187, -3202, 149, 1063, -2379, 149, 16, -47, 220, 655, 556, 211, 521, 209, 78, 102
157187764, -432, -5232, -15187, -3202, 149, 1063, -2379, 149, 16, -47, 220, 655, 556, 211, 521, 209, 78, 102
157188608, -432, -5232, -15187, -3202, 149, 1063, -2379, 149, 16, -47, 220, 655, 556, 211, 521, 209, 78, 102
157189389, -432, -5232, -15187, -3202, 149, 1063, -2379, 149, 16, -47, 220, 655, 556, 211, 521, 209, 78, 102
157194465, -432, -5232, -15187, -3202, 149, 1063, -2379, 149, 16, -47, 220, 655, 556, 211, 521, 209, 78, 102
157195413, -427, -5221, -15194, -3187, 117, 1155, -2438, 174, 51, -46, 220, 655, 556, 211, 521, 209, 78, 102
157196241, -427, -5221, -15194, -3187, 117, 1155, -2438, 174, 51, -46, 217, 647, 592, 224, 486, 209, 75, 97
157197014, -427, -5221, -15194, -3187, 117, 1155, -2438, 174, 51, -46, 217, 647, 592, 224, 486, 209, 75, 97
157202039, -427, -5221, -15194, -3187, 117, 1155, -2438, 174, 51, -46, 217, 647, 592, 224, 486, 209, 75, 97
157202838, -427, -5221, -15194, -3187, 117, 1155, -2438, 174, 51, -46, 217, 647, 592, 224, 486, 209, 75, 97
157203661, -427, -5221, -15194, -3187, 117, 1155, -2438, 174, 51, -46, 217, 647, 592, 224, 486, 209, 75, 97
157204467, -427, -5221, -15194, -3187, 117, 1155, -2438, 174, 51, -46, 217, 647, 592, 224, 486, 209, 75, 97
157209464, -427, -5221, -15194, -3187, 117, 1155, -2438, 174, 51, -46, 217, 647, 592, 224, 486, 209, 75, 97
157210241, -427, -5221, -15194, -3187, 117, 1155, -2438, 174, 51, -46, 217, 647, 592, 224, 486, 209, 75, 97
157211054, -427, -5221, -15194, -3187, 117, 1155, -2438, 174, 51, -46, 217, 647, 592, 224, 486, 209, 75, 97
157211864, -427, -5221, -15194, -3187, 117, 1155, -2438, 174, 51, -46, 217, 647, 592, 224, 486, 209, 75, 97
157217006, -427, -5221, -15194, -3187, 117, 1155, -2438, 174, 51, -46, 217, 647, 592, 224, 486, 209, 75, 97
157217923, -431, -5213, -15197, -3186, 146, 1117, -2437, 64, 16, -36, 217, 647, 592, 224, 486, 209, 75, 97
157218762, -431, -5213, -15197, -3186, 146, 1117, -2437, 64, 16, -36, 212, 646, 568, 230, 497, 194, 79, 94
157219554, -431, -5213, -15197, -3186, 146, 1117, -2437, 64, 16, -36, 212, 646, 568, 230, 497, 194, 79, 94
157224564, -431, -5213, -15197, -3186, 146, 1117, -2437, 64, 16, -36, 212, 646, 568, 230, 497, 194, 79, 94
157225379, -431, -5213, -15197, -3186, 146, 1117, -2437, 64, 16, -36, 212, 646, 568, 230, 497, 194, 79, 94
157226188, -431, -5213, -15197, -3186, 146, 1117, -2437, 64, 16, -36, 212, 646, 568, 230, 497, 194, 79, 94
157227041, -431, -5213, -15197, -3186, 146, 1117, -2437, 64, 16, -36, 212, 646, 568, 230, 497, 194, 79, 94
157231981, -431, -5213, -15197, -3186, 146, 1117, -2437, 64, 16, -36, 212, 646, 568, 230, 497, 194, 79, 94
157232744, -431, -5213, -15197, -3186, 146, 1117, -2437, 64, 16, -36, 212, 646, 568, 230, 497, 194, 79, 94
157233638, -431, -5213, -15197, -3186, 146, 1117, -2437, 64, 16, -36, 212, 646, 568, 230, 497, 194, 79, 94
157234317, -431, -5213, -15197, -3186, 146, 1117, -2437, 64, 16, -36, 212, 646, 568, 230, 497, 194, 79, 94
157246990, -431, -5213, -15197, -3186, 146, 1117, -2437, 64, 16, -36, 212, 646, 568, 230, 497, 194, 79, 94
157247956, -433, -5211, -15198, -3185, 155, 1134, -2438, 72, 11, 3, 212, 646, 568, 230, 497, 194, 79, 94
157248764, -433, -5211, -15198, -3185, 155, 1134, -2438, 72, 11, 3, 192, 522, 498, 215, 450, 183, 75, 88
157249583, -433, -5211, -15198, -3185, 155, 1134, -2438, 72, 11, 3, 192, 522, 498, 215, 450, 183, 75, 88
157254518, -433, -5211, -15198, -3185, 155, 1134, -2438, 72, 11, 3, 192, 522, 498, 215, 450, 183, 75, 88
157255360, -433, -5211, -15198, -3185, 155, 1134, -2438, 72, 11, 3, 192, 522, 498, 215, 450, 183, 75, 88
157256139, -433, -5211, -15198, -3185, 155, 1134, -2438, 72, 11, 3, 192, 522, 498, 215, 450, 183, 75, 88
157256981, -433, -5211, -15198, -3185, 155, 1134, -2438, 72, 11, 3, 192, 522, 498, 215, 450, 183, 75, 88
157262007, -433, -5211, -15198, -3185, 155, 1134, -2438, 72, 11, 3, 192, 522, 498, 215, 450, 183, 75, 88
157262816, -433, -5211, -15198, -3185, 155, 1134, -2438, 72, 11, 3, 192, 522, 498, 215, 450, 183, 75, 88
157263665, -433, -5211, -15198, -3185, 155, 1134, -2438, 72, 11, 3, 192, 522, 498, 215, 450, 183, 75, 88
157264384, -433, -5211, -15198, -3185, 155, 1134, -2438, 72, 11, 3, 192, 522, 498, 215, 450, 183, 75, 88
157269520, -433, -5211, -15198, -3185, 155, 1134, -2438, 72, 11, 3, 192, 522, 498, 215, 450, 183, 75, 88
157270440, -439, -5214, -15197, -3185, 137, 1033, -2401, 17, -9, 24, 192, 522, 498, 215, 450, 183, 75, 88
157271280, -439, -5214, -15197, -3185, 137, 1033, -2401, 17, -9, 24, 175, 390, 448, 187, 400, 168, 70, 79
157272039, -439, -5214, -15197, -3185, 137, 1033, -2401, 17, -9, 24, 175, 390, 448, 187, 400, 168, 70, 79
157277048, -439, -5214, -15197, -3185, 137, 1033, -2401, 17, -9, 24, 175, 390, 448, 187, 400, 168, 70, 79
157277906, -439, -5214, -15197, -3185, 137, 1033, -2401, 17, -9, 24, 175, 390, 448, 187, 400, 168, 70, 79
157278691, -439, -5214, -15197, -3185, 137, 1033, -2401, 17, -9, 24, 175, 390, 448, 187, 400, 168, 70, 79
157279520, -439, -5214, -15197, -3185, 137, 1033, -2401, 17, -9, 24, 175, 390, 448, 187, 400, 168, 70, 79
157284439, -439, -5214, -15197, -3185, 137, 1033, -2401, 17, -9, 24, 175, 390, 448, 187, 400, 168, 70, 79
157285293, -439, -5214, -15197, -3185, 137, 1033, -2401, 17, -9, 24, 175, 390, 448, 187, 400, 168, 70, 79
157286085, -439, -5214, -15197, -3185, 137, 1033, -2401, 17, -9, 24, 175, 390, 448, 187, 400, 168, 70, 79
157286929, -439, -5214, -15197, -3185, 137, 1033, -2401, 17, -9, 24, 175, 390, 448, 187, 400, 168, 70, 79
157291964, -439, -5214, -15197, -3185, 137, 1033, -2401, 17, -9, 24, 175, 390, 448, 187, 400, 168, 70, 79
157292918, -439, -5216, -15197, -3181, 141, 1040, -2448, 40, 16, 19, 175, 390, 448, 187, 400, 168, 70, 79
157293716, -439, -5216, -15197, -3181, 141, 1040, -2448, 40, 16, 19, 157, 366, 437, 197, 344, 135, 65, 69
157294527, -439, -5216, -15197, -3181, 141, 1040, -2448, 40, 16, 19, 157, 366, 437, 197, 344, 135, 65, 69
157299541, -439, -5216, -15197, -3181, 141, 1040, -2448, 40, 16, 19, 157, 366, 437, 197, 344, 135, 65, 69
157300342, -439, -5216, -15197, -3181, 141, 1040, -2448, 40, 16, 19, 157, 366, 437, 197, 344, 135, 65, 69
157301165, -439, -5216, -15197, -3181, 141, 1040, -2448, 40, 16, 19, 157, 366, 437, 197, 344, 135, 65, 69
157301966, -439, -5216, -15197, -3181, 141, 1040, -2448, 40, 16, 19, 157, 366, 437, 197, 344, 135, 65, 69
157306918, -439, -5216, -15197, -3181, 141, 1040, -2448, 40, 16, 19, 157, 366, 437, 197, 344, 135, 65, 69
157307753, -439, -5216, -15197, -3181, 141, 1040, -2448, 40, 16, 19, 157, 366, 437, 197, 344, 135, 65, 69
157308554, -439, -5216, -15197, -3181, 141, 1040, -2448, 40, 16, 19, 157, 366, 437, 197, 344, 135, 65, 69
157309364, -439, -5216, -15197, -3181, 141, 1040, -2448, 40, 16, 19, 157, 366, 437, 197, 344, 135, 65, 69
