Timestamp, Orientation x, Orientation y, Orientation z, Orientation w, Acceleration x, Acceleration y, Acceleration z, Rotation x, Rotation y, Rotation z, EMG 0, EMG 1, EMG 2, EMG 3, EMG 4, EMG 5, EMG 6, EMG 7
32031168, -2483, 15867, 153, 3235, 1405, -1071, -3231, 3, -5, -6, 0, 0, 0, 0, 0, 0, 0, 0
32031833, -2486, 15867, 155, 3231, 1405, -1073, -3233, 12, -18, -7, 0, 0, 0, 0, 0, 0, 0, 0
32045303, -2485, 15868, 156, 3228, 1409, -1076, -3219, -9, -18, -6, 0, 0, 0, 0, 0, 0, 0, 0
32067821, -2484, 15869, 158, 3225, 1414, -1082, -3208, -14, -23, -14, 0, 0, 0, 0, 0, 0, 0, 0
32099228, -2484, 15869, 158, 3226, 1425, -1088, -3215, 1, -11, -11, 0, 0, 0, 0, 0, 0, 0, 0
32100002, -2484, 15869, 158, 3226, 1425, -1088, -3215, 1, -11, -11, 57, 32, 35, 28, 42, 38, 37, 93
32100819, -2484, 15869, 158, 3226, 1425, -1088, -3215, 1, -11, -11, 57, 32, 35, 28, 42, 38, 37, 93
32105427, -2485, 15869, 158, 3226, 1423, -1089, -3224, 2, -11, -16, 57, 32, 35, 28, 42, 38, 37, 93
32120959, -2485, 15869, 158, 3226, 1423, -1089, -3224, 2, -11, -16, 63, 39, 29, 31, 40, 41, 35, 82
32121737, -2485, 15869, 158, 3226, 1423, -1089, -3224, 2, -11, -16, 63, 39, 29, 31, 40, 41, 35, 82
32127896, -2485, 15869, 162, 3225, 1413, -1084, -3218, -4, -11, -27, 63, 39, 29, 31, 40, 41, 35, 82
32143449, -2485, 15869, 162, 3225, 1413, -1084, -3218, -4, -11, -27, 67, 38, 31, 31, 38, 43, 36, 70
32144215, -2485, 15869, 162, 3225, 1413, -1084, -3218, -4, -11, -27, 67, 38, 31, 31, 38, 43, 36, 70
32150428, -2485, 15869, 162, 3225, 1444, -1080, -3225, 10, -13, -15, 67, 38, 31, 31, 38, 43, 36, 70
32158440, -2485, 15869, 162, 3225, 1444, -1080, -3225, 10, -13, -15, 64, 39, 29, 31, 37, 41, 37, 78
32159238, -2485, 15869, 162, 3225, 1444, -1080, -3225, 10, -13, -15, 64, 39, 29, 31, 37, 41, 37, 78
32165403, -2486, 15869, 162, 3226, 1417, -1082, -3226, 3, -3, -11, 64, 39, 29, 31, 37, 41, 37, 78
32180922, -2486, 15869, 162, 3226, 1417, -1082, -3226, 3, -3, -11, 74, 37, 28, 31, 38, 45, 34, 88
32181716, -2486, 15869, 162, 3226, 1417, -1082, -3226, 3, -3, -11, 74, 37, 28, 31, 38, 45, 34, 88
32187879, -2486, 15869, 162, 3225, 1409, -1074, -3226, 0, -3, -11, 74, 37, 28, 31, 38, 45, 34, 88
32203406, -2486, 15869, 162, 3225, 1409, -1074, -3226, 0, -3, -11, 80, 38, 29, 33, 44, 46, 37, 91
32204250, -2486, 15869, 162, 3225, 1409, -1074, -3226, 0, -3, -11, 80, 38, 29, 33, 44, 46, 37, 91
32210440, -2485, 15868, 165, 3226, 1428, -1076, -3229, -7, -3, -17, 80, 38, 29, 33, 44, 46, 37, 91
32218420, -2485, 15868, 165, 3226, 1428, -1076, -3229, -7, -3, -17, 84, 36, 31, 35, 45, 42, 39, 89
32219239, -2485, 15868, 165, 3226, 1428, -1076, -3229, -7, -3, -17, 84, 36, 31, 35, 45, 42, 39, 89
32225363, -2485, 15868, 167, 3228, 1427, -1096, -3226, -13, 2, -17, 84, 36, 31, 35, 45, 42, 39, 89
32240905, -2485, 15868, 167, 3228, 1427, -1096, -3226, -13, 2, -17, 81, 39, 29, 34, 46, 41, 38, 90
32241720, -2485, 15868, 167, 3228, 1427, -1096, -3226, -13, 2, -17, 81, 39, 29, 34, 46, 41, 38, 90
32247866, -2485, 15868, 167, 3228, 1415, -1081, -3232, 12, 0, -4, 81, 39, 29, 34, 46, 41, 38, 90
32263438, -2485, 15868, 167, 3228, 1415, -1081, -3232, 12, 0, -4, 92, 39, 31, 35, 47, 47, 37, 93
32264260, -2485, 15868, 167, 3228, 1415, -1081, -3232, 12, 0, -4, 92, 39, 31, 35, 47, 47, 37, 93
32270424, -2485, 15868, 167, 3228, 1413, -1066, -3223, 9, 4, -7, 92, 39, 31, 35, 47, 47, 37, 93
32278394, -2485, 15868, 167, 3228, 1413, -1066, -3223, 9, 4, -7, 84, 41, 33, 35, 47, 43, 40, 83
32279212, -2485, 15868, 167, 3228, 1413, -1066, -3223, 9, 4, -7, 84, 41, 33, 35, 47, 43, 40, 83
32285370, -2482, 15868, 166, 3228, 1412, -1077, -3230, -21, 3, -4, 84, 41, 33, 35, 47, 43, 40, 83
32301279, -2482, 15868, 166, 3228, 1412, -1077, -3230, -21, 3, -4, 91, 40, 32, 36, 51, 43, 40, 80
32301803, -2482, 15868, 166, 3228, 1412, -1077, -3230, -21, 3, -4, 91, 40, 32, 36, 51, 43, 40, 80
32307933, -2479, 15869, 165, 3228, 1416, -1080, -3233, -24, 0, -1, 91, 40, 32, 36, 51, 43, 40, 80
32323473, -2479, 15869, 165, 3228, 1416, -1080, -3233, -24, 0, -1, 86, 37, 31, 32, 53, 44, 38, 79
32324263, -2479, 15869, 165, 3228, 1416, -1080, -3233, -24, 0, -1, 86, 37, 31, 32, 53, 44, 38, 79
32330419, -2480, 15869, 165, 3228, 1423, -1078, -3229, -1, 0, -1, 86, 37, 31, 32, 53, 44, 38, 79
32338452, -2480, 15869, 165, 3228, 1423, -1078, -3229, -1, 0, -1, 92, 34, 34, 33, 53, 44, 39, 74
32339270, -2480, 15869, 165, 3228, 1423, -1078, -3229, -1, 0, -1, 92, 34, 34, 33, 53, 44, 39, 74
32345418, -2480, 15869, 165, 3229, 1430, -1064, -3216, -2, 7, -7, 92, 34, 34, 33, 53, 44, 39, 74
32360947, -2480, 15869, 165, 3229, 1430, -1064, -3216, -2, 7, -7, 90, 33, 33, 33, 56, 40, 39, 70
32361763, -2480, 15869, 165, 3229, 1430, -1064, -3216, -2, 7, -7, 90, 33, 33, 33, 56, 40, 39, 70
32367924, -2480, 15869, 165, 3229, 1421, -1082, -3218, -11, 12, 5, 90, 33, 33, 33, 56, 40, 39, 70
32383446, -2480, 15869, 165, 3229, 1421, -1082, -3218, -11, 12, 5, 96, 29, 33, 33, 59, 43, 42, 69
32384236, -2480, 15869, 165, 3229, 1421, -1082, -3218, -11, 12, 5, 96, 29, 33, 33, 59, 43, 42, 69
32390402, -2483, 15868, 160, 3230, 1416, -1107, -3220, -13, 12, 19, 96, 29, 33, 33, 59, 43, 42, 69
32398467, -2483, 15868, 160, 3230, 1416, -1107, -3220, -13, 12, 19, 93, 29, 34, 32, 53, 39, 39, 74
32399268, -2483, 15868, 160, 3230, 1416, -1107, -3220, -13, 12, 19, 93, 29, 34, 32, 53, 39, 39, 74
32405430, -2484, 15868, 160, 3230, 1401, -1104, -3222, 0, 15, 13, 93, 29, 34, 32, 53, 39, 39, 74
32420956, -2484, 15868, 160, 3230, 1401, -1104, -3222, 0, 15, 13, 92, 29, 32, 32, 54, 41, 41, 80
32421748, -2484, 15868, 160, 3230, 1401, -1104, -3222, 0, 15, 13, 92, 29, 32, 32, 54, 41, 41, 80
32427899, -2487, 15867, 161, 3231, 1417, -1073, -3225, 16, 4, -2, 92, 29, 32, 32, 54, 41, 41, 80
32443417, -2487, 15867, 161, 3231, 1417, -1073, -3225, 16, 4, -2, 99, 30, 34, 34, 56, 42, 42, 80
32444243, -2487, 15867, 161, 3231, 1417, -1073, -3225, 16, 4, -2, 99, 30, 34, 34, 56, 42, 42, 80
32450393, -2488, 15867, 162, 3233, 1441, -1041, -3231, 21, -1, 0, 99, 30, 34, 34, 56, 42, 42, 80
32458435, -2488, 15867, 162, 3233, 1441, -1041, -3231, 21, -1, 0, 94, 30, 35, 36, 56, 40, 41, 75
32459244, -2488, 15867, 162, 3233, 1441, -1041, -3231, 21, -1, 0, 94, 30, 35, 36, 56, 40, 41, 75
32465414, -2484, 15867, 161, 3235, 1442, -1069, -3235, -22, 4, 5, 94, 30, 35, 36, 56, 40, 41, 75
32480940, -2484, 15867, 161, 3235, 1442, -1069, -3235, -22, 4, 5, 84, 34, 32, 36, 58, 40, 36, 78
32481748, -2484, 15867, 161, 3235, 1442, -1069, -3235, -22, 4, 5, 84, 34, 32, 36, 58, 40, 36, 78
32487959, -2483, 15867, 158, 3236, 1428, -1098, -3227, -20, 2, 5, 84, 34, 32, 36, 58, 40, 36, 78
32503450, -2483, 15867, 158, 3236, 1428, -1098, -3227, -20, 2, 5, 78, 36, 32, 39, 56, 44, 41, 74
32504213, -2483, 15867, 158, 3236, 1428, -1098, -3227, -20, 2, 5, 78, 36, 32, 39, 56, 44, 41, 74
32510393, -2484, 15867, 158, 3236, 1431, -1100, -3218, -8, 4, 6, 78, 36, 32, 39, 56, 44, 41, 74
32517771, -2484, 15867, 158, 3236, 1431, -1100, -3218, -8, 4, 6, 74, 40, 31, 40, 55, 42, 40, 73
32525939, -2484, 15867, 158, 3236, 1431, -1100, -3218, -8, 4, 6, 74, 40, 31, 40, 55, 42, 40, 73
32526868, -2485, 15867, 158, 3236, 1409, -1086, -3205, 6, 5, 8, 74, 40, 31, 40, 55, 42, 40, 73
32540925, -2485, 15867, 158, 3236, 1409, -1086, -3205, 6, 5, 8, 61, 41, 29, 38, 51, 45, 40, 80
32541711, -2485, 15867, 158, 3236, 1409, -1086, -3205, 6, 5, 8, 61, 41, 29, 38, 51, 45, 40, 80
32547887, -2485, 15867, 158, 3236, 1418, -1069, -3210, 9, 4, -1, 61, 41, 29, 38, 51, 45, 40, 80
32563396, -2485, 15867, 158, 3236, 1418, -1069, -3210, 9, 4, -1, 61, 41, 28, 38, 52, 45, 42, 84
32564211, -2485, 15867, 158, 3236, 1418, -1069, -3210, 9, 4, -1, 61, 41, 28, 38, 52, 45, 42, 84
32570385, -2485, 15866, 158, 3236, 1425, -1077, -3216, -10, -1, -3, 61, 41, 28, 38, 52, 45, 42, 84
32586651, -2485, 15866, 158, 3236, 1425, -1077, -3216, -10, -1, -3, 70, 40, 31, 39, 50, 45, 44, 88
32587414, -2485, 15866, 158, 3236, 1425, -1077, -3216, -10, -1, -3, 70, 40, 31, 39, 50, 45, 44, 88
32588377, -2485, 15866, 158, 3237, 1430, -1075, -3233, 7, -12, -3, 70, 40, 31, 39, 50, 45, 44, 88
32600944, -2485, 15866, 158, 3237, 1430, -1075, -3233, 7, -12, -3, 72, 40, 30, 33, 53, 43, 44, 102
32601761, -2485, 15866, 158, 3237, 1430, -1075, -3233, 7, -12, -3, 72, 40, 30, 33, 53, 43, 44, 102
32607922, -2485, 15866, 158, 3237, 1439, -1078, -3213, 2, -13, -8, 72, 40, 30, 33, 53, 43, 44, 102
32623439, -2485, 15866, 158, 3237, 1439, -1078, -3213, 2, -13, -8, 74, 36, 32, 33, 53, 47, 45, 97
32624236, -2485, 15866, 158, 3237, 1439, -1078, -3213, 2, -13, -8, 74, 36, 32, 33, 53, 47, 45, 97
32630412, -2486, 15866, 158, 3238, 1444, -1094, -3211, -15, -12, -2, 74, 36, 32, 33, 53, 47, 45, 97
32654217, -2486, 15866, 158, 3238, 1444, -1094, -3211, -15, -12, -2, 77, 37, 34, 32, 60, 46, 41, 94
32655031, -2486, 15866, 158, 3238, 1444, -1094, -3211, -15, -12, -2, 77, 37, 34, 32, 60, 46, 41, 94
32656002, -2487, 15866, 158, 3238, 1429, -1092, -3211, -8, -8, 6, 77, 37, 34, 32, 60, 46, 41, 94
32663005, -2487, 15866, 158, 3238, 1429, -1092, -3211, -8, -8, 6, 85, 35, 33, 32, 59, 50, 43, 89
32663814, -2487, 15866, 158, 3238, 1429, -1092, -3211, -8, -8, 6, 85, 35, 33, 32, 59, 50, 43, 89
32664624, -2487, 15866, 158, 3238, 1429, -1092, -3211, -8, -8, 6, 85, 35, 33, 32, 59, 50, 43, 89
32665438, -2487, 15866, 158, 3238, 1429, -1092, -3211, -8, -8, 6, 85, 35, 33, 32, 59, 50, 43, 89
32670444, -2487, 15866, 158, 3238, 1429, -1092, -3211, -8, -8, 6, 85, 35, 33, 32, 59, 50, 43, 89
32671276, -2487, 15866, 158, 3238, 1429, -1092, -3211, -8, -8, 6, 85, 35, 33, 32, 59, 50, 43, 89
32672068, -2487, 15866, 158, 3238, 1429, -1092, -3211, -8, -8, 6, 85, 35, 33, 32, 59, 50, 43, 89
32672892, -2487, 15866, 158, 3238, 1429, -1092, -3211, -8, -8, 6, 85, 35, 33, 32, 59, 50, 43, 89
32675390, -2492, 15865, 158, 3238, 1423, -1096, -3225, 18, 0, 2, 85, 35, 33, 32, 59, 50, 43, 89
32683447, -2492, 15865, 158, 3238, 1423, -1096, -3225, 18, 0, 2, 82, 35, 32, 36, 63, 54, 44, 86
32684240, -2492, 15865, 158, 3238, 1423, -1096, -3225, 18, 0, 2, 82, 35, 32, 36, 63, 54, 44, 86
32690452, -2495, 15864, 159, 3239, 1424, -1070, -3221, 17, 3, -6, 82, 35, 32, 36, 63, 54, 44, 86
32706619, -2495, 15864, 159, 3239, 1424, -1070, -3221, 17, 3, -6, 82, 32, 32, 38, 60, 55, 41, 87
32707388, -2495, 15864, 159, 3239, 1424, -1070, -3221, 17, 3, -6, 82, 32, 32, 38, 60, 55, 41, 87
32708337, -2495, 15864, 159, 3239, 1425, -1080, -3229, 10, 5, -10, 82, 32, 32, 38, 60, 55, 41, 87
32720922, -2495, 15864, 159, 3239, 1425, -1080, -3229, 10, 5, -10, 82, 36, 32, 38, 63, 51, 39, 94
32721752, -2495, 15864, 159, 3239, 1425, -1080, -3229, 10, 5, -10, 82, 36, 32, 38, 63, 51, 39, 94
32727917, -2495, 15864, 159, 3239, 1423, -1082, -3237, -1, 5, -13, 82, 36, 32, 38, 63, 51, 39, 94
32743416, -2495, 15864, 159, 3239, 1423, -1082, -3237, -1, 5, -13, 78, 39, 30, 40, 62, 51, 41, 92
32744211, -2495, 15864, 159, 3239, 1423, -1082, -3237, -1, 5, -13, 78, 39, 30, 40, 62, 51, 41, 92
32750361, -2496, 15864, 159, 3239, 1429, -1087, -3219, 4, 7, -15, 78, 39, 30, 40, 62, 51, 41, 92
32766615, -2496, 15864, 159, 3239, 1429, -1087, -3219, 4, 7, -15, 80, 41, 36, 40, 62, 47, 38, 96
32767436, -2496, 15864, 159, 3239, 1429, -1087, -3219, 4, 7, -15, 80, 41, 36, 40, 62, 47, 38, 96
32768369, -2495, 15864, 161, 3242, 1423, -1063, -3239, 8, 16, -9, 80, 41, 36, 40, 62, 47, 38, 96
32780894, -2495, 15864, 161, 3242, 1423, -1063, -3239, 8, 16, -9, 97, 41, 38, 38, 61, 40, 34, 94
32781685, -2495, 15864, 161, 3242, 1423, -1063, -3239, 8, 16, -9, 97, 41, 38, 38, 61, 40, 34, 94
32787879, -2493, 15864, 163, 3244, 1413, -1081, -3234, -13, 14, -18, 97, 41, 38, 38, 61, 40, 34, 94
32803450, -2493, 15864, 163, 3244, 1413, -1081, -3234, -13, 14, -18, 95, 42, 37, 39, 67, 39, 31, 76
32804238, -2493, 15864, 163, 3244, 1413, -1081, -3234, -13, 14, -18, 95, 42, 37, 39, 67, 39, 31, 76
32810396, -2494, 15864, 163, 3244, 1425, -1080, -3228, -3, 13, -13, 95, 42, 37, 39, 67, 39, 31, 76
32826599, -2494, 15864, 163, 3244, 1425, -1080, -3228, -3, 13, -13, 95, 46, 39, 38, 63, 40, 32, 77
32827387, -2494, 15864, 163, 3244, 1425, -1080, -3228, -3, 13, -13, 95, 46, 39, 38, 63, 40, 32, 77
32828336, -2494, 15864, 163, 3243, 1414, -1072, -3228, 10, 7, -5, 95, 46, 39, 38, 63, 40, 32, 77
32840914, -2494, 15864, 163, 3243, 1414, -1072, -3228, 10, 7, -5, 102, 44, 41, 36, 61, 43, 38, 79
32841735, -2494, 15864, 163, 3243, 1414, -1072, -3228, 10, 7, -5, 102, 44, 41, 36, 61, 43, 38, 79
32847892, -2494, 15864, 163, 3243, 1417, -1073, -3228, -1, 8, -9, 102, 44, 41, 36, 61, 43, 38, 79
32863447, -2494, 15864, 163, 3243, 1417, -1073, -3228, -1, 8, -9, 95, 43, 38, 40, 63, 44, 38, 77
32864222, -2494, 15864, 163, 3243, 1417, -1073, -3228, -1, 8, -9, 95, 43, 38, 40, 63, 44, 38, 77
32870380, -2488, 15864, 163, 3245, 1409, -1066, -3215, -31, 12, -10, 95, 43, 38, 40, 63, 44, 38, 77
32886622, -2488, 15864, 163, 3245, 1409, -1066, -3215, -31, 12, -10, 75, 43, 37, 40, 59, 46, 41, 87
32887441, -2488, 15864, 163, 3245, 1409, -1066, -3215, -31, 12, -10, 75, 43, 37, 40, 59, 46, 41, 87
32888362, -2487, 15864, 162, 3247, 1429, -1098, -3225, -18, 13, -7, 75, 43, 37, 40, 59, 46, 41, 87
32901058, -2487, 15864, 162, 3247, 1429, -1098, -3225, -18, 13, -7, 75, 43, 37, 39, 54, 45, 41, 89
32901737, -2487, 15864, 162, 3247, 1429, -1098, -3225, -18, 13, -7, 75, 43, 37, 39, 54, 45, 41, 89
32907961, -2492, 15862, 162, 3252, 1433, -1097, -3216, 11, 23, -4, 75, 43, 37, 39, 54, 45, 41, 89
32923226, -2492, 15862, 162, 3252, 1433, -1097, -3216, 11, 23, -4, 81, 35, 34, 39, 53, 48, 40, 88
32930943, -2492, 15862, 162, 3252, 1433, -1097, -3216, 11, 23, -4, 81, 35, 34, 39, 53, 48, 40, 88
32931872, -2493, 15861, 160, 3255, 1419, -1073, -3227, 2, 24, 6, 81, 35, 34, 39, 53, 48, 40, 88
32946592, -2493, 15861, 160, 3255, 1419, -1073, -3227, 2, 24, 6, 74, 36, 32, 40, 51, 44, 34, 94
32947386, -2493, 15861, 160, 3255, 1419, -1073, -3227, 2, 24, 6, 74, 36, 32, 40, 51, 44, 34, 94
32948336, -2494, 15861, 160, 3259, 1430, -1066, -3226, 7, 19, 3, 74, 36, 32, 40, 51, 44, 34, 94
32960916, -2494, 15861, 160, 3259, 1430, -1066, -3226, 7, 19, 3, 72, 35, 31, 35, 48, 54, 34, 99
32961746, -2494, 15861, 160, 3259, 1430, -1066, -3226, 7, 19, 3, 72, 35, 31, 35, 48, 54, 34, 99
32967891, -2493, 15860, 156, 3261, 1422, -1078, -3220, -8, 16, 13, 72, 35, 31, 35, 48, 54, 34, 99
32983437, -2493, 15860, 156, 3261, 1422, -1078, -3220, -8, 16, 13, 73, 34, 29, 32, 48, 53, 33, 90
32984219, -2493, 15860, 156, 3261, 1422, -1078, -3220, -8, 16, 13, 73, 34, 29, 32, 48, 53, 33, 90
32990381, -2493, 15860, 156, 3260, 1415, -1061, -3220, 5, 12, 7, 73, 34, 29, 32, 48, 53, 33, 90
33006633, -2493, 15860, 156, 3260, 1415, -1061, -3220, 5, 12, 7, 72, 35, 31, 32, 50, 53, 34, 88
33007441, -2493, 15860, 156, 3260, 1415, -1061, -3220, 5, 12, 7, 72, 35, 31, 32, 50, 53, 34, 88
33008362, -2494, 15860, 156, 3260, 1419, -1084, -3231, -8, 14, 15, 72, 35, 31, 32, 50, 53, 34, 88
33029096, -2494, 15860, 156, 3260, 1419, -1084, -3231, -8, 14, 15, 71, 36, 29, 35, 51, 53, 37, 86
33029888, -2494, 15860, 156, 3260, 1419, -1084, -3231, -8, 14, 15, 71, 36, 29, 35, 51, 53, 37, 86
33030836, -2494, 15860, 152, 3259, 1413, -1110, -3221, -21, 7, 15, 71, 36, 29, 35, 51, 53, 37, 86
33042753, -2494, 15860, 152, 3259, 1413, -1110, -3221, -21, 7, 15, 81, 40, 29, 34, 54, 55, 41, 75
33050915, -2494, 15860, 152, 3259, 1413, -1110, -3221, -21, 7, 15, 81, 40, 29, 34, 54, 55, 41, 75
33051864, -2498, 15860, 147, 3259, 1430, -1090, -3225, 7, 4, 26, 81, 40, 29, 34, 54, 55, 41, 75
33066587, -2498, 15860, 147, 3259, 1430, -1090, -3225, 7, 4, 26, 90, 40, 29, 32, 51, 44, 39, 73
33067390, -2498, 15860, 147, 3259, 1430, -1090, -3225, 7, 4, 26, 90, 40, 29, 32, 51, 44, 39, 73
33068313, -2500, 15860, 143, 3258, 1427, -1062, -3221, 14, 0, 25, 90, 40, 29, 32, 51, 44, 39, 73
33089095, -2500, 15860, 143, 3258, 1427, -1062, -3221, 14, 0, 25, 90, 41, 28, 30, 48, 43, 37, 73
33089924, -2500, 15860, 143, 3258, 1427, -1062, -3221, 14, 0, 25, 90, 41, 28, 30, 48, 43, 37, 73
33090839, -2499, 15860, 143, 3259, 1443, -1057, -3226, -6, -6, 11, 90, 41, 28, 30, 48, 43, 37, 73
33111571, -2499, 15860, 143, 3259, 1443, -1057, -3226, -6, -6, 11, 90, 42, 27, 34, 52, 44, 38, 71
33112386, -2499, 15860, 143, 3259, 1443, -1057, -3226, -6, -6, 11, 90, 42, 27, 34, 52, 44, 38, 71
33113312, -2498, 15860, 139, 3259, 1448, -1096, -3239, -19, 0, 19, 90, 42, 27, 34, 52, 44, 38, 71
33126574, -2498, 15860, 139, 3259, 1448, -1096, -3239, -19, 0, 19, 92, 41, 31, 31, 54, 45, 38, 78
33127362, -2498, 15860, 139, 3259, 1448, -1096, -3239, -19, 0, 19, 92, 41, 31, 31, 54, 45, 38, 78
33128311, -2497, 15860, 136, 3260, 1441, -1084, -3224, -11, 2, 17, 92, 41, 31, 31, 54, 45, 38, 78
33149142, -2497, 15860, 136, 3260, 1441, -1084, -3224, -11, 2, 17, 80, 35, 31, 33, 59, 45, 34, 80
33149941, -2497, 15860, 136, 3260, 1441, -1084, -3224, -11, 2, 17, 80, 35, 31, 33, 59, 45, 34, 80
33150862, -2498, 15860, 136, 3260, 1427, -1086, -3212, 8, -2, 11, 80, 35, 31, 33, 59, 45, 34, 80
33171579, -2498, 15860, 136, 3260, 1427, -1086, -3212, 8, -2, 11, 72, 37, 29, 37, 68, 45, 37, 90
33172363, -2498, 15860, 136, 3260, 1427, -1086, -3212, 8, -2, 11, 72, 37, 29, 37, 68, 45, 37, 90
33173311, -2498, 15860, 136, 3260, 1432, -1069, -3218, -3, -5, 10, 72, 37, 29, 37, 68, 45, 37, 90
