Timestamp, Orientation x, Orientation y, Orientation z, Orientation w, Acceleration x, Acceleration y, Acceleration z, Rotation x, Rotation y, Rotation z, EMG 0, EMG 1, EMG 2, EMG 3, EMG 4, EMG 5, EMG 6, EMG 7
382177854, -6552, 11756, 9077, 2213, 2404, -1605, -2386, -24, 4, -3, 0, 0, 0, 0, 0, 0, 0, 0
382185344, -6553, 11757, 9074, 2216, 2386, -1604, -2372, -23, 6, 1, 0, 0, 0, 0, 0, 0, 0, 0
382207858, -6554, 11757, 9074, 2216, 2383, -1608, -2380, -15, -11, 2, 0, 0, 0, 0, 0, 0, 0, 0
382222846, -6553, 11757, 9074, 2214, 2396, -1602, -2397, -4, -21, 2, 0, 0, 0, 0, 0, 0, 0, 0
382246650, -6553, 11759, 9073, 2211, 2403, -1598, -2388, -6, -24, 19, 0, 0, 0, 0, 0, 0, 0, 0
382247445, -6553, 11759, 9073, 2211, 2403, -1598, -2388, -6, -24, 19, 32, 34, 29, 49, 39, 39, 51, 50
382248253, -6553, 11759, 9073, 2211, 2403, -1598, -2388, -6, -24, 19, 32, 34, 29, 49, 39, 39, 51, 50
382269225, -6552, 11761, 9071, 2211, 2398, -1585, -2397, -13, -17, 19, 32, 34, 29, 49, 39, 39, 51, 50
382269959, -6552, 11761, 9071, 2211, 2398, -1585, -2397, -13, -17, 19, 102, 38, 41, 74, 43, 37, 48, 47
382270762, -6552, 11761, 9071, 2211, 2398, -1585, -2397, -13, -17, 19, 102, 38, 41, 74, 43, 37, 48, 47
382282827, -6556, 11757, 9073, 2209, 2416, -1596, -2368, 20, -21, -7, 102, 38, 41, 74, 43, 37, 48, 47
382290993, -6556, 11757, 9073, 2209, 2416, -1596, -2368, 20, -21, -7, 178, 51, 48, 98, 43, 36, 51, 51
382291778, -6556, 11757, 9073, 2209, 2416, -1596, -2368, 20, -21, -7, 178, 51, 48, 98, 43, 36, 51, 51
382306655, -6547, 11757, 9079, 2214, 2414, -1597, -2405, -51, -35, -40, 178, 51, 48, 98, 43, 36, 51, 51
382307478, -6547, 11757, 9079, 2214, 2414, -1597, -2405, -51, -35, -40, 251, 93, 54, 130, 50, 38, 44, 50
382308266, -6547, 11757, 9079, 2214, 2414, -1597, -2405, -51, -35, -40, 251, 93, 54, 130, 50, 38, 44, 50
382329202, -6539, 11752, 9086, 2234, 2476, -1663, -2373, -120, -4, -108, 251, 93, 54, 130, 50, 38, 44, 50
382329944, -6539, 11752, 9086, 2234, 2476, -1663, -2373, -120, -4, -108, 404, 102, 74, 209, 107, 46, 47, 68
382330775, -6539, 11752, 9086, 2234, 2476, -1663, -2373, -120, -4, -108, 404, 102, 74, 209, 107, 46, 47, 68
382342841, -6528, 11742, 9096, 2276, 2552, -1690, -2492, -171, 96, -179, 404, 102, 74, 209, 107, 46, 47, 68
382350915, -6528, 11742, 9096, 2276, 2552, -1690, -2492, -171, 96, -179, 510, 132, 109, 317, 140, 48, 53, 87
382351744, -6528, 11742, 9096, 2276, 2552, -1690, -2492, -171, 96, -179, 510, 132, 109, 317, 140, 48, 53, 87
382366658, -6530, 11727, 9096, 2347, 2599, -1669, -2481, -209, 268, -210, 510, 132, 109, 317, 140, 48, 53, 87
382367425, -6530, 11727, 9096, 2347, 2599, -1669, -2481, -209, 268, -210, 775, 183, 150, 352, 190, 70, 71, 147
382368244, -6530, 11727, 9096, 2347, 2599, -1669, -2481, -209, 268, -210, 775, 183, 150, 352, 190, 70, 71, 147
382389145, -6581, 11701, 9080, 2401, 2627, -1609, -2497, 83, 411, -86, 775, 183, 150, 352, 190, 70, 71, 147
382389965, -6581, 11701, 9080, 2401, 2627, -1609, -2497, 83, 411, -86, 860, 237, 169, 458, 250, 91, 90, 155
382390746, -6581, 11701, 9080, 2401, 2627, -1609, -2497, 83, 411, -86, 860, 237, 169, 458, 250, 91, 90, 155
382411655, -6638, 11674, 9055, 2466, 2647, -1407, -2510, 152, 516, 4, 860, 237, 169, 458, 250, 91, 90, 155
382412455, -6638, 11674, 9055, 2466, 2647, -1407, -2510, 152, 516, 4, 1032, 305, 356, 699, 367, 118, 101, 174
382413249, -6638, 11674, 9055, 2466, 2647, -1407, -2510, 152, 516, 4, 1032, 305, 356, 699, 367, 118, 101, 174
382426640, -6657, 11683, 9010, 2535, 2514, -1314, -2418, -101, 456, 154, 1032, 305, 356, 699, 367, 118, 101, 174
382427423, -6657, 11683, 9010, 2535, 2514, -1314, -2418, -101, 456, 154, 1106, 405, 446, 848, 451, 161, 133, 225
382428247, -6657, 11683, 9010, 2535, 2514, -1314, -2418, -101, 456, 154, 1106, 405, 446, 848, 451, 161, 133, 225
382449220, -6638, 11750, 8922, 2588, 2385, -1112, -2250, -334, 308, 549, 1106, 405, 446, 848, 451, 161, 133, 225
382449955, -6638, 11750, 8922, 2588, 2385, -1112, -2250, -334, 308, 549, 1189, 520, 508, 946, 486, 189, 142, 237
382450764, -6638, 11750, 8922, 2588, 2385, -1112, -2250, -334, 308, 549, 1189, 520, 508, 946, 486, 189, 142, 237
382471676, -6566, 11904, 8763, 2608, 2224, -1200, -2139, -774, 90, 1067, 1189, 520, 508, 946, 486, 189, 142, 237
382472471, -6566, 11904, 8763, 2608, 2224, -1200, -2139, -774, 90, 1067, 1142, 605, 654, 1083, 549, 201, 143, 213
382473279, -6566, 11904, 8763, 2608, 2224, -1200, -2139, -774, 90, 1067, 1142, 605, 654, 1083, 549, 201, 143, 213
382486680, -6424, 12115, 8574, 2619, 2385, -1448, -2291, -1241, -169, 1275, 1142, 605, 654, 1083, 549, 201, 143, 213
382487570, -6424, 12115, 8574, 2619, 2385, -1448, -2291, -1241, -169, 1275, 1108, 651, 774, 1161, 668, 209, 144, 214
382488323, -6424, 12115, 8574, 2619, 2385, -1448, -2291, -1241, -169, 1275, 1108, 651, 774, 1161, 668, 209, 144, 214
382509130, -6294, 12331, 8353, 2643, 2579, -1301, -2339, -1210, -97, 1519, 1108, 651, 774, 1161, 668, 209, 144, 214
382509891, -6294, 12331, 8353, 2643, 2579, -1301, -2339, -1210, -97, 1519, 1037, 660, 766, 1132, 702, 227, 150, 215
382510738, -6294, 12331, 8353, 2643, 2579, -1301, -2339, -1210, -97, 1519, 1037, 660, 766, 1132, 702, 227, 150, 215
382531655, -6233, 12601, 8025, 2528, 2347, -1354, -2376, -791, -213, 2366, 1037, 660, 766, 1132, 702, 227, 150, 215
382532425, -6233, 12601, 8025, 2528, 2347, -1354, -2376, -791, -213, 2366, 987, 722, 815, 1119, 737, 218, 141, 167
382533256, -6233, 12601, 8025, 2528, 2347, -1354, -2376, -791, -213, 2366, 987, 722, 815, 1119, 737, 218, 141, 167
382546632, -6269, 12867, 7626, 2324, 1902, -1637, -2551, -184, -136, 2909, 987, 722, 815, 1119, 737, 218, 141, 167
382547411, -6269, 12867, 7626, 2324, 1902, -1637, -2551, -184, -136, 2909, 912, 681, 831, 1107, 759, 212, 139, 158
382548234, -6269, 12867, 7626, 2324, 1902, -1637, -2551, -184, -136, 2909, 912, 681, 831, 1107, 759, 212, 139, 158
382569212, -6349, 13076, 7261, 2096, 1416, -1616, -2493, 230, -121, 2676, 912, 681, 831, 1107, 759, 212, 139, 158
382569977, -6349, 13076, 7261, 2096, 1416, -1616, -2493, 230, -121, 2676, 922, 636, 804, 996, 709, 224, 147, 157
382570931, -6349, 13076, 7261, 2096, 1416, -1616, -2493, 230, -121, 2676, 922, 636, 804, 996, 709, 224, 147, 157
382591670, -6389, 13233, 6993, 1897, 1287, -1468, -2585, 193, -248, 2036, 922, 636, 804, 996, 709, 224, 147, 157
382592434, -6389, 13233, 6993, 1897, 1287, -1468, -2585, 193, -248, 2036, 992, 605, 737, 968, 631, 218, 140, 162
382593249, -6389, 13233, 6993, 1897, 1287, -1468, -2585, 193, -248, 2036, 992, 605, 737, 968, 631, 218, 140, 162
382614208, -6376, 13389, 6746, 1730, 1367, -1438, -2589, -99, -301, 1848, 992, 605, 737, 968, 631, 218, 140, 162
382614946, -6376, 13389, 6746, 1730, 1367, -1438, -2589, -99, -301, 1848, 926, 621, 745, 960, 591, 202, 143, 160
382615818, -6376, 13389, 6746, 1730, 1367, -1438, -2589, -99, -301, 1848, 926, 621, 745, 960, 591, 202, 143, 160
382629205, -6359, 13526, 6515, 1607, 1326, -1823, -2678, -195, -133, 1616, 926, 621, 745, 960, 591, 202, 143, 160
382629992, -6359, 13526, 6515, 1607, 1326, -1823, -2678, -195, -133, 1616, 947, 541, 669, 936, 550, 205, 132, 183
382630747, -6359, 13526, 6515, 1607, 1326, -1823, -2678, -195, -133, 1616, 947, 541, 669, 936, 550, 205, 132, 183
382651626, -6366, 13601, 6380, 1483, 1281, -1931, -2613, 169, -131, 986, 947, 541, 669, 936, 550, 205, 132, 183
382652427, -6366, 13601, 6380, 1483, 1281, -1931, -2613, 169, -131, 986, 935, 540, 612, 899, 516, 200, 125, 172
382653245, -6366, 13601, 6380, 1483, 1281, -1931, -2613, 169, -131, 986, 935, 540, 612, 899, 516, 200, 125, 172
382665300, -6390, 13627, 6320, 1399, 1516, -1810, -2608, 369, -152, 577, 935, 540, 612, 899, 516, 200, 125, 172
382673454, -6390, 13627, 6320, 1399, 1516, -1810, -2608, 369, -152, 577, 885, 517, 518, 956, 557, 174, 112, 184
382674335, -6390, 13627, 6320, 1399, 1516, -1810, -2608, 369, -152, 577, 885, 517, 518, 956, 557, 174, 112, 184
382689120, -6381, 13643, 6301, 1368, 1645, -1711, -2592, 172, -120, 307, 885, 517, 518, 956, 557, 174, 112, 184
382689926, -6381, 13643, 6301, 1368, 1645, -1711, -2592, 172, -120, 307, 877, 496, 465, 963, 540, 173, 112, 180
382690774, -6381, 13643, 6301, 1368, 1645, -1711, -2592, 172, -120, 307, 877, 496, 465, 963, 540, 173, 112, 180
382711628, -6353, 13657, 6296, 1378, 1715, -1772, -2592, -18, -34, 143, 877, 496, 465, 963, 540, 173, 112, 180
382712415, -6353, 13657, 6296, 1378, 1715, -1772, -2592, -18, -34, 143, 894, 450, 361, 905, 505, 160, 98, 174
382713241, -6353, 13657, 6296, 1378, 1715, -1772, -2592, -18, -34, 143, 894, 450, 361, 905, 505, 160, 98, 174
382726627, -6344, 13656, 6303, 1399, 1728, -1747, -2656, 111, 58, 46, 894, 450, 361, 905, 505, 160, 98, 174
382727431, -6344, 13656, 6303, 1399, 1728, -1747, -2656, 111, 58, 46, 853, 387, 331, 844, 466, 140, 93, 136
382728244, -6344, 13656, 6303, 1399, 1728, -1747, -2656, 111, 58, 46, 853, 387, 331, 844, 466, 140, 93, 136
382749128, -6350, 13639, 6328, 1423, 1687, -1716, -2672, 231, 93, -82, 853, 387, 331, 844, 466, 140, 93, 136
382749900, -6350, 13639, 6328, 1423, 1687, -1716, -2672, 231, 93, -82, 794, 329, 317, 811, 470, 121, 85, 132
382750714, -6350, 13639, 6328, 1423, 1687, -1716, -2672, 231, 93, -82, 794, 329, 317, 811, 470, 121, 85, 132
382771675, -6343, 13618, 6372, 1458, 1640, -1587, -2641, 199, 99, -204, 794, 329, 317, 811, 470, 121, 85, 132
382772443, -6343, 13618, 6372, 1458, 1640, -1587, -2641, 199, 99, -204, 740, 289, 278, 702, 416, 118, 78, 120
382773265, -6343, 13618, 6372, 1458, 1640, -1587, -2641, 199, 99, -204, 740, 289, 278, 702, 416, 118, 78, 120
382786640, -6315, 13602, 6423, 1501, 1641, -1544, -2616, 77, 67, -252, 740, 289, 278, 702, 416, 118, 78, 120
382787436, -6315, 13602, 6423, 1501, 1641, -1544, -2616, 77, 67, -252, 623, 268, 240, 540, 362, 112, 76, 110
382788293, -6315, 13602, 6423, 1501, 1641, -1544, -2616, 77, 67, -252, 623, 268, 240, 540, 362, 112, 76, 110
382809130, -6281, 13586, 6481, 1540, 1611, -1540, -2616, 48, 41, -297, 623, 268, 240, 540, 362, 112, 76, 110
382809926, -6281, 13586, 6481, 1540, 1611, -1540, -2616, 48, 41, -297, 594, 212, 217, 458, 319, 103, 66, 100
382810707, -6281, 13586, 6481, 1540, 1611, -1540, -2616, 48, 41, -297, 594, 212, 217, 458, 319, 103, 66, 100
382831626, -6240, 13569, 6550, 1569, 1533, -1560, -2606, 25, -14, -372, 594, 212, 217, 458, 319, 103, 66, 100
382832435, -6240, 13569, 6550, 1569, 1533, -1560, -2606, 25, -14, -372, 560, 182, 165, 385, 250, 80, 56, 102
382833287, -6240, 13569, 6550, 1569, 1533, -1560, -2606, 25, -14, -372, 560, 182, 165, 385, 250, 80, 56, 102
382845987, -6189, 13550, 6631, 1592, 1489, -1505, -2578, -6, -81, -431, 560, 182, 165, 385, 250, 80, 56, 102
382846811, -6189, 13550, 6631, 1592, 1489, -1505, -2578, -6, -81, -431, 541, 155, 133, 265, 153, 85, 65, 115
382852758, -6189, 13550, 6631, 1592, 1489, -1505, -2578, -6, -81, -431, 541, 155, 133, 265, 153, 85, 65, 115
382869134, -6136, 13528, 6721, 1607, 1460, -1490, -2563, 4, -128, -475, 541, 155, 133, 265, 153, 85, 65, 115
382869923, -6136, 13528, 6721, 1607, 1460, -1490, -2563, 4, -128, -475, 459, 150, 102, 234, 134, 85, 80, 103
382870732, -6136, 13528, 6721, 1607, 1460, -1490, -2563, 4, -128, -475, 459, 150, 102, 234, 134, 85, 80, 103
382891688, -6121, 13494, 6805, 1604, 1525, -1577, -2526, 190, -141, -428, 459, 150, 102, 234, 134, 85, 80, 103
382892483, -6121, 13494, 6805, 1604, 1525, -1577, -2526, 190, -141, -428, 414, 132, 83, 189, 105, 82, 83, 114
382893283, -6121, 13494, 6805, 1604, 1525, -1577, -2526, 190, -141, -428, 414, 132, 83, 189, 105, 82, 83, 114
382906003, -6148, 13441, 6883, 1603, 1631, -1610, -2490, 395, -53, -410, 414, 132, 83, 189, 105, 82, 83, 114
382906800, -6148, 13441, 6883, 1603, 1631, -1610, -2490, 395, -53, -410, 319, 145, 76, 147, 91, 110, 184, 127
382912752, -6148, 13441, 6883, 1603, 1631, -1610, -2490, 395, -53, -410, 319, 145, 76, 147, 91, 110, 184, 127
382929157, -6210, 13374, 6958, 1604, 1651, -1657, -2479, 565, 55, -420, 319, 145, 76, 147, 91, 110, 184, 127
382929931, -6210, 13374, 6958, 1604, 1651, -1657, -2479, 565, 55, -420, 143, 146, 43, 93, 81, 135, 221, 201
382930726, -6210, 13374, 6958, 1604, 1651, -1657, -2479, 565, 55, -420, 143, 146, 43, 93, 81, 135, 221, 201
382951617, -6285, 13298, 7039, 1595, 1644, -1631, -2391, 663, 26, -441, 143, 146, 43, 93, 81, 135, 221, 201
382952376, -6285, 13298, 7039, 1595, 1644, -1631, -2391, 663, 26, -441, 146, 140, 55, 68, 77, 140, 234, 212
382953195, -6285, 13298, 7039, 1595, 1644, -1631, -2391, 663, 26, -441, 146, 140, 55, 68, 77, 140, 234, 212
382965276, -6356, 13214, 7133, 1590, 1720, -1578, -2316, 662, -25, -493, 146, 140, 55, 68, 77, 140, 234, 212
382973458, -6356, 13214, 7133, 1590, 1720, -1578, -2316, 662, -25, -493, 181, 144, 60, 68, 79, 141, 250, 239
382974247, -6356, 13214, 7133, 1590, 1720, -1578, -2316, 662, -25, -493, 181, 144, 60, 68, 79, 141, 250, 239
382989154, -6395, 13124, 7262, 1596, 1728, -1615, -2315, 516, -113, -730, 181, 144, 60, 68, 79, 141, 250, 239
382989952, -6395, 13124, 7262, 1596, 1728, -1615, -2315, 516, -113, -730, 178, 132, 62, 64, 83, 168, 269, 247
382990770, -6395, 13124, 7262, 1596, 1728, -1615, -2315, 516, -113, -730, 178, 132, 62, 64, 83, 168, 269, 247
383019223, -6386, 13047, 7400, 1632, 1745, -1750, -2333, 146, -114, -872, 178, 132, 62, 64, 83, 168, 269, 247
383019885, -6386, 13047, 7400, 1632, 1745, -1750, -2333, 146, -114, -872, 176, 107, 59, 56, 75, 153, 223, 253
383020758, -6386, 13047, 7400, 1632, 1745, -1750, -2333, 146, -114, -872, 176, 107, 59, 56, 75, 153, 223, 253
383025413, -6346, 12971, 7552, 1692, 1809, -1752, -2297, -83, -143, -1007, 176, 107, 59, 56, 75, 153, 223, 253
383033423, -6346, 12971, 7552, 1692, 1809, -1752, -2297, -83, -143, -1007, 177, 109, 60, 45, 62, 143, 199, 203
383034215, -6346, 12971, 7552, 1692, 1809, -1752, -2297, -83, -143, -1007, 177, 109, 60, 45, 62, 143, 199, 203
383049197, -6304, 12879, 7725, 1770, 1972, -1727, -2325, -90, -145, -1161, 177, 109, 60, 45, 62, 143, 199, 203
383049964, -6304, 12879, 7725, 1770, 1972, -1727, -2325, -90, -145, -1161, 171, 110, 51, 50, 64, 145, 218, 200
383050782, -6304, 12879, 7725, 1770, 1972, -1727, -2325, -90, -145, -1161, 171, 110, 51, 50, 64, 145, 218, 200
383071657, -6281, 12777, 7891, 1856, 2060, -1748, -2391, -19, -30, -1167, 171, 110, 51, 50, 64, 145, 218, 200
383072420, -6281, 12777, 7891, 1856, 2060, -1748, -2391, -19, -30, -1167, 126, 99, 44, 51, 65, 152, 219, 167
383073239, -6281, 12777, 7891, 1856, 2060, -1748, -2391, -19, -30, -1167, 126, 99, 44, 51, 65, 152, 219, 167
383085272, -6273, 12668, 8054, 1934, 2022, -1729, -2395, 68, 20, -1182, 126, 99, 44, 51, 65, 152, 219, 167
383093442, -6273, 12668, 8054, 1934, 2022, -1729, -2395, 68, 20, -1182, 146, 100, 46, 65, 67, 138, 208, 164
383094490, -6273, 12668, 8054, 1934, 2022, -1729, -2395, 68, 20, -1182, 146, 100, 46, 65, 67, 138, 208, 164
