Timestamp, Orientation x, Orientation y, Orientation z, Orientation w, Acceleration x, Acceleration y, Acceleration z, Rotation x, Rotation y, Rotation z, EMG 0, EMG 1, EMG 2, EMG 3, EMG 4, EMG 5, EMG 6, EMG 7
224982667, 453, 13563, -2037, 8950, 3918, -405, -1742, -7, -4, -10, 0, 0, 0, 0, 0, 0, 0, 0
224990176, 450, 13565, -2038, 8947, 3914, -423, -1743, 2, -17, -10, 0, 0, 0, 0, 0, 0, 0, 0
225005159, 448, 13568, -2036, 8943, 3912, -410, -1740, 8, -20, -12, 0, 0, 0, 0, 0, 0, 0, 0
225027730, 443, 13570, -2036, 8940, 3908, -426, -1743, 14, -18, -12, 0, 0, 0, 0, 0, 0, 0, 0
225051515, 443, 13570, -2036, 8940, 3926, -406, -1751, 7, -16, -12, 0, 0, 0, 0, 0, 0, 0, 0
225052289, 443, 13570, -2036, 8940, 3926, -406, -1751, 7, -16, -12, 62, 144, 78, 78, 52, 28, 26, 31
225053149, 443, 13570, -2036, 8940, 3926, -406, -1751, 7, -16, -12, 62, 144, 78, 78, 52, 28, 26, 31
225065149, 443, 13572, -2036, 8937, 3917, -423, -1740, -12, -18, -17, 62, 144, 78, 78, 52, 28, 26, 31
225073327, 443, 13572, -2036, 8937, 3917, -423, -1740, -12, -18, -17, 54, 143, 81, 86, 55, 30, 27, 33
225074106, 443, 13572, -2036, 8937, 3917, -423, -1740, -12, -18, -17, 54, 143, 81, 86, 55, 30, 27, 33
225087673, 439, 13575, -2032, 8933, 3910, -414, -1736, 24, -27, -21, 54, 143, 81, 86, 55, 30, 27, 33
225095824, 439, 13575, -2032, 8933, 3910, -414, -1736, 24, -27, -21, 76, 169, 81, 111, 53, 32, 27, 33
225096632, 439, 13575, -2032, 8933, 3910, -414, -1736, 24, -27, -21, 76, 169, 81, 111, 53, 32, 27, 33
225111539, 424, 13580, -2021, 8930, 3908, -417, -1737, 93, -39, -23, 76, 169, 81, 111, 53, 32, 27, 33
225112337, 424, 13580, -2021, 8930, 3908, -417, -1737, 93, -39, -23, 118, 231, 84, 117, 57, 31, 29, 35
225113154, 424, 13580, -2021, 8930, 3908, -417, -1737, 93, -39, -23, 118, 231, 84, 117, 57, 31, 29, 35
225125188, 412, 13584, -2009, 8927, 3915, -419, -1750, 84, -31, -34, 118, 231, 84, 117, 57, 31, 29, 35
225133304, 412, 13584, -2009, 8927, 3915, -419, -1750, 84, -31, -34, 118, 242, 81, 118, 54, 32, 33, 35
225134081, 412, 13584, -2009, 8927, 3915, -419, -1750, 84, -31, -34, 118, 242, 81, 118, 54, 32, 33, 35
225147692, 397, 13587, -2000, 8925, 3922, -453, -1757, 86, -25, -29, 118, 242, 81, 118, 54, 32, 33, 35
225155779, 397, 13587, -2000, 8925, 3922, -453, -1757, 86, -25, -29, 117, 236, 76, 137, 73, 35, 36, 36
225156632, 397, 13587, -2000, 8925, 3922, -453, -1757, 86, -25, -29, 117, 236, 76, 137, 73, 35, 36, 36
225171507, 380, 13591, -1984, 8923, 3921, -430, -1773, 122, -20, -36, 117, 236, 76, 137, 73, 35, 36, 36
225172287, 380, 13591, -1984, 8923, 3921, -430, -1773, 122, -20, -36, 148, 288, 78, 223, 165, 57, 46, 46
225173147, 380, 13591, -1984, 8923, 3921, -430, -1773, 122, -20, -36, 148, 288, 78, 223, 165, 57, 46, 46
225185135, 349, 13597, -1966, 8919, 3871, -521, -1800, 176, -15, -54, 148, 288, 78, 223, 165, 57, 46, 46
225193283, 349, 13597, -1966, 8919, 3871, -521, -1800, 176, -15, -54, 163, 378, 83, 260, 230, 65, 52, 61
225194056, 349, 13597, -1966, 8919, 3871, -521, -1800, 176, -15, -54, 163, 378, 83, 260, 230, 65, 52, 61
225207657, 286, 13602, -1951, 8918, 3798, -714, -1728, 272, -51, -31, 163, 378, 83, 260, 230, 65, 52, 61
225215816, 286, 13602, -1951, 8918, 3798, -714, -1728, 272, -51, -31, 147, 450, 93, 290, 244, 72, 58, 76
225216632, 286, 13602, -1951, 8918, 3798, -714, -1728, 272, -51, -31, 147, 450, 93, 290, 244, 72, 58, 76
225231531, 193, 13614, -1942, 8902, 3734, -945, -1849, 342, -86, -26, 147, 450, 93, 290, 244, 72, 58, 76
225232312, 193, 13614, -1942, 8902, 3734, -945, -1849, 342, -86, -26, 183, 488, 80, 302, 260, 73, 58, 87
225233172, 193, 13614, -1942, 8902, 3734, -945, -1849, 342, -86, -26, 183, 488, 80, 302, 260, 73, 58, 87
225245197, 60, 13625, -1905, 8896, 3815, -894, -1860, 650, -82, 29, 183, 488, 80, 302, 260, 73, 58, 87
225253312, 60, 13625, -1905, 8896, 3815, -894, -1860, 650, -82, 29, 206, 604, 112, 370, 395, 105, 75, 94
225254081, 60, 13625, -1905, 8896, 3815, -894, -1860, 650, -82, 29, 206, 604, 112, 370, 395, 105, 75, 94
225267680, -106, 13632, -1859, 8895, 3860, -1092, -1936, 803, -38, 22, 206, 604, 112, 370, 395, 105, 75, 94
225275777, -106, 13632, -1859, 8895, 3860, -1092, -1936, 803, -38, 22, 214, 640, 121, 359, 407, 104, 73, 103
225276637, -106, 13632, -1859, 8895, 3860, -1092, -1936, 803, -38, 22, 214, 640, 121, 359, 407, 104, 73, 103
225291510, -277, 13631, -1804, 8904, 3814, -1174, -1939, 858, 41, -14, 214, 640, 121, 359, 407, 104, 73, 103
225292321, -277, 13631, -1804, 8904, 3814, -1174, -1939, 858, 41, -14, 246, 681, 142, 331, 406, 111, 78, 115
225293107, -277, 13631, -1804, 8904, 3814, -1174, -1939, 858, 41, -14, 246, 681, 142, 331, 406, 111, 78, 115
225305150, -453, 13609, -1755, 8940, 3879, -1121, -1801, 900, 154, 97, 246, 681, 142, 331, 406, 111, 78, 115
225313258, -453, 13609, -1755, 8940, 3879, -1121, -1801, 900, 154, 97, 268, 707, 142, 313, 418, 111, 86, 162
225314059, -453, 13609, -1755, 8940, 3879, -1121, -1801, 900, 154, 97, 268, 707, 142, 313, 418, 111, 86, 162
225327636, -632, 13557, -1770, 9005, 4059, -1094, -1595, 756, 266, 500, 268, 707, 142, 313, 418, 111, 86, 162
225335822, -632, 13557, -1770, 9005, 4059, -1094, -1595, 756, 266, 500, 261, 736, 144, 300, 410, 118, 94, 166
225336631, -632, 13557, -1770, 9005, 4059, -1094, -1595, 756, 266, 500, 261, 736, 144, 300, 410, 118, 94, 166
225351487, -774, 13493, -1862, 9071, 4096, -904, -1396, 394, 261, 896, 261, 736, 144, 300, 410, 118, 94, 166
225352257, -774, 13493, -1862, 9071, 4096, -904, -1396, 394, 261, 896, 246, 648, 127, 217, 287, 105, 86, 163
225353122, -774, 13493, -1862, 9071, 4096, -904, -1396, 394, 261, 896, 246, 648, 127, 217, 287, 105, 86, 163
225365132, -842, 13442, -2065, 9097, 3928, -722, -1346, -269, 134, 1305, 246, 648, 127, 217, 287, 105, 86, 163
225373286, -842, 13442, -2065, 9097, 3928, -722, -1346, -269, 134, 1305, 229, 614, 125, 203, 282, 109, 96, 175
225374123, -842, 13442, -2065, 9097, 3928, -722, -1346, -269, 134, 1305, 229, 614, 125, 203, 282, 109, 96, 175
225387659, -918, 13407, -2411, 9056, 3864, -1193, -1463, -755, -54, 1849, 229, 614, 125, 203, 282, 109, 96, 175
225395800, -918, 13407, -2411, 9056, 3864, -1193, -1463, -755, -54, 1849, 187, 540, 111, 200, 245, 102, 94, 179
225396638, -918, 13407, -2411, 9056, 3864, -1193, -1463, -755, -54, 1849, 187, 540, 111, 200, 245, 102, 94, 179
225411482, -1063, 13378, -2805, 8969, 4041, -1383, -1644, -623, -332, 2300, 187, 540, 111, 200, 245, 102, 94, 179
225412327, -1063, 13378, -2805, 8969, 4041, -1383, -1644, -623, -332, 2300, 156, 434, 111, 194, 226, 103, 87, 139
225413112, -1063, 13378, -2805, 8969, 4041, -1383, -1644, -623, -332, 2300, 156, 434, 111, 194, 226, 103, 87, 139
225425152, -1268, 13345, -3223, 8850, 4029, -1417, -1792, -442, -501, 2635, 156, 434, 111, 194, 226, 103, 87, 139
225433254, -1268, 13345, -3223, 8850, 4029, -1417, -1792, -442, -501, 2635, 129, 348, 113, 226, 239, 96, 81, 132
225434054, -1268, 13345, -3223, 8850, 4029, -1417, -1792, -442, -501, 2635, 129, 348, 113, 226, 239, 96, 81, 132
225447678, -1529, 13303, -3660, 8702, 3947, -1404, -1794, -262, -671, 2950, 129, 348, 113, 226, 239, 96, 81, 132
225455770, -1529, 13303, -3660, 8702, 3947, -1404, -1794, -262, -671, 2950, 148, 387, 107, 212, 234, 86, 80, 145
225456650, -1529, 13303, -3660, 8702, 3947, -1404, -1794, -262, -671, 2950, 148, 387, 107, 212, 234, 86, 80, 145
225471471, -1826, 13247, -4127, 8519, 3902, -1635, -1871, -226, -824, 3229, 148, 387, 107, 212, 234, 86, 80, 145
225472279, -1826, 13247, -4127, 8519, 3902, -1635, -1871, -226, -824, 3229, 142, 378, 101, 170, 164, 72, 74, 149
225473105, -1826, 13247, -4127, 8519, 3902, -1635, -1871, -226, -824, 3229, 142, 378, 101, 170, 164, 72, 74, 149
225485108, -2158, 13177, -4591, 8310, 3936, -1725, -2015, -63, -957, 3388, 142, 378, 101, 170, 164, 72, 74, 149
225493314, -2158, 13177, -4591, 8310, 3936, -1725, -2015, -63, -957, 3388, 131, 334, 88, 179, 190, 75, 76, 156
225494109, -2158, 13177, -4591, 8310, 3936, -1725, -2015, -63, -957, 3388, 131, 334, 88, 179, 190, 75, 76, 156
225507658, -2506, 13091, -5035, 8088, 3950, -1603, -2174, 82, -1018, 3429, 131, 334, 88, 179, 190, 75, 76, 156
225515779, -2506, 13091, -5035, 8088, 3950, -1603, -2174, 82, -1018, 3429, 143, 391, 96, 183, 190, 79, 88, 162
225516623, -2506, 13091, -5035, 8088, 3950, -1603, -2174, 82, -1018, 3429, 143, 391, 96, 183, 190, 79, 88, 162
225531508, -2828, 13000, -5468, 7844, 3820, -1496, -2179, -23, -1078, 3370, 143, 391, 96, 183, 190, 79, 88, 162
225532287, -2828, 13000, -5468, 7844, 3820, -1496, -2179, -23, -1078, 3370, 210, 437, 108, 142, 184, 81, 93, 248
225533135, -2828, 13000, -5468, 7844, 3820, -1496, -2179, -23, -1078, 3370, 210, 437, 108, 142, 184, 81, 93, 248
225545193, -3151, 12896, -5894, 7580, 3616, -1614, -2172, -19, -1159, 3392, 210, 437, 108, 142, 184, 81, 93, 248
225553301, -3151, 12896, -5894, 7580, 3616, -1614, -2172, -19, -1159, 3392, 222, 456, 125, 182, 211, 84, 101, 266
225554088, -3151, 12896, -5894, 7580, 3616, -1614, -2172, -19, -1159, 3392, 222, 456, 125, 182, 211, 84, 101, 266
225567656, -3514, 12774, -6287, 7307, 3495, -1809, -2251, 243, -1267, 3402, 222, 456, 125, 182, 211, 84, 101, 266
225575753, -3514, 12774, -6287, 7307, 3495, -1809, -2251, 243, -1267, 3402, 266, 519, 171, 260, 285, 100, 101, 270
225576632, -3514, 12774, -6287, 7307, 3495, -1809, -2251, 243, -1267, 3402, 266, 519, 171, 260, 285, 100, 101, 270
225591466, -3892, 12647, -6626, 7031, 3392, -1565, -2424, 485, -1375, 3261, 266, 519, 171, 260, 285, 100, 101, 270
225592269, -3892, 12647, -6626, 7031, 3392, -1565, -2424, 485, -1375, 3261, 275, 571, 183, 278, 326, 143, 112, 276
225593109, -3892, 12647, -6626, 7031, 3392, -1565, -2424, 485, -1375, 3261, 275, 571, 183, 278, 326, 143, 112, 276
225605109, -4252, 12511, -6946, 6750, 3321, -1490, -2404, 471, -1378, 3186, 275, 571, 183, 278, 326, 143, 112, 276
225613312, -4252, 12511, -6946, 6750, 3321, -1490, -2404, 471, -1378, 3186, 276, 566, 195, 277, 333, 143, 108, 298
225614128, -4252, 12511, -6946, 6750, 3321, -1490, -2404, 471, -1378, 3186, 276, 566, 195, 277, 333, 143, 108, 298
225627636, -4594, 12368, -7249, 6466, 3159, -1494, -2303, 431, -1376, 3096, 276, 566, 195, 277, 333, 143, 108, 298
225635790, -4594, 12368, -7249, 6466, 3159, -1494, -2303, 431, -1376, 3096, 242, 608, 214, 295, 387, 143, 103, 252
225636643, -4594, 12368, -7249, 6466, 3159, -1494, -2303, 431, -1376, 3096, 242, 608, 214, 295, 387, 143, 103, 252
225650161, -4918, 12222, -7537, 6168, 3018, -1519, -2172, 346, -1421, 3032, 242, 608, 214, 295, 387, 143, 103, 252
225658269, -4918, 12222, -7537, 6168, 3018, -1519, -2172, 346, -1421, 3032, 221, 586, 227, 302, 394, 149, 103, 240
225659085, -4918, 12222, -7537, 6168, 3018, -1519, -2172, 346, -1421, 3032, 221, 586, 227, 302, 394, 149, 103, 240
225673967, -5251, 12074, -7785, 5870, 2887, -1532, -2173, 476, -1515, 2892, 221, 586, 227, 302, 394, 149, 103, 240
225674781, -5251, 12074, -7785, 5870, 2887, -1532, -2173, 476, -1515, 2892, 174, 536, 225, 254, 409, 152, 113, 225
225675674, -5251, 12074, -7785, 5870, 2887, -1532, -2173, 476, -1515, 2892, 174, 536, 225, 254, 409, 152, 113, 225
225696440, -5585, 11925, -7990, 5585, 2802, -1361, -2223, 627, -1547, 2706, 174, 536, 225, 254, 409, 152, 113, 225
225697297, -5585, 11925, -7990, 5585, 2802, -1361, -2223, 627, -1547, 2706, 197, 560, 258, 246, 419, 110, 106, 219
225698056, -5585, 11925, -7990, 5585, 2802, -1361, -2223, 627, -1547, 2706, 197, 560, 258, 246, 419, 110, 106, 219
225718974, -5908, 11776, -8162, 5316, 2692, -1262, -2224, 700, -1526, 2527, 197, 560, 258, 246, 419, 110, 106, 219
225719782, -5908, 11776, -8162, 5316, 2692, -1262, -2224, 700, -1526, 2527, 216, 629, 272, 242, 417, 106, 104, 181
225720628, -5908, 11776, -8162, 5316, 2692, -1262, -2224, 700, -1526, 2527, 216, 629, 272, 242, 417, 106, 104, 181
225741432, -6209, 11628, -8315, 5053, 2584, -1359, -2103, 642, -1485, 2392, 216, 629, 272, 242, 417, 106, 104, 181
225742284, -6209, 11628, -8315, 5053, 2584, -1359, -2103, 642, -1485, 2392, 212, 570, 256, 251, 374, 105, 103, 165
225743082, -6209, 11628, -8315, 5053, 2584, -1359, -2103, 642, -1485, 2392, 212, 570, 256, 251, 374, 105, 103, 165
225755137, -6489, 11484, -8447, 4805, 2453, -1376, -1993, 621, -1425, 2230, 212, 570, 256, 251, 374, 105, 103, 165
225763281, -6489, 11484, -8447, 4805, 2453, -1376, -1993, 621, -1425, 2230, 214, 578, 248, 251, 377, 95, 95, 152
225764093, -6489, 11484, -8447, 4805, 2453, -1376, -1993, 621, -1425, 2230, 214, 578, 248, 251, 377, 95, 95, 152
225777659, -6740, 11352, -8558, 4570, 2323, -1260, -1910, 553, -1349, 2027, 214, 578, 248, 251, 377, 95, 95, 152
225785764, -6740, 11352, -8558, 4570, 2323, -1260, -1910, 553, -1349, 2027, 215, 620, 227, 263, 322, 72, 81, 149
225786672, -6740, 11352, -8558, 4570, 2323, -1260, -1910, 553, -1349, 2027, 215, 620, 227, 263, 322, 72, 81, 149
225801484, -6962, 11234, -8650, 4353, 2204, -1231, -1880, 491, -1264, 1820, 215, 620, 227, 263, 322, 72, 81, 149
225802314, -6962, 11234, -8650, 4353, 2204, -1231, -1880, 491, -1264, 1820, 195, 563, 179, 278, 271, 77, 75, 133
225803107, -6962, 11234, -8650, 4353, 2204, -1231, -1880, 491, -1264, 1820, 195, 563, 179, 278, 271, 77, 75, 133
225823939, -7032, 11210, -8677, 4246, 2093, -1214, -1806, 485, -1183, 1590, 195, 563, 179, 278, 271, 77, 75, 133
225824757, -7032, 11210, -8677, 4246, 2093, -1214, -1806, 485, -1183, 1590, 169, 479, 132, 284, 300, 75, 69, 144
225825633, -7032, 11210, -8677, 4246, 2093, -1214, -1806, 485, -1183, 1590, 169, 479, 132, 284, 300, 75, 69, 144
225846469, -7085, 11198, -8687, 4169, 2039, -1204, -1689, 457, -1068, 1370, 169, 479, 132, 284, 300, 75, 69, 144
225847284, -7085, 11198, -8687, 4169, 2039, -1204, -1689, 457, -1068, 1370, 178, 479, 136, 269, 290, 71, 70, 140
225848146, -7085, 11198, -8687, 4169, 2039, -1204, -1689, 457, -1068, 1370, 178, 479, 136, 269, 290, 71, 70, 140
225869705, -7117, 11199, -8686, 4114, 1970, -1250, -1596, 369, -947, 1186, 178, 479, 136, 269, 290, 71, 70, 140
225870519, -7145, 11211, -8664, 4078, 1861, -1275, -1536, 375, -893, 964, 178, 479, 136, 269, 290, 71, 70, 140
225871313, -7145, 11211, -8664, 4078, 1861, -1275, -1536, 375, -893, 964, 192, 486, 142, 288, 339, 82, 74, 152
225872147, -7145, 11211, -8664, 4078, 1861, -1275, -1536, 375, -893, 964, 192, 486, 142, 288, 339, 82, 74, 152
225891434, -7173, 11237, -8616, 4061, 1774, -1256, -1481, 414, -884, 741, 192, 486, 142, 288, 339, 82, 74, 152
225892273, -7173, 11237, -8616, 4061, 1774, -1256, -1481, 414, -884, 741, 181, 425, 148, 272, 336, 84, 72, 155
225893057, -7173, 11237, -8616, 4061, 1774, -1256, -1481, 414, -884, 741, 181, 425, 148, 272, 336, 84, 72, 155
225913967, -7202, 11271, -8541, 4070, 1759, -1254, -1452, 505, -847, 542, 181, 425, 148, 272, 336, 84, 72, 155
225914796, -7202, 11271, -8541, 4070, 1759, -1254, -1452, 505, -847, 542, 192, 421, 153, 243, 327, 79, 74, 152
225915631, -7202, 11271, -8541, 4070, 1759, -1254, -1452, 505, -847, 542, 192, 421, 153, 243, 327, 79, 74, 152
225927656, -7223, 11315, -8448, 4107, 1742, -1244, -1420, 548, -763, 352, 192, 421, 153, 243, 327, 79, 74, 152
225935732, -7223, 11315, -8448, 4107, 1742, -1244, -1420, 548, -763, 352, 184, 459, 156, 242, 306, 82, 74, 136
225936561, -7223, 11315, -8448, 4107, 1742, -1244, -1420, 548, -763, 352, 184, 459, 156, 242, 306, 82, 74, 136
225950120, -7223, 11370, -8344, 4165, 1715, -1304, -1460, 522, -641, 182, 184, 459, 156, 242, 306, 82, 74, 136
225958293, -7223, 11370, -8344, 4165, 1715, -1304, -1460, 522, -641, 182, 173, 446, 156, 256, 323, 93, 76, 125
225959098, -7223, 11370, -8344, 4165, 1715, -1304, -1460, 522, -641, 182, 173, 446, 156, 256, 323, 93, 76, 125
225972637, -7200, 11438, -8234, 4239, 1689, -1236, -1435, 467, -529, 26, 173, 446, 156, 256, 323, 93, 76, 125
225980769, -7200, 11438, -8234, 4239, 1689, -1236, -1435, 467, -529, 26, 165, 490, 141, 215, 256, 109, 84, 128
225981633, -7200, 11438, -8234, 4239, 1689, -1236, -1435, 467, -529, 26, 165, 490, 141, 215, 256, 109, 84, 128
225995107, -7146, 11522, -8119, 4326, 1713, -1264, -1446, 350, -414, -117, 165, 490, 141, 215, 256, 109, 84, 128
226003278, -7146, 11522, -8119, 4326, 1713, -1264, -1446, 350, -414, -117, 179, 526, 158, 263, 292, 139, 116, 133
226004081, -7146, 11522, -8119, 4326, 1713, -1264, -1446, 350, -414, -117, 179, 526, 158, 263, 292, 139, 116, 133
226025158, -7072, 11614, -8000, 4421, 1709, -1304, -1431, 265, -333, -215, 179, 526, 158, 263, 292, 139, 116, 133
226033248, -7072, 11614, -8000, 4421, 1709, -1304, -1431, 265, -333, -215, 173, 548, 152, 273, 298, 147, 116, 132
226034065, -7072, 11614, -8000, 4421, 1709, -1304, -1431, 265, -333, -215, 173, 548, 152, 273, 298, 147, 116, 132
226048364, -6982, 11708, -7889, 4514, 1716, -1336, -1415, 153, -269, -218, 173, 548, 152, 273, 298, 147, 116, 132
226049159, -6877, 11800, -7790, 4607, 1701, -1405, -1392, 52, -180, -221, 173, 548, 152, 273, 298, 147, 116, 132
226055751, -6877, 11800, -7790, 4607, 1701, -1405, -1392, 52, -180, -221, 177, 510, 155, 278, 293, 189, 154, 149
226056617, -6877, 11800, -7790, 4607, 1701, -1405, -1392, 52, -180, -221, 177, 510, 155, 278, 293, 189, 154, 149
226078938, -6760, 11889, -7701, 4700, 1698, -1441, -1348, -47, -103, -209, 177, 510, 155, 278, 293, 189, 154, 149
226079773, -6760, 11889, -7701, 4700, 1698, -1441, -1348, -47, -103, -209, 171, 530, 154, 255, 286, 196, 174, 153
226080631, -6760, 11889, -7701, 4700, 1698, -1441, -1348, -47, -103, -209, 171, 530, 154, 255, 286, 196, 174, 153
226100145, -6621, 11983, -7629, 4776, 1648, -1423, -1392, -202, -59, -197, 171, 530, 154, 255, 286, 196, 174, 153
226108254, -6621, 11983, -7629, 4776, 1648, -1423, -1392, -202, -59, -197, 179, 487, 162, 255, 282, 199, 173, 134
226109082, -6621, 11983, -7629, 4776, 1648, -1423, -1392, -202, -59, -197, 179, 487, 162, 255, 282, 199, 173, 134
226122663, -6463, 12079, -7577, 4834, 1614, -1519, -1449, -376, -23, -148, 179, 487, 162, 255, 282, 199, 173, 134
226131500, -6310, 12163, -7529, 4897, 1617, -1664, -1434, -388, 15, -134, 179, 487, 162, 255, 282, 199, 173, 134
226132310, -6310, 12163, -7529, 4897, 1617, -1664, -1434, -388, 15, -134, 165, 453, 161, 227, 247, 192, 158, 119
226133084, -6310, 12163, -7529, 4897, 1617, -1664, -1434, -388, 15, -134, 165, 453, 161, 227, 247, 192, 158, 119
226152671, -6177, 12233, -7476, 4973, 1568, -1759, -1458, -258, 55, -163, 165, 453, 161, 227, 247, 192, 158, 119
226160769, -6177, 12233, -7476, 4973, 1568, -1759, -1458, -258, 55, -163, 146, 430, 168, 220, 235, 197, 162, 119
226161632, -6177, 12233, -7476, 4973, 1568, -1759, -1458, -258, 55, -163, 146, 430, 168, 220, 235, 197, 162, 119
226175138, -6049, 12298, -7424, 5048, 1507, -1708, -1536, -194, 83, -184, 146, 430, 168, 220, 235, 197, 162, 119
226183257, -6049, 12298, -7424, 5048, 1507, -1708, -1536, -194, 83, -184, 134, 399, 187, 221, 220, 157, 124, 97
226184105, -6049, 12298, -7424, 5048, 1507, -1708, -1536, -194, 83, -184, 134, 399, 187, 221, 220, 157, 124, 97
226197664, -5941, 12351, -7367, 5131, 1502, -1776, -1517, -91, 80, -186, 134, 399, 187, 221, 220, 157, 124, 97
226205764, -5941, 12351, -7367, 5131, 1502, -1776, -1517, -91, 80, -186, 127, 357, 183, 226, 204, 149, 96, 86
226206632, -5941, 12351, -7367, 5131, 1502, -1776, -1517, -91, 80, -186, 127, 357, 183, 226, 204, 149, 96, 86
226228311, -5846, 12397, -7299, 5224, 1577, -1722, -1511, 30, 76, -194, 127, 357, 183, 226, 204, 149, 96, 86
226229109, -5751, 12442, -7232, 5315, 1574, -1665, -1500, 31, 89, -204, 127, 357, 183, 226, 204, 149, 96, 86
226235772, -5751, 12442, -7232, 5315, 1574, -1665, -1500, 31, 89, -204, 103, 386, 175, 220, 194, 127, 87, 90
226236632, -5751, 12442, -7232, 5315, 1574, -1665, -1500, 31, 89, -204, 103, 386, 175, 220, 194, 127, 87, 90
226250153, -5633, 12493, -7174, 5401, 1593, -1587, -1548, -65, 139, -218, 103, 386, 175, 220, 194, 127, 87, 90
226258275, -5633, 12493, -7174, 5401, 1593, -1587, -1548, -65, 139, -218, 125, 394, 154, 183, 172, 104, 75, 131
226259045, -5633, 12493, -7174, 5401, 1593, -1587, -1548, -65, 139, -218, 125, 394, 154, 183, 172, 104, 75, 131
226281476, -5458, 12550, -7139, 5494, 1713, -1351, -1586, -271, 330, -197, 125, 394, 154, 183, 172, 104, 75, 131
226282281, -5458, 12550, -7139, 5494, 1713, -1351, -1586, -271, 330, -197, 118, 372, 150, 196, 174, 93, 94, 133
226283146, -5458, 12550, -7139, 5494, 1713, -1351, -1586, -271, 330, -197, 118, 372, 150, 196, 174, 93, 94, 133
226302641, -5159, 12624, -7166, 5577, 1802, -1187, -1689, -905, 665, -163, 118, 372, 150, 196, 174, 93, 94, 133
226310741, -5159, 12624, -7166, 5577, 1802, -1187, -1689, -905, 665, -163, 120, 394, 134, 228, 215, 100, 107, 134
226311535, -5159, 12624, -7166, 5577, 1802, -1187, -1689, -905, 665, -163, 120, 394, 134, 228, 215, 100, 107, 134
226325137, -4817, 12677, -7302, 5584, 1739, -1219, -1819, -1723, 930, -73, 120, 394, 134, 228, 215, 100, 107, 134
226333980, -4398, 12739, -7480, 5554, 1698, -1346, -1942, -2254, 1025, -17, 120, 394, 134, 228, 215, 100, 107, 134
226334779, -4398, 12739, -7480, 5554, 1698, -1346, -1942, -2254, 1025, -17, 127, 418, 165, 344, 236, 100, 108, 139
226335632, -4398, 12739, -7480, 5554, 1698, -1346, -1942, -2254, 1025, -17, 127, 418, 165, 344, 236, 100, 108, 139
226355142, -3920, 12802, -7683, 5490, 1684, -1385, -2102, -2653, 1067, 11, 127, 418, 165, 344, 236, 100, 108, 139
226363279, -3920, 12802, -7683, 5490, 1684, -1385, -2102, -2653, 1067, 11, 124, 416, 264, 435, 300, 124, 116, 134
226364105, -3920, 12802, -7683, 5490, 1684, -1385, -2102, -2653, 1067, 11, 124, 416, 264, 435, 300, 124, 116, 134
226377634, -3404, 12855, -7900, 5400, 1651, -1483, -2254, -2912, 1093, 46, 124, 416, 264, 435, 300, 124, 116, 134
226386447, -3404, 12855, -7900, 5400, 1651, -1483, -2254, -2912, 1093, 46, 133, 421, 373, 608, 419, 168, 135, 105
226387233, -3404, 12855, -7900, 5400, 1651, -1483, -2254, -2912, 1093, 46, 133, 421, 373, 608, 419, 168, 135, 105
226388181, -2900, 12885, -8117, 5303, 1607, -1587, -2315, -2879, 1079, 114, 133, 421, 373, 608, 419, 168, 135, 105
226395364, -2900, 12885, -8117, 5303, 1607, -1587, -2315, -2879, 1079, 114, 141, 444, 446, 663, 460, 178, 127, 104
226396157, -2900, 12885, -8117, 5303, 1607, -1587, -2315, -2879, 1079, 114, 141, 444, 446, 663, 460, 178, 127, 104
226397023, -2900, 12885, -8117, 5303, 1607, -1587, -2315, -2879, 1079, 114, 141, 444, 446, 663, 460, 178, 127, 104
226397783, -2900, 12885, -8117, 5303, 1607, -1587, -2315, -2879, 1079, 114, 141, 444, 446, 663, 460, 178, 127, 104
226402761, -2900, 12885, -8117, 5303, 1607, -1587, -2315, -2879, 1079, 114, 141, 444, 446, 663, 460, 178, 127, 104
226403630, -2900, 12885, -8117, 5303, 1607, -1587, -2315, -2879, 1079, 114, 141, 444, 446, 663, 460, 178, 127, 104
226404310, -2900, 12885, -8117, 5303, 1607, -1587, -2315, -2879, 1079, 114, 141, 444, 446, 663, 460, 178, 127, 104
226405182, -2900, 12885, -8117, 5303, 1607, -1587, -2315, -2879, 1079, 114, 141, 444, 446, 663, 460, 178, 127, 104
226410334, -2900, 12885, -8117, 5303, 1607, -1587, -2315, -2879, 1079, 114, 152, 426, 466, 679, 449, 178, 129, 112
226411107, -2900, 12885, -8117, 5303, 1607, -1587, -2315, -2879, 1079, 114, 152, 426, 466, 679, 449, 178, 129, 112
226411973, -2900, 12885, -8117, 5303, 1607, -1587, -2315, -2879, 1079, 114, 152, 426, 466, 679, 449, 178, 129, 112
226412756, -2900, 12885, -8117, 5303, 1607, -1587, -2315, -2879, 1079, 114, 152, 426, 466, 679, 449, 178, 129, 112
226417695, -2900, 12885, -8117, 5303, 1607, -1587, -2315, -2879, 1079, 114, 152, 426, 466, 679, 449, 178, 129, 112
226418509, -2900, 12885, -8117, 5303, 1607, -1587, -2315, -2879, 1079, 114, 152, 426, 466, 679, 449, 178, 129, 112
226419318, -2900, 12885, -8117, 5303, 1607, -1587, -2315, -2879, 1079, 114, 152, 426, 466, 679, 449, 178, 129, 112
226420117, -2900, 12885, -8117, 5303, 1607, -1587, -2315, -2879, 1079, 114, 152, 426, 466, 679, 449, 178, 129, 112
226425208, -2900, 12885, -8117, 5303, 1607, -1587, -2315, -2879, 1079, 114, 152, 426, 466, 679, 449, 178, 129, 112
226426171, -2900, 12885, -8117, 5303, 1607, -1587, -2315, -2879, 1079, 114, 160, 418, 497, 710, 484, 184, 131, 117
226426932, -2900, 12885, -8117, 5303, 1607, -1587, -2315, -2879, 1079, 114, 160, 418, 497, 710, 484, 184, 131, 117
226427798, -2900, 12885, -8117, 5303, 1607, -1587, -2315, -2879, 1079, 114, 160, 418, 497, 710, 484, 184, 131, 117
226432832, -2900, 12885, -8117, 5303, 1607, -1587, -2315, -2879, 1079, 114, 160, 418, 497, 710, 484, 184, 131, 117
226433658, -2900, 12885, -8117, 5303, 1607, -1587, -2315, -2879, 1079, 114, 160, 418, 497, 710, 484, 184, 131, 117
226434459, -2900, 12885, -8117, 5303, 1607, -1587, -2315, -2879, 1079, 114, 160, 418, 497, 710, 484, 184, 131, 117
226435255, -2900, 12885, -8117, 5303, 1607, -1587, -2315, -2879, 1079, 114, 160, 418, 497, 710, 484, 184, 131, 117
226440204, -2900, 12885, -8117, 5303, 1607, -1587, -2315, -2879, 1079, 114, 160, 418, 497, 710, 484, 184, 131, 117
226441043, -2900, 12885, -8117, 5303, 1607, -1587, -2315, -2879, 1079, 114, 160, 418, 497, 710, 484, 184, 131, 117
226441879, -2900, 12885, -8117, 5303, 1607, -1587, -2315, -2879, 1079, 114, 160, 418, 497, 710, 484, 184, 131, 117
226442656, -2900, 12885, -8117, 5303, 1607, -1587, -2315, -2879, 1079, 114, 160, 418, 497, 710, 484, 184, 131, 117
226447746, -2900, 12885, -8117, 5303, 1607, -1587, -2315, -2879, 1079, 114, 160, 418, 497, 710, 484, 184, 131, 117
226448657, -2407, 12902, -8328, 5179, 1551, -1590, -2406, -2899, 952, 157, 160, 418, 497, 710, 484, 184, 131, 117
226449508, -2407, 12902, -8328, 5179, 1551, -1590, -2406, -2899, 952, 157, 165, 416, 528, 771, 491, 179, 130, 122
226450301, -2407, 12902, -8328, 5179, 1551, -1590, -2406, -2899, 952, 157, 165, 416, 528, 771, 491, 179, 130, 122
226455319, -2407, 12902, -8328, 5179, 1551, -1590, -2406, -2899, 952, 157, 165, 416, 528, 771, 491, 179, 130, 122
226456109, -2407, 12902, -8328, 5179, 1551, -1590, -2406, -2899, 952, 157, 165, 416, 528, 771, 491, 179, 130, 122
226456923, -2407, 12902, -8328, 5179, 1551, -1590, -2406, -2899, 952, 157, 165, 416, 528, 771, 491, 179, 130, 122
226457733, -2407, 12902, -8328, 5179, 1551, -1590, -2406, -2899, 952, 157, 165, 416, 528, 771, 491, 179, 130, 122
226462660, -2407, 12902, -8328, 5179, 1551, -1590, -2406, -2899, 952, 157, 165, 416, 528, 771, 491, 179, 130, 122
226463484, -2407, 12902, -8328, 5179, 1551, -1590, -2406, -2899, 952, 157, 165, 416, 528, 771, 491, 179, 130, 122
226464287, -2407, 12902, -8328, 5179, 1551, -1590, -2406, -2899, 952, 157, 165, 416, 528, 771, 491, 179, 130, 122
226465106, -2407, 12902, -8328, 5179, 1551, -1590, -2406, -2899, 952, 157, 165, 416, 528, 771, 491, 179, 130, 122
226470209, -2407, 12902, -8328, 5179, 1551, -1590, -2406, -2899, 952, 157, 165, 416, 528, 771, 491, 179, 130, 122
226471173, -2407, 12902, -8328, 5179, 1551, -1590, -2406, -2899, 952, 157, 157, 419, 536, 813, 526, 173, 145, 132
226471932, -2407, 12902, -8328, 5179, 1551, -1590, -2406, -2899, 952, 157, 157, 419, 536, 813, 526, 173, 145, 132
226472782, -2407, 12902, -8328, 5179, 1551, -1590, -2406, -2899, 952, 157, 157, 419, 536, 813, 526, 173, 145, 132
226477832, -2407, 12902, -8328, 5179, 1551, -1590, -2406, -2899, 952, 157, 157, 419, 536, 813, 526, 173, 145, 132
226478673, -2407, 12902, -8328, 5179, 1551, -1590, -2406, -2899, 952, 157, 157, 419, 536, 813, 526, 173, 145, 132
226479460, -2407, 12902, -8328, 5179, 1551, -1590, -2406, -2899, 952, 157, 157, 419, 536, 813, 526, 173, 145, 132
226480299, -2407, 12902, -8328, 5179, 1551, -1590, -2406, -2899, 952, 157, 157, 419, 536, 813, 526, 173, 145, 132
226485206, -2407, 12902, -8328, 5179, 1551, -1590, -2406, -2899, 952, 157, 157, 419, 536, 813, 526, 173, 145, 132
226486060, -2407, 12902, -8328, 5179, 1551, -1590, -2406, -2899, 952, 157, 157, 419, 536, 813, 526, 173, 145, 132
226486837, -2407, 12902, -8328, 5179, 1551, -1590, -2406, -2899, 952, 157, 157, 419, 536, 813, 526, 173, 145, 132
226487698, -2407, 12902, -8328, 5179, 1551, -1590, -2406, -2899, 952, 157, 157, 419, 536, 813, 526, 173, 145, 132
226492775, -2407, 12902, -8328, 5179, 1551, -1590, -2406, -2899, 952, 157, 157, 419, 536, 813, 526, 173, 145, 132
226493661, -2407, 12902, -8328, 5179, 1551, -1590, -2406, -2899, 952, 157, 159, 420, 516, 813, 513, 168, 147, 143
226494458, -2407, 12902, -8328, 5179, 1551, -1590, -2406, -2899, 952, 157, 159, 420, 516, 813, 513, 168, 147, 143
226495297, -2407, 12902, -8328, 5179, 1551, -1590, -2406, -2899, 952, 157, 159, 420, 516, 813, 513, 168, 147, 143
226500379, -2407, 12902, -8328, 5179, 1551, -1590, -2406, -2899, 952, 157, 159, 420, 516, 813, 513, 168, 147, 143
226501150, -2407, 12902, -8328, 5179, 1551, -1590, -2406, -2899, 952, 157, 159, 420, 516, 813, 513, 168, 147, 143
226501984, -2407, 12902, -8328, 5179, 1551, -1590, -2406, -2899, 952, 157, 159, 420, 516, 813, 513, 168, 147, 143
226502783, -2407, 12902, -8328, 5179, 1551, -1590, -2406, -2899, 952, 157, 159, 420, 516, 813, 513, 168, 147, 143
226507742, -2407, 12902, -8328, 5179, 1551, -1590, -2406, -2899, 952, 157, 159, 420, 516, 813, 513, 168, 147, 143
226508640, -2407, 12902, -8328, 5179, 1551, -1590, -2406, -2899, 952, 157, 159, 420, 516, 813, 513, 168, 147, 143
226509352, -2407, 12902, -8328, 5179, 1551, -1590, -2406, -2899, 952, 157, 159, 420, 516, 813, 513, 168, 147, 143
226510203, -2407, 12902, -8328, 5179, 1551, -1590, -2406, -2899, 952, 157, 159, 420, 516, 813, 513, 168, 147, 143
226515260, -2407, 12902, -8328, 5179, 1551, -1590, -2406, -2899, 952, 157, 159, 420, 516, 813, 513, 168, 147, 143
226516225, -1955, 12911, -8514, 5040, 1510, -1810, -2482, -2746, 776, 122, 159, 420, 516, 813, 513, 168, 147, 143
226517029, -1955, 12911, -8514, 5040, 1510, -1810, -2482, -2746, 776, 122, 166, 497, 519, 917, 579, 176, 144, 146
226517830, -1955, 12911, -8514, 5040, 1510, -1810, -2482, -2746, 776, 122, 166, 497, 519, 917, 579, 176, 144, 146
226522835, -1955, 12911, -8514, 5040, 1510, -1810, -2482, -2746, 776, 122, 166, 497, 519, 917, 579, 176, 144, 146
226523650, -1955, 12911, -8514, 5040, 1510, -1810, -2482, -2746, 776, 122, 166, 497, 519, 917, 579, 176, 144, 146
226524484, -1955, 12911, -8514, 5040, 1510, -1810, -2482, -2746, 776, 122, 166, 497, 519, 917, 579, 176, 144, 146
226525268, -1955, 12911, -8514, 5040, 1510, -1810, -2482, -2746, 776, 122, 166, 497, 519, 917, 579, 176, 144, 146
226530206, -1955, 12911, -8514, 5040, 1510, -1810, -2482, -2746, 776, 122, 166, 497, 519, 917, 579, 176, 144, 146
226531058, -1955, 12911, -8514, 5040, 1510, -1810, -2482, -2746, 776, 122, 166, 497, 519, 917, 579, 176, 144, 146
226531857, -1955, 12911, -8514, 5040, 1510, -1810, -2482, -2746, 776, 122, 166, 497, 519, 917, 579, 176, 144, 146
226532697, -1955, 12911, -8514, 5040, 1510, -1810, -2482, -2746, 776, 122, 166, 497, 519, 917, 579, 176, 144, 146
226537732, -1955, 12911, -8514, 5040, 1510, -1810, -2482, -2746, 776, 122, 166, 497, 519, 917, 579, 176, 144, 146
226538700, -1955, 12911, -8514, 5040, 1510, -1810, -2482, -2746, 776, 122, 197, 575, 520, 884, 569, 171, 148, 149
226539459, -1955, 12911, -8514, 5040, 1510, -1810, -2482, -2746, 776, 122, 197, 575, 520, 884, 569, 171, 148, 149
226540323, -1955, 12911, -8514, 5040, 1510, -1810, -2482, -2746, 776, 122, 197, 575, 520, 884, 569, 171, 148, 149
226545367, -1955, 12911, -8514, 5040, 1510, -1810, -2482, -2746, 776, 122, 197, 575, 520, 884, 569, 171, 148, 149
226546199, -1955, 12911, -8514, 5040, 1510, -1810, -2482, -2746, 776, 122, 197, 575, 520, 884, 569, 171, 148, 149
226547003, -1955, 12911, -8514, 5040, 1510, -1810, -2482, -2746, 776, 122, 197, 575, 520, 884, 569, 171, 148, 149
226547793, -1955, 12911, -8514, 5040, 1510, -1810, -2482, -2746, 776, 122, 197, 575, 520, 884, 569, 171, 148, 149
226552773, -1955, 12911, -8514, 5040, 1510, -1810, -2482, -2746, 776, 122, 197, 575, 520, 884, 569, 171, 148, 149
226553655, -1955, 12911, -8514, 5040, 1510, -1810, -2482, -2746, 776, 122, 197, 575, 520, 884, 569, 171, 148, 149
226554309, -1955, 12911, -8514, 5040, 1510, -1810, -2482, -2746, 776, 122, 197, 575, 520, 884, 569, 171, 148, 149
226555204, -1955, 12911, -8514, 5040, 1510, -1810, -2482, -2746, 776, 122, 197, 575, 520, 884, 569, 171, 148, 149
226560257, -1955, 12911, -8514, 5040, 1510, -1810, -2482, -2746, 776, 122, 197, 575, 520, 884, 569, 171, 148, 149
226561195, -1595, 12902, -8663, 4937, 1510, -1996, -2594, -2188, 670, 127, 197, 575, 520, 884, 569, 171, 148, 149
226562006, -1595, 12902, -8663, 4937, 1510, -1996, -2594, -2188, 670, 127, 195, 556, 468, 825, 581, 177, 144, 144
226562829, -1595, 12902, -8663, 4937, 1510, -1996, -2594, -2188, 670, 127, 195, 556, 468, 825, 581, 177, 144, 144
226567834, -1595, 12902, -8663, 4937, 1510, -1996, -2594, -2188, 670, 127, 195, 556, 468, 825, 581, 177, 144, 144
226568623, -1595, 12902, -8663, 4937, 1510, -1996, -2594, -2188, 670, 127, 195, 556, 468, 825, 581, 177, 144, 144
226569435, -1595, 12902, -8663, 4937, 1510, -1996, -2594, -2188, 670, 127, 195, 556, 468, 825, 581, 177, 144, 144
226570231, -1595, 12902, -8663, 4937, 1510, -1996, -2594, -2188, 670, 127, 195, 556, 468, 825, 581, 177, 144, 144
226575181, -1595, 12902, -8663, 4937, 1510, -1996, -2594, -2188, 670, 127, 195, 556, 468, 825, 581, 177, 144, 144
226576006, -1595, 12902, -8663, 4937, 1510, -1996, -2594, -2188, 670, 127, 195, 556, 468, 825, 581, 177, 144, 144
226576831, -1595, 12902, -8663, 4937, 1510, -1996, -2594, -2188, 670, 127, 195, 556, 468, 825, 581, 177, 144, 144
226577630, -1595, 12902, -8663, 4937, 1510, -1996, -2594, -2188, 670, 127, 195, 556, 468, 825, 581, 177, 144, 144
226582731, -1595, 12902, -8663, 4937, 1510, -1996, -2594, -2188, 670, 127, 195, 556, 468, 825, 581, 177, 144, 144
226583698, -1310, 12884, -8773, 4875, 1556, -1853, -2617, -1662, 624, 91, 195, 556, 468, 825, 581, 177, 144, 144
226584487, -1310, 12884, -8773, 4875, 1556, -1853, -2617, -1662, 624, 91, 190, 552, 432, 715, 540, 158, 117, 134
226585327, -1310, 12884, -8773, 4875, 1556, -1853, -2617, -1662, 624, 91, 190, 552, 432, 715, 540, 158, 117, 134
226590328, -1310, 12884, -8773, 4875, 1556, -1853, -2617, -1662, 624, 91, 190, 552, 432, 715, 540, 158, 117, 134
226591119, -1310, 12884, -8773, 4875, 1556, -1853, -2617, -1662, 624, 91, 190, 552, 432, 715, 540, 158, 117, 134
226591931, -1310, 12884, -8773, 4875, 1556, -1853, -2617, -1662, 624, 91, 190, 552, 432, 715, 540, 158, 117, 134
226592798, -1310, 12884, -8773, 4875, 1556, -1853, -2617, -1662, 624, 91, 190, 552, 432, 715, 540, 158, 117, 134
226597683, -1310, 12884, -8773, 4875, 1556, -1853, -2617, -1662, 624, 91, 190, 552, 432, 715, 540, 158, 117, 134
226598512, -1310, 12884, -8773, 4875, 1556, -1853, -2617, -1662, 624, 91, 190, 552, 432, 715, 540, 158, 117, 134
226599314, -1310, 12884, -8773, 4875, 1556, -1853, -2617, -1662, 624, 91, 190, 552, 432, 715, 540, 158, 117, 134
226600130, -1310, 12884, -8773, 4875, 1556, -1853, -2617, -1662, 624, 91, 190, 552, 432, 715, 540, 158, 117, 134
226605255, -1310, 12884, -8773, 4875, 1556, -1853, -2617, -1662, 624, 91, 190, 552, 432, 715, 540, 158, 117, 134
226606235, -1074, 12868, -8840, 4853, 1528, -1734, -2702, -1361, 569, -57, 190, 552, 432, 715, 540, 158, 117, 134
226607006, -1074, 12868, -8840, 4853, 1528, -1734, -2702, -1361, 569, -57, 214, 576, 433, 737, 547, 151, 114, 131
226607846, -1074, 12868, -8840, 4853, 1528, -1734, -2702, -1361, 569, -57, 214, 576, 433, 737, 547, 151, 114, 131
226612823, -1074, 12868, -8840, 4853, 1528, -1734, -2702, -1361, 569, -57, 214, 576, 433, 737, 547, 151, 114, 131
226613633, -1074, 12868, -8840, 4853, 1528, -1734, -2702, -1361, 569, -57, 214, 576, 433, 737, 547, 151, 114, 131
226614434, -1074, 12868, -8840, 4853, 1528, -1734, -2702, -1361, 569, -57, 214, 576, 433, 737, 547, 151, 114, 131
226615264, -1074, 12868, -8840, 4853, 1528, -1734, -2702, -1361, 569, -57, 214, 576, 433, 737, 547, 151, 114, 131
226620206, -1074, 12868, -8840, 4853, 1528, -1734, -2702, -1361, 569, -57, 214, 576, 433, 737, 547, 151, 114, 131
226621030, -1074, 12868, -8840, 4853, 1528, -1734, -2702, -1361, 569, -57, 214, 576, 433, 737, 547, 151, 114, 131
226621831, -1074, 12868, -8840, 4853, 1528, -1734, -2702, -1361, 569, -57, 214, 576, 433, 737, 547, 151, 114, 131
226622655, -1074, 12868, -8840, 4853, 1528, -1734, -2702, -1361, 569, -57, 214, 576, 433, 737, 547, 151, 114, 131
226627725, -1074, 12868, -8840, 4853, 1528, -1734, -2702, -1361, 569, -57, 214, 576, 433, 737, 547, 151, 114, 131
226628674, -866, 12865, -8877, 4835, 1572, -1606, -2809, -1134, 481, -177, 214, 576, 433, 737, 547, 151, 114, 131
226629460, -866, 12865, -8877, 4835, 1572, -1606, -2809, -1134, 481, -177, 198, 541, 493, 639, 537, 160, 126, 134
226630281, -866, 12865, -8877, 4835, 1572, -1606, -2809, -1134, 481, -177, 198, 541, 493, 639, 537, 160, 126, 134
226635306, -866, 12865, -8877, 4835, 1572, -1606, -2809, -1134, 481, -177, 198, 541, 493, 639, 537, 160, 126, 134
226636171, -866, 12865, -8877, 4835, 1572, -1606, -2809, -1134, 481, -177, 198, 541, 493, 639, 537, 160, 126, 134
226636957, -866, 12865, -8877, 4835, 1572, -1606, -2809, -1134, 481, -177, 198, 541, 493, 639, 537, 160, 126, 134
226637797, -866, 12865, -8877, 4835, 1572, -1606, -2809, -1134, 481, -177, 198, 541, 493, 639, 537, 160, 126, 134
226642707, -866, 12865, -8877, 4835, 1572, -1606, -2809, -1134, 481, -177, 198, 541, 493, 639, 537, 160, 126, 134
226643543, -866, 12865, -8877, 4835, 1572, -1606, -2809, -1134, 481, -177, 198, 541, 493, 639, 537, 160, 126, 134
226644340, -866, 12865, -8877, 4835, 1572, -1606, -2809, -1134, 481, -177, 198, 541, 493, 639, 537, 160, 126, 134
226645157, -866, 12865, -8877, 4835, 1572, -1606, -2809, -1134, 481, -177, 198, 541, 493, 639, 537, 160, 126, 134
226650253, -866, 12865, -8877, 4835, 1572, -1606, -2809, -1134, 481, -177, 198, 541, 493, 639, 537, 160, 126, 134
226651188, -656, 12866, -8903, 4816, 1647, -1376, -2856, -1050, 468, -197, 198, 541, 493, 639, 537, 160, 126, 134
226652005, -656, 12866, -8903, 4816, 1647, -1376, -2856, -1050, 468, -197, 182, 502, 495, 637, 542, 166, 118, 126
226652793, -656, 12866, -8903, 4816, 1647, -1376, -2856, -1050, 468, -197, 182, 502, 495, 637, 542, 166, 118, 126
226657775, -656, 12866, -8903, 4816, 1647, -1376, -2856, -1050, 468, -197, 182, 502, 495, 637, 542, 166, 118, 126
226658648, -656, 12866, -8903, 4816, 1647, -1376, -2856, -1050, 468, -197, 182, 502, 495, 637, 542, 166, 118, 126
226659434, -656, 12866, -8903, 4816, 1647, -1376, -2856, -1050, 468, -197, 182, 502, 495, 637, 542, 166, 118, 126
226660260, -656, 12866, -8903, 4816, 1647, -1376, -2856, -1050, 468, -197, 182, 502, 495, 637, 542, 166, 118, 126
226665227, -656, 12866, -8903, 4816, 1647, -1376, -2856, -1050, 468, -197, 182, 502, 495, 637, 542, 166, 118, 126
226666007, -656, 12866, -8903, 4816, 1647, -1376, -2856, -1050, 468, -197, 182, 502, 495, 637, 542, 166, 118, 126
226666834, -656, 12866, -8903, 4816, 1647, -1376, -2856, -1050, 468, -197, 182, 502, 495, 637, 542, 166, 118, 126
226667632, -656, 12866, -8903, 4816, 1647, -1376, -2856, -1050, 468, -197, 182, 502, 495, 637, 542, 166, 118, 126
226672784, -656, 12866, -8903, 4816, 1647, -1376, -2856, -1050, 468, -197, 182, 502, 495, 637, 542, 166, 118, 126
226673686, -444, 12846, -8953, 4801, 1651, -1505, -2754, -1191, 522, -94, 182, 502, 495, 637, 542, 166, 118, 126
226674522, -444, 12846, -8953, 4801, 1651, -1505, -2754, -1191, 522, -94, 178, 493, 530, 645, 541, 161, 116, 124
226675312, -444, 12846, -8953, 4801, 1651, -1505, -2754, -1191, 522, -94, 178, 493, 530, 645, 541, 161, 116, 124
226680372, -444, 12846, -8953, 4801, 1651, -1505, -2754, -1191, 522, -94, 178, 493, 530, 645, 541, 161, 116, 124
226681178, -444, 12846, -8953, 4801, 1651, -1505, -2754, -1191, 522, -94, 178, 493, 530, 645, 541, 161, 116, 124
226681980, -444, 12846, -8953, 4801, 1651, -1505, -2754, -1191, 522, -94, 178, 493, 530, 645, 541, 161, 116, 124
226682781, -444, 12846, -8953, 4801, 1651, -1505, -2754, -1191, 522, -94, 178, 493, 530, 645, 541, 161, 116, 124
226687761, -444, 12846, -8953, 4801, 1651, -1505, -2754, -1191, 522, -94, 178, 493, 530, 645, 541, 161, 116, 124
226688535, -444, 12846, -8953, 4801, 1651, -1505, -2754, -1191, 522, -94, 178, 493, 530, 645, 541, 161, 116, 124
226689397, -444, 12846, -8953, 4801, 1651, -1505, -2754, -1191, 522, -94, 178, 493, 530, 645, 541, 161, 116, 124
226690157, -444, 12846, -8953, 4801, 1651, -1505, -2754, -1191, 522, -94, 178, 493, 530, 645, 541, 161, 116, 124
226695272, -444, 12846, -8953, 4801, 1651, -1505, -2754, -1191, 522, -94, 178, 493, 530, 645, 541, 161, 116, 124
226696205, -262, 12816, -9014, 4782, 1603, -1719, -2817, -1203, 474, -45, 178, 493, 530, 645, 541, 161, 116, 124
226696988, -262, 12816, -9014, 4782, 1603, -1719, -2817, -1203, 474, -45, 169, 523, 503, 617, 527, 155, 112, 119
226697826, -262, 12816, -9014, 4782, 1603, -1719, -2817, -1203, 474, -45, 169, 523, 503, 617, 527, 155, 112, 119
226702806, -262, 12816, -9014, 4782, 1603, -1719, -2817, -1203, 474, -45, 169, 523, 503, 617, 527, 155, 112, 119
226703671, -262, 12816, -9014, 4782, 1603, -1719, -2817, -1203, 474, -45, 169, 523, 503, 617, 527, 155, 112, 119
226704435, -262, 12816, -9014, 4782, 1603, -1719, -2817, -1203, 474, -45, 169, 523, 503, 617, 527, 155, 112, 119
226705296, -262, 12816, -9014, 4782, 1603, -1719, -2817, -1203, 474, -45, 169, 523, 503, 617, 527, 155, 112, 119
226710206, -262, 12816, -9014, 4782, 1603, -1719, -2817, -1203, 474, -45, 169, 523, 503, 617, 527, 155, 112, 119
226711046, -262, 12816, -9014, 4782, 1603, -1719, -2817, -1203, 474, -45, 169, 523, 503, 617, 527, 155, 112, 119
226711831, -262, 12816, -9014, 4782, 1603, -1719, -2817, -1203, 474, -45, 169, 523, 503, 617, 527, 155, 112, 119
226712695, -262, 12816, -9014, 4782, 1603, -1719, -2817, -1203, 474, -45, 169, 523, 503, 617, 527, 155, 112, 119
226717706, -262, 12816, -9014, 4782, 1603, -1719, -2817, -1203, 474, -45, 169, 523, 503, 617, 527, 155, 112, 119
226718685, -122, 12795, -9061, 4753, 1530, -1708, -2943, -1027, 362, -95, 169, 523, 503, 617, 527, 155, 112, 119
226719461, -122, 12795, -9061, 4753, 1530, -1708, -2943, -1027, 362, -95, 146, 488, 467, 542, 507, 162, 103, 100
226720309, -122, 12795, -9061, 4753, 1530, -1708, -2943, -1027, 362, -95, 146, 488, 467, 542, 507, 162, 103, 100
226725284, -122, 12795, -9061, 4753, 1530, -1708, -2943, -1027, 362, -95, 146, 488, 467, 542, 507, 162, 103, 100
226726147, -122, 12795, -9061, 4753, 1530, -1708, -2943, -1027, 362, -95, 146, 488, 467, 542, 507, 162, 103, 100
226726907, -122, 12795, -9061, 4753, 1530, -1708, -2943, -1027, 362, -95, 146, 488, 467, 542, 507, 162, 103, 100
226727754, -122, 12795, -9061, 4753, 1530, -1708, -2943, -1027, 362, -95, 146, 488, 467, 542, 507, 162, 103, 100
226732734, -122, 12795, -9061, 4753, 1530, -1708, -2943, -1027, 362, -95, 146, 488, 467, 542, 507, 162, 103, 100
226733642, -122, 12795, -9061, 4753, 1530, -1708, -2943, -1027, 362, -95, 146, 488, 467, 542, 507, 162, 103, 100
226734311, -122, 12795, -9061, 4753, 1530, -1708, -2943, -1027, 362, -95, 146, 488, 467, 542, 507, 162, 103, 100
226735172, -122, 12795, -9061, 4753, 1530, -1708, -2943, -1027, 362, -95, 146, 488, 467, 542, 507, 162, 103, 100
226740232, -122, 12795, -9061, 4753, 1530, -1708, -2943, -1027, 362, -95, 146, 488, 467, 542, 507, 162, 103, 100
226741159, -22, 12784, -9086, 4736, 1605, -1499, -3043, -681, 274, -106, 146, 488, 467, 542, 507, 162, 103, 100
226741981, -22, 12784, -9086, 4736, 1605, -1499, -3043, -681, 274, -106, 159, 488, 460, 561, 528, 162, 82, 85
226742800, -22, 12784, -9086, 4736, 1605, -1499, -3043, -681, 274, -106, 159, 488, 460, 561, 528, 162, 82, 85
226747858, -22, 12784, -9086, 4736, 1605, -1499, -3043, -681, 274, -106, 159, 488, 460, 561, 528, 162, 82, 85
226748617, -22, 12784, -9086, 4736, 1605, -1499, -3043, -681, 274, -106, 159, 488, 460, 561, 528, 162, 82, 85
226749450, -22, 12784, -9086, 4736, 1605, -1499, -3043, -681, 274, -106, 159, 488, 460, 561, 528, 162, 82, 85
226750255, -22, 12784, -9086, 4736, 1605, -1499, -3043, -681, 274, -106, 159, 488, 460, 561, 528, 162, 82, 85
226755225, -22, 12784, -9086, 4736, 1605, -1499, -3043, -681, 274, -106, 159, 488, 460, 561, 528, 162, 82, 85
226756032, -22, 12784, -9086, 4736, 1605, -1499, -3043, -681, 274, -106, 159, 488, 460, 561, 528, 162, 82, 85
226756832, -22, 12784, -9086, 4736, 1605, -1499, -3043, -681, 274, -106, 159, 488, 460, 561, 528, 162, 82, 85
226757679, -22, 12784, -9086, 4736, 1605, -1499, -3043, -681, 274, -106, 159, 488, 460, 561, 528, 162, 82, 85
226762732, -22, 12784, -9086, 4736, 1605, -1499, -3043, -681, 274, -106, 159, 488, 460, 561, 528, 162, 82, 85
226763661, 64, 12765, -9113, 4736, 1654, -1518, -3016, -597, 291, -57, 159, 488, 460, 561, 528, 162, 82, 85
226764486, 64, 12765, -9113, 4736, 1654, -1518, -3016, -597, 291, -57, 192, 509, 437, 597, 533, 165, 83, 84
226765301, 64, 12765, -9113, 4736, 1654, -1518, -3016, -597, 291, -57, 192, 509, 437, 597, 533, 165, 83, 84
226770307, 64, 12765, -9113, 4736, 1654, -1518, -3016, -597, 291, -57, 192, 509, 437, 597, 533, 165, 83, 84
226771134, 64, 12765, -9113, 4736, 1654, -1518, -3016, -597, 291, -57, 192, 509, 437, 597, 533, 165, 83, 84
226771933, 64, 12765, -9113, 4736, 1654, -1518, -3016, -597, 291, -57, 192, 509, 437, 597, 533, 165, 83, 84
226772772, 64, 12765, -9113, 4736, 1654, -1518, -3016, -597, 291, -57, 192, 509, 437, 597, 533, 165, 83, 84
226777683, 64, 12765, -9113, 4736, 1654, -1518, -3016, -597, 291, -57, 192, 509, 437, 597, 533, 165, 83, 84
226778534, 64, 12765, -9113, 4736, 1654, -1518, -3016, -597, 291, -57, 192, 509, 437, 597, 533, 165, 83, 84
226779312, 64, 12765, -9113, 4736, 1654, -1518, -3016, -597, 291, -57, 192, 509, 437, 597, 533, 165, 83, 84
226780154, 64, 12765, -9113, 4736, 1654, -1518, -3016, -597, 291, -57, 192, 509, 437, 597, 533, 165, 83, 84
226785257, 64, 12765, -9113, 4736, 1654, -1518, -3016, -597, 291, -57, 192, 509, 437, 597, 533, 165, 83, 84
226786200, 132, 12736, -9153, 4736, 1587, -1596, -3026, -578, 295, 19, 192, 509, 437, 597, 533, 165, 83, 84
226786982, 132, 12736, -9153, 4736, 1587, -1596, -3026, -578, 295, 19, 204, 547, 393, 559, 542, 174, 100, 95
226787828, 132, 12736, -9153, 4736, 1587, -1596, -3026, -578, 295, 19, 204, 547, 393, 559, 542, 174, 100, 95
226792820, 132, 12736, -9153, 4736, 1587, -1596, -3026, -578, 295, 19, 204, 547, 393, 559, 542, 174, 100, 95
226793642, 132, 12736, -9153, 4736, 1587, -1596, -3026, -578, 295, 19, 204, 547, 393, 559, 542, 174, 100, 95
226794475, 132, 12736, -9153, 4736, 1587, -1596, -3026, -578, 295, 19, 204, 547, 393, 559, 542, 174, 100, 95
226795281, 132, 12736, -9153, 4736, 1587, -1596, -3026, -578, 295, 19, 204, 547, 393, 559, 542, 174, 100, 95
226800259, 132, 12736, -9153, 4736, 1587, -1596, -3026, -578, 295, 19, 204, 547, 393, 559, 542, 174, 100, 95
226801033, 132, 12736, -9153, 4736, 1587, -1596, -3026, -578, 295, 19, 204, 547, 393, 559, 542, 174, 100, 95
226801885, 132, 12736, -9153, 4736, 1587, -1596, -3026, -578, 295, 19, 204, 547, 393, 559, 542, 174, 100, 95
226802682, 132, 12736, -9153, 4736, 1587, -1596, -3026, -578, 295, 19, 204, 547, 393, 559, 542, 174, 100, 95
226807756, 132, 12736, -9153, 4736, 1587, -1596, -3026, -578, 295, 19, 204, 547, 393, 559, 542, 174, 100, 95
226808684, 183, 12708, -9193, 4731, 1588, -1566, -3072, -511, 229, 50, 204, 547, 393, 559, 542, 174, 100, 95
226809527, 183, 12708, -9193, 4731, 1588, -1566, -3072, -511, 229, 50, 203, 491, 378, 573, 501, 178, 108, 90
226810315, 183, 12708, -9193, 4731, 1588, -1566, -3072, -511, 229, 50, 203, 491, 378, 573, 501, 178, 108, 90
226815298, 183, 12708, -9193, 4731, 1588, -1566, -3072, -511, 229, 50, 203, 491, 378, 573, 501, 178, 108, 90
226816107, 183, 12708, -9193, 4731, 1588, -1566, -3072, -511, 229, 50, 203, 491, 378, 573, 501, 178, 108, 90
226816906, 183, 12708, -9193, 4731, 1588, -1566, -3072, -511, 229, 50, 203, 491, 378, 573, 501, 178, 108, 90
226817731, 183, 12708, -9193, 4731, 1588, -1566, -3072, -511, 229, 50, 203, 491, 378, 573, 501, 178, 108, 90
226822699, 183, 12708, -9193, 4731, 1588, -1566, -3072, -511, 229, 50, 203, 491, 378, 573, 501, 178, 108, 90
226823499, 183, 12708, -9193, 4731, 1588, -1566, -3072, -511, 229, 50, 203, 491, 378, 573, 501, 178, 108, 90
226824305, 183, 12708, -9193, 4731, 1588, -1566, -3072, -511, 229, 50, 203, 491, 378, 573, 501, 178, 108, 90
226825131, 183, 12708, -9193, 4731, 1588, -1566, -3072, -511, 229, 50, 203, 491, 378, 573, 501, 178, 108, 90
226830206, 183, 12708, -9193, 4731, 1588, -1566, -3072, -511, 229, 50, 203, 491, 378, 573, 501, 178, 108, 90
226831158, 198, 12684, -9225, 4733, 1601, -1602, -3080, -329, 138, 50, 203, 491, 378, 573, 501, 178, 108, 90
226831996, 198, 12684, -9225, 4733, 1601, -1602, -3080, -329, 138, 50, 218, 499, 394, 616, 510, 193, 130, 100
226832782, 198, 12684, -9225, 4733, 1601, -1602, -3080, -329, 138, 50, 218, 499, 394, 616, 510, 193, 130, 100
226837822, 198, 12684, -9225, 4733, 1601, -1602, -3080, -329, 138, 50, 218, 499, 394, 616, 510, 193, 130, 100
226838631, 198, 12684, -9225, 4733, 1601, -1602, -3080, -329, 138, 50, 218, 499, 394, 616, 510, 193, 130, 100
226839451, 198, 12684, -9225, 4733, 1601, -1602, -3080, -329, 138, 50, 218, 499, 394, 616, 510, 193, 130, 100
226840244, 198, 12684, -9225, 4733, 1601, -1602, -3080, -329, 138, 50, 218, 499, 394, 616, 510, 193, 130, 100
226845198, 198, 12684, -9225, 4733, 1601, -1602, -3080, -329, 138, 50, 218, 499, 394, 616, 510, 193, 130, 100
226845991, 198, 12684, -9225, 4733, 1601, -1602, -3080, -329, 138, 50, 218, 499, 394, 616, 510, 193, 130, 100
226846782, 198, 12684, -9225, 4733, 1601, -1602, -3080, -329, 138, 50, 218, 499, 394, 616, 510, 193, 130, 100
226847606, 198, 12684, -9225, 4733, 1601, -1602, -3080, -329, 138, 50, 218, 499, 394, 616, 510, 193, 130, 100
226852755, 198, 12684, -9225, 4733, 1601, -1602, -3080, -329, 138, 50, 218, 499, 394, 616, 510, 193, 130, 100
226853693, 199, 12668, -9244, 4738, 1625, -1478, -3060, -185, 82, 27, 218, 499, 394, 616, 510, 193, 130, 100
226854508, 199, 12668, -9244, 4738, 1625, -1478, -3060, -185, 82, 27, 226, 499, 304, 620, 466, 203, 135, 105
226855338, 199, 12668, -9244, 4738, 1625, -1478, -3060, -185, 82, 27, 226, 499, 304, 620, 466, 203, 135, 105
226860332, 199, 12668, -9244, 4738, 1625, -1478, -3060, -185, 82, 27, 226, 499, 304, 620, 466, 203, 135, 105
226861142, 199, 12668, -9244, 4738, 1625, -1478, -3060, -185, 82, 27, 226, 499, 304, 620, 466, 203, 135, 105
226861956, 199, 12668, -9244, 4738, 1625, -1478, -3060, -185, 82, 27, 226, 499, 304, 620, 466, 203, 135, 105
226862823, 199, 12668, -9244, 4738, 1625, -1478, -3060, -185, 82, 27, 226, 499, 304, 620, 466, 203, 135, 105
226867733, 199, 12668, -9244, 4738, 1625, -1478, -3060, -185, 82, 27, 226, 499, 304, 620, 466, 203, 135, 105
226868574, 199, 12668, -9244, 4738, 1625, -1478, -3060, -185, 82, 27, 226, 499, 304, 620, 466, 203, 135, 105
226869356, 199, 12668, -9244, 4738, 1625, -1478, -3060, -185, 82, 27, 226, 499, 304, 620, 466, 203, 135, 105
226870186, 199, 12668, -9244, 4738, 1625, -1478, -3060, -185, 82, 27, 226, 499, 304, 620, 466, 203, 135, 105
226875232, 199, 12668, -9244, 4738, 1625, -1478, -3060, -185, 82, 27, 226, 499, 304, 620, 466, 203, 135, 105
226876188, 196, 12653, -9266, 4736, 1627, -1463, -3115, -177, 49, 54, 226, 499, 304, 620, 466, 203, 135, 105
226877004, 196, 12653, -9266, 4736, 1627, -1463, -3115, -177, 49, 54, 190, 441, 268, 596, 423, 195, 145, 111
226877847, 196, 12653, -9266, 4736, 1627, -1463, -3115, -177, 49, 54, 190, 441, 268, 596, 423, 195, 145, 111
226882823, 196, 12653, -9266, 4736, 1627, -1463, -3115, -177, 49, 54, 190, 441, 268, 596, 423, 195, 145, 111
226883661, 196, 12653, -9266, 4736, 1627, -1463, -3115, -177, 49, 54, 190, 441, 268, 596, 423, 195, 145, 111
226884435, 196, 12653, -9266, 4736, 1627, -1463, -3115, -177, 49, 54, 190, 441, 268, 596, 423, 195, 145, 111
226885297, 196, 12653, -9266, 4736, 1627, -1463, -3115, -177, 49, 54, 190, 441, 268, 596, 423, 195, 145, 111
226890207, 196, 12653, -9266, 4736, 1627, -1463, -3115, -177, 49, 54, 190, 441, 268, 596, 423, 195, 145, 111
226891048, 196, 12653, -9266, 4736, 1627, -1463, -3115, -177, 49, 54, 190, 441, 268, 596, 423, 195, 145, 111
226891831, 196, 12653, -9266, 4736, 1627, -1463, -3115, -177, 49, 54, 190, 441, 268, 596, 423, 195, 145, 111
226892672, 196, 12653, -9266, 4736, 1627, -1463, -3115, -177, 49, 54, 190, 441, 268, 596, 423, 195, 145, 111
226897707, 196, 12653, -9266, 4736, 1627, -1463, -3115, -177, 49, 54, 190, 441, 268, 596, 423, 195, 145, 111
226898697, 177, 12637, -9288, 4736, 1630, -1474, -3135, -96, 7, 79, 190, 441, 268, 596, 423, 195, 145, 111
226899468, 177, 12637, -9288, 4736, 1630, -1474, -3135, -96, 7, 79, 215, 417, 235, 617, 375, 188, 162, 105
226900281, 177, 12637, -9288, 4736, 1630, -1474, -3135, -96, 7, 79, 215, 417, 235, 617, 375, 188, 162, 105
226905295, 177, 12637, -9288, 4736, 1630, -1474, -3135, -96, 7, 79, 215, 417, 235, 617, 375, 188, 162, 105
226906109, 177, 12637, -9288, 4736, 1630, -1474, -3135, -96, 7, 79, 215, 417, 235, 617, 375, 188, 162, 105
226906909, 177, 12637, -9288, 4736, 1630, -1474, -3135, -96, 7, 79, 215, 417, 235, 617, 375, 188, 162, 105
226907733, 177, 12637, -9288, 4736, 1630, -1474, -3135, -96, 7, 79, 215, 417, 235, 617, 375, 188, 162, 105
226912672, 177, 12637, -9288, 4736, 1630, -1474, -3135, -96, 7, 79, 215, 417, 235, 617, 375, 188, 162, 105
226913460, 177, 12637, -9288, 4736, 1630, -1474, -3135, -96, 7, 79, 215, 417, 235, 617, 375, 188, 162, 105
226914281, 177, 12637, -9288, 4736, 1630, -1474, -3135, -96, 7, 79, 215, 417, 235, 617, 375, 188, 162, 105
226915105, 177, 12637, -9288, 4736, 1630, -1474, -3135, -96, 7, 79, 215, 417, 235, 617, 375, 188, 162, 105
226920256, 177, 12637, -9288, 4736, 1630, -1474, -3135, -96, 7, 79, 215, 417, 235, 617, 375, 188, 162, 105
226921205, 149, 12621, -9311, 4736, 1651, -1442, -3118, -41, -37, 118, 215, 417, 235, 617, 375, 188, 162, 105
226922006, 149, 12621, -9311, 4736, 1651, -1442, -3118, -41, -37, 118, 225, 467, 230, 589, 366, 199, 166, 107
226922832, 149, 12621, -9311, 4736, 1651, -1442, -3118, -41, -37, 118, 225, 467, 230, 589, 366, 199, 166, 107
226927831, 149, 12621, -9311, 4736, 1651, -1442, -3118, -41, -37, 118, 225, 467, 230, 589, 366, 199, 166, 107
226928623, 149, 12621, -9311, 4736, 1651, -1442, -3118, -41, -37, 118, 225, 467, 230, 589, 366, 199, 166, 107
226929434, 149, 12621, -9311, 4736, 1651, -1442, -3118, -41, -37, 118, 225, 467, 230, 589, 366, 199, 166, 107
226930231, 149, 12621, -9311, 4736, 1651, -1442, -3118, -41, -37, 118, 225, 467, 230, 589, 366, 199, 166, 107
226935186, 149, 12621, -9311, 4736, 1651, -1442, -3118, -41, -37, 118, 225, 467, 230, 589, 366, 199, 166, 107
226936056, 149, 12621, -9311, 4736, 1651, -1442, -3118, -41, -37, 118, 225, 467, 230, 589, 366, 199, 166, 107
226936831, 149, 12621, -9311, 4736, 1651, -1442, -3118, -41, -37, 118, 225, 467, 230, 589, 366, 199, 166, 107
226937696, 149, 12621, -9311, 4736, 1651, -1442, -3118, -41, -37, 118, 225, 467, 230, 589, 366, 199, 166, 107
226942731, 149, 12621, -9311, 4736, 1651, -1442, -3118, -41, -37, 118, 225, 467, 230, 589, 366, 199, 166, 107
226943698, 117, 12601, -9338, 4736, 1629, -1412, -3108, -11, -43, 163, 225, 467, 230, 589, 366, 199, 166, 107
226944487, 117, 12601, -9338, 4736, 1629, -1412, -3108, -11, -43, 163, 207, 468, 185, 541, 342, 207, 162, 98
226945316, 117, 12601, -9338, 4736, 1629, -1412, -3108, -11, -43, 163, 207, 468, 185, 541, 342, 207, 162, 98
226950315, 117, 12601, -9338, 4736, 1629, -1412, -3108, -11, -43, 163, 207, 468, 185, 541, 342, 207, 162, 98
226951139, 117, 12601, -9338, 4736, 1629, -1412, -3108, -11, -43, 163, 207, 468, 185, 541, 342, 207, 162, 98
226951952, 117, 12601, -9338, 4736, 1629, -1412, -3108, -11, -43, 163, 207, 468, 185, 541, 342, 207, 162, 98
226952743, 117, 12601, -9338, 4736, 1629, -1412, -3108, -11, -43, 163, 207, 468, 185, 541, 342, 207, 162, 98
226957681, 117, 12601, -9338, 4736, 1629, -1412, -3108, -11, -43, 163, 207, 468, 185, 541, 342, 207, 162, 98
226958549, 117, 12601, -9338, 4736, 1629, -1412, -3108, -11, -43, 163, 207, 468, 185, 541, 342, 207, 162, 98
226959312, 117, 12601, -9338, 4736, 1629, -1412, -3108, -11, -43, 163, 207, 468, 185, 541, 342, 207, 162, 98
226960167, 117, 12601, -9338, 4736, 1629, -1412, -3108, -11, -43, 163, 207, 468, 185, 541, 342, 207, 162, 98
226965206, 117, 12601, -9338, 4736, 1629, -1412, -3108, -11, -43, 163, 207, 468, 185, 541, 342, 207, 162, 98
226966149, 81, 12587, -9358, 4736, 1627, -1411, -3101, 22, -72, 128, 207, 468, 185, 541, 342, 207, 162, 98
226966956, 81, 12587, -9358, 4736, 1627, -1411, -3101, 22, -72, 128, 195, 482, 179, 473, 299, 185, 159, 91
226967770, 81, 12587, -9358, 4736, 1627, -1411, -3101, 22, -72, 128, 195, 482, 179, 473, 299, 185, 159, 91
226972781, 81, 12587, -9358, 4736, 1627, -1411, -3101, 22, -72, 128, 195, 482, 179, 473, 299, 185, 159, 91
226973661, 81, 12587, -9358, 4736, 1627, -1411, -3101, 22, -72, 128, 195, 482, 179, 473, 299, 185, 159, 91
226974411, 81, 12587, -9358, 4736, 1627, -1411, -3101, 22, -72, 128, 195, 482, 179, 473, 299, 185, 159, 91
226975223, 81, 12587, -9358, 4736, 1627, -1411, -3101, 22, -72, 128, 195, 482, 179, 473, 299, 185, 159, 91
226980207, 81, 12587, -9358, 4736, 1627, -1411, -3101, 22, -72, 128, 195, 482, 179, 473, 299, 185, 159, 91
226981009, 81, 12587, -9358, 4736, 1627, -1411, -3101, 22, -72, 128, 195, 482, 179, 473, 299, 185, 159, 91
226981857, 81, 12587, -9358, 4736, 1627, -1411, -3101, 22, -72, 128, 195, 482, 179, 473, 299, 185, 159, 91
226982660, 81, 12587, -9358, 4736, 1627, -1411, -3101, 22, -72, 128, 195, 482, 179, 473, 299, 185, 159, 91
226987745, 81, 12587, -9358, 4736, 1627, -1411, -3101, 22, -72, 128, 195, 482, 179, 473, 299, 185, 159, 91
226988682, 47, 12577, -9367, 4743, 1652, -1338, -3097, 100, -60, 90, 195, 482, 179, 473, 299, 185, 159, 91
226989532, 47, 12577, -9367, 4743, 1652, -1338, -3097, 100, -60, 90, 184, 481, 173, 481, 295, 188, 154, 77
226990312, 47, 12577, -9367, 4743, 1652, -1338, -3097, 100, -60, 90, 184, 481, 173, 481, 295, 188, 154, 77
226995335, 47, 12577, -9367, 4743, 1652, -1338, -3097, 100, -60, 90, 184, 481, 173, 481, 295, 188, 154, 77
226996133, 47, 12577, -9367, 4743, 1652, -1338, -3097, 100, -60, 90, 184, 481, 173, 481, 295, 188, 154, 77
226996953, 47, 12577, -9367, 4743, 1652, -1338, -3097, 100, -60, 90, 184, 481, 173, 481, 295, 188, 154, 77
226997757, 47, 12577, -9367, 4743, 1652, -1338, -3097, 100, -60, 90, 184, 481, 173, 481, 295, 188, 154, 77
227002749, 47, 12577, -9367, 4743, 1652, -1338, -3097, 100, -60, 90, 184, 481, 173, 481, 295, 188, 154, 77
227003510, 47, 12577, -9367, 4743, 1652, -1338, -3097, 100, -60, 90, 184, 481, 173, 481, 295, 188, 154, 77
227004379, 47, 12577, -9367, 4743, 1652, -1338, -3097, 100, -60, 90, 184, 481, 173, 481, 295, 188, 154, 77
227005170, 47, 12577, -9367, 4743, 1652, -1338, -3097, 100, -60, 90, 184, 481, 173, 481, 295, 188, 154, 77
227010218, 47, 12577, -9367, 4743, 1652, -1338, -3097, 100, -60, 90, 184, 481, 173, 481, 295, 188, 154, 77
227011158, 14, 12570, -9374, 4749, 1661, -1310, -3109, 113, -68, 88, 184, 481, 173, 481, 295, 188, 154, 77
227011983, 14, 12570, -9374, 4749, 1661, -1310, -3109, 113, -68, 88, 151, 454, 182, 449, 251, 185, 126, 71
227012781, 14, 12570, -9374, 4749, 1661, -1310, -3109, 113, -68, 88, 151, 454, 182, 449, 251, 185, 126, 71
227017797, 14, 12570, -9374, 4749, 1661, -1310, -3109, 113, -68, 88, 151, 454, 182, 449, 251, 185, 126, 71
227018632, 14, 12570, -9374, 4749, 1661, -1310, -3109, 113, -68, 88, 151, 454, 182, 449, 251, 185, 126, 71
227019436, 14, 12570, -9374, 4749, 1661, -1310, -3109, 113, -68, 88, 151, 454, 182, 449, 251, 185, 126, 71
227020231, 14, 12570, -9374, 4749, 1661, -1310, -3109, 113, -68, 88, 151, 454, 182, 449, 251, 185, 126, 71
227025211, 14, 12570, -9374, 4749, 1661, -1310, -3109, 113, -68, 88, 151, 454, 182, 449, 251, 185, 126, 71
227026007, 14, 12570, -9374, 4749, 1661, -1310, -3109, 113, -68, 88, 151, 454, 182, 449, 251, 185, 126, 71
227026834, 14, 12570, -9374, 4749, 1661, -1310, -3109, 113, -68, 88, 151, 454, 182, 449, 251, 185, 126, 71
227027631, 14, 12570, -9374, 4749, 1661, -1310, -3109, 113, -68, 88, 151, 454, 182, 449, 251, 185, 126, 71
227032781, 14, 12570, -9374, 4749, 1661, -1310, -3109, 113, -68, 88, 151, 454, 182, 449, 251, 185, 126, 71
227033731, -33, 12557, -9383, 4766, 1639, -1420, -3089, 158, -51, 112, 151, 454, 182, 449, 251, 185, 126, 71
227034510, -33, 12557, -9383, 4766, 1639, -1420, -3089, 158, -51, 112, 145, 408, 167, 445, 245, 179, 123, 86
227035303, -33, 12557, -9383, 4766, 1639, -1420, -3089, 158, -51, 112, 145, 408, 167, 445, 245, 179, 123, 86
227040365, -33, 12557, -9383, 4766, 1639, -1420, -3089, 158, -51, 112, 145, 408, 167, 445, 245, 179, 123, 86
227041149, -33, 12557, -9383, 4766, 1639, -1420, -3089, 158, -51, 112, 145, 408, 167, 445, 245, 179, 123, 86
227041958, -33, 12557, -9383, 4766, 1639, -1420, -3089, 158, -51, 112, 145, 408, 167, 445, 245, 179, 123, 86
227042789, -33, 12557, -9383, 4766, 1639, -1420, -3089, 158, -51, 112, 145, 408, 167, 445, 245, 179, 123, 86
227047731, -33, 12557, -9383, 4766, 1639, -1420, -3089, 158, -51, 112, 145, 408, 167, 445, 245, 179, 123, 86
227048523, -33, 12557, -9383, 4766, 1639, -1420, -3089, 158, -51, 112, 145, 408, 167, 445, 245, 179, 123, 86
227049336, -33, 12557, -9383, 4766, 1639, -1420, -3089, 158, -51, 112, 145, 408, 167, 445, 245, 179, 123, 86
227050174, -33, 12557, -9383, 4766, 1639, -1420, -3089, 158, -51, 112, 145, 408, 167, 445, 245, 179, 123, 86
227055243, -33, 12557, -9383, 4766, 1639, -1420, -3089, 158, -51, 112, 145, 408, 167, 445, 245, 179, 123, 86
227056151, -89, 12551, -9378, 4790, 1617, -1419, -3046, 254, -64, 52, 145, 408, 167, 445, 245, 179, 123, 86
227057015, -89, 12551, -9378, 4790, 1617, -1419, -3046, 254, -64, 52, 135, 402, 180, 440, 244, 146, 111, 90
227057807, -89, 12551, -9378, 4790, 1617, -1419, -3046, 254, -64, 52, 135, 402, 180, 440, 244, 146, 111, 90
227062840, -89, 12551, -9378, 4790, 1617, -1419, -3046, 254, -64, 52, 135, 402, 180, 440, 244, 146, 111, 90
227063633, -89, 12551, -9378, 4790, 1617, -1419, -3046, 254, -64, 52, 135, 402, 180, 440, 244, 146, 111, 90
227064426, -89, 12551, -9378, 4790, 1617, -1419, -3046, 254, -64, 52, 135, 402, 180, 440, 244, 146, 111, 90
227065232, -89, 12551, -9378, 4790, 1617, -1419, -3046, 254, -64, 52, 135, 402, 180, 440, 244, 146, 111, 90
227070231, -89, 12551, -9378, 4790, 1617, -1419, -3046, 254, -64, 52, 135, 402, 180, 440, 244, 146, 111, 90
227071006, -89, 12551, -9378, 4790, 1617, -1419, -3046, 254, -64, 52, 135, 402, 180, 440, 244, 146, 111, 90
227071872, -89, 12551, -9378, 4790, 1617, -1419, -3046, 254, -64, 52, 135, 402, 180, 440, 244, 146, 111, 90
227072633, -89, 12551, -9378, 4790, 1617, -1419, -3046, 254, -64, 52, 135, 402, 180, 440, 244, 146, 111, 90
227077745, -89, 12551, -9378, 4790, 1617, -1419, -3046, 254, -64, 52, 135, 402, 180, 440, 244, 146, 111, 90
227078634, -151, 12557, -9353, 4823, 1646, -1344, -3035, 383, -82, -37, 135, 402, 180, 440, 244, 146, 111, 90
227079502, -151, 12557, -9353, 4823, 1646, -1344, -3035, 383, -82, -37, 147, 413, 166, 420, 232, 192, 159, 119
227080282, -151, 12557, -9353, 4823, 1646, -1344, -3035, 383, -82, -37, 147, 413, 166, 420, 232, 192, 159, 119
227085283, -151, 12557, -9353, 4823, 1646, -1344, -3035, 383, -82, -37, 147, 413, 166, 420, 232, 192, 159, 119
227086147, -151, 12557, -9353, 4823, 1646, -1344, -3035, 383, -82, -37, 147, 413, 166, 420, 232, 192, 159, 119
227086907, -151, 12557, -9353, 4823, 1646, -1344, -3035, 383, -82, -37, 147, 413, 166, 420, 232, 192, 159, 119
227087773, -151, 12557, -9353, 4823, 1646, -1344, -3035, 383, -82, -37, 147, 413, 166, 420, 232, 192, 159, 119
227092699, -151, 12557, -9353, 4823, 1646, -1344, -3035, 383, -82, -37, 147, 413, 166, 420, 232, 192, 159, 119
227093525, -151, 12557, -9353, 4823, 1646, -1344, -3035, 383, -82, -37, 147, 413, 166, 420, 232, 192, 159, 119
227094335, -151, 12557, -9353, 4823, 1646, -1344, -3035, 383, -82, -37, 147, 413, 166, 420, 232, 192, 159, 119
227095129, -151, 12557, -9353, 4823, 1646, -1344, -3035, 383, -82, -37, 147, 413, 166, 420, 232, 192, 159, 119
227100256, -151, 12557, -9353, 4823, 1646, -1344, -3035, 383, -82, -37, 147, 413, 166, 420, 232, 192, 159, 119
227101212, -220, 12567, -9323, 4851, 1658, -1326, -3044, 431, -137, -44, 147, 413, 166, 420, 232, 192, 159, 119
227102006, -220, 12567, -9323, 4851, 1658, -1326, -3044, 431, -137, -44, 178, 441, 164, 340, 234, 251, 206, 144
227102798, -220, 12567, -9323, 4851, 1658, -1326, -3044, 431, -137, -44, 178, 441, 164, 340, 234, 251, 206, 144
227107804, -220, 12567, -9323, 4851, 1658, -1326, -3044, 431, -137, -44, 178, 441, 164, 340, 234, 251, 206, 144
227108621, -220, 12567, -9323, 4851, 1658, -1326, -3044, 431, -137, -44, 178, 441, 164, 340, 234, 251, 206, 144
227109425, -220, 12567, -9323, 4851, 1658, -1326, -3044, 431, -137, -44, 178, 441, 164, 340, 234, 251, 206, 144
227110231, -220, 12567, -9323, 4851, 1658, -1326, -3044, 431, -137, -44, 178, 441, 164, 340, 234, 251, 206, 144
227115208, -220, 12567, -9323, 4851, 1658, -1326, -3044, 431, -137, -44, 178, 441, 164, 340, 234, 251, 206, 144
227116029, -220, 12567, -9323, 4851, 1658, -1326, -3044, 431, -137, -44, 178, 441, 164, 340, 234, 251, 206, 144
227116861, -220, 12567, -9323, 4851, 1658, -1326, -3044, 431, -137, -44, 178, 441, 164, 340, 234, 251, 206, 144
227117657, -220, 12567, -9323, 4851, 1658, -1326, -3044, 431, -137, -44, 178, 441, 164, 340, 234, 251, 206, 144
227122759, -220, 12567, -9323, 4851, 1658, -1326, -3044, 431, -137, -44, 178, 441, 164, 340, 234, 251, 206, 144
227123695, -321, 12574, -9291, 4888, 1674, -1432, -2975, 560, -221, -1, 178, 441, 164, 340, 234, 251, 206, 144
227124502, -321, 12574, -9291, 4888, 1674, -1432, -2975, 560, -221, -1, 200, 467, 141, 333, 239, 263, 227, 170
227125295, -321, 12574, -9291, 4888, 1674, -1432, -2975, 560, -221, -1, 200, 467, 141, 333, 239, 263, 227, 170
227130311, -321, 12574, -9291, 4888, 1674, -1432, -2975, 560, -221, -1, 200, 467, 141, 333, 239, 263, 227, 170
227131098, -321, 12574, -9291, 4888, 1674, -1432, -2975, 560, -221, -1, 200, 467, 141, 333, 239, 263, 227, 170
227131931, -321, 12574, -9291, 4888, 1674, -1432, -2975, 560, -221, -1, 200, 467, 141, 333, 239, 263, 227, 170
227132771, -321, 12574, -9291, 4888, 1674, -1432, -2975, 560, -221, -1, 200, 467, 141, 333, 239, 263, 227, 170
227137656, -321, 12574, -9291, 4888, 1674, -1432, -2975, 560, -221, -1, 200, 467, 141, 333, 239, 263, 227, 170
227138500, -321, 12574, -9291, 4888, 1674, -1432, -2975, 560, -221, -1, 200, 467, 141, 333, 239, 263, 227, 170
227139310, -321, 12574, -9291, 4888, 1674, -1432, -2975, 560, -221, -1, 200, 467, 141, 333, 239, 263, 227, 170
227140125, -321, 12574, -9291, 4888, 1674, -1432, -2975, 560, -221, -1, 200, 467, 141, 333, 239, 263, 227, 170
