Timestamp, Orientation x, Orientation y, Orientation z, Orientation w, Acceleration x, Acceleration y, Acceleration z, Rotation x, Rotation y, Rotation z, EMG 0, EMG 1, EMG 2, EMG 3, EMG 4, EMG 5, EMG 6, EMG 7
337201511, -1692, 14007, 704, 8299, 3881, -542, -1993, 24, 63, -52, 0, 0, 0, 0, 0, 0, 0, 0
337209002, -1685, 13995, 717, 8318, 3868, -545, -1988, 10, 89, -77, 0, 0, 0, 0, 0, 0, 0, 0
337231509, -1675, 13984, 730, 8339, 3874, -544, -1991, -9, 99, -90, 0, 0, 0, 0, 0, 0, 0, 0
337246460, -1660, 13973, 740, 8359, 3881, -544, -2003, -36, 106, -95, 0, 0, 0, 0, 0, 0, 0, 0
337270368, -1650, 13964, 751, 8375, 3863, -582, -2028, -24, 103, -115, 0, 0, 0, 0, 0, 0, 0, 0
337271137, -1650, 13964, 751, 8375, 3863, -582, -2028, -24, 103, -115, 36, 45, 29, 25, 35, 66, 39, 26
337271981, -1650, 13964, 751, 8375, 3863, -582, -2028, -24, 103, -115, 36, 45, 29, 25, 35, 66, 39, 26
337292867, -1642, 13955, 769, 8389, 3833, -587, -2028, 4, 103, -142, 36, 45, 29, 25, 35, 66, 39, 26
337293660, -1642, 13955, 769, 8389, 3833, -587, -2028, 4, 103, -142, 36, 53, 28, 30, 37, 65, 42, 25
337294487, -1642, 13955, 769, 8389, 3833, -587, -2028, 4, 103, -142, 36, 53, 28, 30, 37, 65, 42, 25
337306487, -1644, 13950, 791, 8396, 3797, -630, -2042, 49, 78, -161, 36, 53, 28, 30, 37, 65, 42, 25
337314632, -1644, 13950, 791, 8396, 3797, -630, -2042, 49, 78, -161, 57, 93, 80, 226, 83, 112, 81, 39
337315456, -1644, 13950, 791, 8396, 3797, -630, -2042, 49, 78, -161, 57, 93, 80, 226, 83, 112, 81, 39
337330350, -1657, 13958, 809, 8378, 3751, -679, -2118, 85, -31, -115, 57, 93, 80, 226, 83, 112, 81, 39
337331158, -1657, 13958, 809, 8378, 3751, -679, -2118, 85, -31, -115, 78, 126, 165, 330, 115, 172, 123, 57
337331998, -1657, 13958, 809, 8378, 3751, -679, -2118, 85, -31, -115, 78, 126, 165, 330, 115, 172, 123, 57
337352824, -1683, 13988, 820, 8322, 3726, -665, -2136, 134, -263, -6, 78, 126, 165, 330, 115, 172, 123, 57
337353654, -1683, 13988, 820, 8322, 3726, -665, -2136, 134, -263, -6, 93, 145, 246, 373, 154, 187, 136, 86
337354434, -1683, 13988, 820, 8322, 3726, -665, -2136, 134, -263, -6, 93, 145, 246, 373, 154, 187, 136, 86
337375335, -1757, 14039, 821, 8220, 3669, -863, -2202, 287, -510, 129, 93, 145, 246, 373, 154, 187, 136, 86
337376197, -1757, 14039, 821, 8220, 3669, -863, -2202, 287, -510, 129, 100, 182, 416, 456, 185, 199, 142, 96
337376957, -1757, 14039, 821, 8220, 3669, -863, -2202, 287, -510, 129, 100, 182, 416, 456, 185, 199, 142, 96
337390347, -1917, 14098, 828, 8082, 3618, -1053, -2211, 694, -708, 314, 100, 182, 416, 456, 185, 199, 142, 96
337391131, -1917, 14098, 828, 8082, 3618, -1053, -2211, 694, -708, 314, 130, 246, 612, 589, 253, 252, 172, 141
337391968, -1917, 14098, 828, 8082, 3618, -1053, -2211, 694, -708, 314, 130, 246, 612, 589, 253, 252, 172, 141
337412799, -2114, 14173, 863, 7894, 3557, -821, -2292, 1038, -991, 470, 130, 246, 612, 589, 253, 252, 172, 141
337413654, -2114, 14173, 863, 7894, 3557, -821, -2292, 1038, -991, 470, 149, 256, 679, 677, 342, 261, 187, 199
337414446, -2114, 14173, 863, 7894, 3557, -821, -2292, 1038, -991, 470, 149, 256, 679, 677, 342, 261, 187, 199
337435379, -2332, 14233, 933, 7715, 3771, -688, -2098, 1281, -1127, 481, 149, 256, 679, 677, 342, 261, 187, 199
337436133, -2332, 14233, 933, 7715, 3771, -688, -2098, 1281, -1127, 481, 170, 339, 732, 698, 373, 236, 188, 208
337436998, -2332, 14233, 933, 7715, 3771, -688, -2098, 1281, -1127, 481, 170, 339, 732, 698, 373, 236, 188, 208
337450328, -2507, 14290, 985, 7547, 3954, -628, -2190, 1068, -1120, 545, 170, 339, 732, 698, 373, 236, 188, 208
337451142, -2507, 14290, 985, 7547, 3954, -628, -2190, 1068, -1120, 545, 182, 346, 741, 715, 381, 242, 200, 205
337451957, -2507, 14290, 985, 7547, 3954, -628, -2190, 1068, -1120, 545, 182, 346, 741, 715, 381, 242, 200, 205
337472848, -2625, 14341, 937, 7415, 3943, -649, -2313, 552, -841, 883, 182, 346, 741, 715, 381, 242, 200, 205
337473684, -2625, 14341, 937, 7415, 3943, -649, -2313, 552, -841, 883, 187, 334, 669, 699, 385, 292, 275, 242
337474485, -2625, 14341, 937, 7415, 3943, -649, -2313, 552, -841, 883, 187, 334, 669, 699, 385, 292, 275, 242
337495339, -2697, 14402, 715, 7294, 3687, -950, -2265, -198, -650, 1488, 187, 334, 669, 699, 385, 292, 275, 242
337496248, -2697, 14402, 715, 7294, 3687, -950, -2265, -198, -650, 1488, 177, 298, 503, 613, 399, 291, 277, 255
337496966, -2697, 14402, 715, 7294, 3687, -950, -2265, -198, -650, 1488, 177, 298, 503, 613, 399, 291, 277, 255
337510329, -2744, 14498, 364, 7110, 3456, -1160, -2268, -690, -837, 2044, 177, 298, 503, 613, 399, 291, 277, 255
337511118, -2744, 14498, 364, 7110, 3456, -1160, -2268, -690, -837, 2044, 165, 286, 417, 469, 375, 338, 303, 277
337511944, -2744, 14498, 364, 7110, 3456, -1160, -2268, -690, -837, 2044, 165, 286, 417, 469, 375, 338, 303, 277
337532859, -2759, 14618, -75, 6863, 3539, -1365, -2300, -1088, -1152, 2471, 165, 286, 417, 469, 375, 338, 303, 277
337533679, -2759, 14618, -75, 6863, 3539, -1365, -2300, -1088, -1152, 2471, 140, 168, 295, 422, 425, 391, 298, 315
337534483, -2759, 14618, -75, 6863, 3539, -1365, -2300, -1088, -1152, 2471, 140, 168, 295, 422, 425, 391, 298, 315
337555347, -2828, 14731, -551, 6565, 3561, -1780, -2350, -929, -1383, 2807, 140, 168, 295, 422, 425, 391, 298, 315
337556184, -2828, 14731, -551, 6565, 3561, -1780, -2350, -929, -1383, 2807, 143, 146, 217, 391, 491, 429, 334, 370
337556943, -2828, 14731, -551, 6565, 3561, -1780, -2350, -929, -1383, 2807, 143, 146, 217, 391, 491, 429, 334, 370
337570317, -2981, 14830, -982, 6215, 3438, -1846, -2529, -389, -1674, 2839, 143, 146, 217, 391, 491, 429, 334, 370
337571147, -2981, 14830, -982, 6215, 3438, -1846, -2529, -389, -1674, 2839, 139, 138, 200, 428, 533, 439, 289, 360
337571954, -2981, 14830, -982, 6215, 3438, -1846, -2529, -389, -1674, 2839, 139, 138, 200, 428, 533, 439, 289, 360
337592862, -3206, 14918, -1412, 5796, 3183, -1896, -2753, -19, -2012, 3081, 139, 138, 200, 428, 533, 439, 289, 360
337593632, -3206, 14918, -1412, 5796, 3183, -1896, -2753, -19, -2012, 3081, 133, 121, 221, 474, 539, 453, 276, 353
337594501, -3206, 14918, -1412, 5796, 3183, -1896, -2753, -19, -2012, 3081, 133, 121, 221, 474, 539, 453, 276, 353
337615330, -3482, 14986, -1862, 5316, 3181, -1894, -2839, 212, -2314, 3393, 133, 121, 221, 474, 539, 453, 276, 353
337616112, -3482, 14986, -1862, 5316, 3181, -1894, -2839, 212, -2314, 3393, 142, 123, 218, 540, 656, 453, 286, 347
337616933, -3482, 14986, -1862, 5316, 3181, -1894, -2839, 212, -2314, 3393, 142, 123, 218, 540, 656, 453, 286, 347
337630292, -3799, 15019, -2343, 4788, 3011, -2027, -2863, 374, -2510, 3727, 142, 123, 218, 540, 656, 453, 286, 347
337631126, -3799, 15019, -2343, 4788, 3011, -2027, -2863, 374, -2510, 3727, 144, 123, 214, 556, 697, 438, 286, 372
337631907, -3799, 15019, -2343, 4788, 3011, -2027, -2863, 374, -2510, 3727, 144, 123, 214, 556, 697, 438, 286, 372
337652813, -4122, 15014, -2883, 4208, 2847, -2058, -2863, 327, -2670, 4164, 144, 123, 214, 556, 697, 438, 286, 372
337653671, -4122, 15014, -2883, 4208, 2847, -2058, -2863, 327, -2670, 4164, 147, 117, 220, 613, 750, 492, 317, 429
337654460, -4122, 15014, -2883, 4208, 2847, -2058, -2863, 327, -2670, 4164, 147, 117, 220, 613, 750, 492, 317, 429
337675313, -4424, 14970, -3455, 3581, 2602, -1903, -2900, 211, -2802, 4434, 147, 117, 220, 613, 750, 492, 317, 429
337676107, -4424, 14970, -3455, 3581, 2602, -1903, -2900, 211, -2802, 4434, 155, 131, 240, 640, 805, 488, 340, 469
337676918, -4424, 14970, -3455, 3581, 2602, -1903, -2900, 211, -2802, 4434, 155, 131, 240, 640, 805, 488, 340, 469
337690310, -4690, 14898, -3992, 2921, 2401, -1837, -2889, 77, -2971, 4312, 155, 131, 240, 640, 805, 488, 340, 469
337691097, -4690, 14898, -3992, 2921, 2401, -1837, -2889, 77, -2971, 4312, 170, 133, 217, 635, 890, 473, 406, 565
337691908, -4690, 14898, -3992, 2921, 2401, -1837, -2889, 77, -2971, 4312, 170, 133, 217, 635, 890, 473, 406, 565
337712793, -4950, 14783, -4501, 2265, 2483, -1774, -2801, 162, -2994, 4253, 170, 133, 217, 635, 890, 473, 406, 565
337713607, -4950, 14783, -4501, 2265, 2483, -1774, -2801, 162, -2994, 4253, 163, 122, 214, 682, 833, 455, 392, 593
337714435, -4950, 14783, -4501, 2265, 2483, -1774, -2801, 162, -2994, 4253, 163, 122, 214, 682, 833, 455, 392, 593
337735298, -5214, 14617, -4991, 1637, 2531, -1496, -2800, 352, -2897, 4220, 163, 122, 214, 682, 833, 455, 392, 593
337736081, -5214, 14617, -4991, 1637, 2531, -1496, -2800, 352, -2897, 4220, 181, 130, 224, 717, 857, 491, 423, 628
337736897, -5214, 14617, -4991, 1637, 2531, -1496, -2800, 352, -2897, 4220, 181, 130, 224, 717, 857, 491, 423, 628
337750395, -5435, 14430, -5437, 1051, 2513, -1348, -2750, 291, -2706, 3951, 181, 130, 224, 717, 857, 491, 423, 628
337751163, -5435, 14430, -5437, 1051, 2513, -1348, -2750, 291, -2706, 3951, 197, 144, 232, 783, 829, 434, 391, 605
337751979, -5435, 14430, -5437, 1051, 2513, -1348, -2750, 291, -2706, 3951, 197, 144, 232, 783, 829, 434, 391, 605
337772876, -5634, 14240, -5801, 503, 2256, -1259, -2756, 288, -2628, 3463, 197, 144, 232, 783, 829, 434, 391, 605
337773664, -5634, 14240, -5801, 503, 2256, -1259, -2756, 288, -2628, 3463, 210, 140, 303, 873, 836, 435, 415, 647
337774482, -5634, 14240, -5801, 503, 2256, -1259, -2756, 288, -2628, 3463, 210, 140, 303, 873, 836, 435, 415, 647
337802845, -5805, 14063, -6079, -7, 2000, -1216, -2633, 213, -2550, 2924, 210, 140, 303, 873, 836, 435, 415, 647
337803631, -5805, 14063, -6079, -7, 2000, -1216, -2633, 213, -2550, 2924, 278, 235, 557, 907, 770, 494, 379, 604
337804500, -5805, 14063, -6079, -7, 2000, -1216, -2633, 213, -2550, 2924, 278, 235, 557, 907, 770, 494, 379, 604
337832876, -5940, 13906, -6289, -461, 1670, -1199, -2492, 96, -2322, 2424, 278, 235, 557, 907, 770, 494, 379, 604
337833669, -5940, 13906, -6289, -461, 1670, -1199, -2492, 96, -2322, 2424, 459, 352, 700, 906, 792, 513, 425, 707
337834483, -5940, 13906, -6289, -461, 1670, -1199, -2492, 96, -2322, 2424, 459, 352, 700, 906, 792, 513, 425, 707
337841708, -5940, 13906, -6289, -461, 1670, -1199, -2492, 96, -2322, 2424, 569, 456, 835, 868, 768, 458, 439, 787
337842551, -5940, 13906, -6289, -461, 1670, -1199, -2492, 96, -2322, 2424, 569, 456, 835, 868, 768, 458, 439, 787
337843360, -5940, 13906, -6289, -461, 1670, -1199, -2492, 96, -2322, 2424, 569, 456, 835, 868, 768, 458, 439, 787
337844155, -5940, 13906, -6289, -461, 1670, -1199, -2492, 96, -2322, 2424, 569, 456, 835, 868, 768, 458, 439, 787
337849098, -5940, 13906, -6289, -461, 1670, -1199, -2492, 96, -2322, 2424, 569, 456, 835, 868, 768, 458, 439, 787
337849906, -5940, 13906, -6289, -461, 1670, -1199, -2492, 96, -2322, 2424, 569, 456, 835, 868, 768, 458, 439, 787
337850716, -5940, 13906, -6289, -461, 1670, -1199, -2492, 96, -2322, 2424, 569, 456, 835, 868, 768, 458, 439, 787
337851563, -5940, 13906, -6289, -461, 1670, -1199, -2492, 96, -2322, 2424, 569, 456, 835, 868, 768, 458, 439, 787
337856659, -5940, 13906, -6289, -461, 1670, -1199, -2492, 96, -2322, 2424, 569, 456, 835, 868, 768, 458, 439, 787
337857637, -6060, 13761, -6455, -830, 1271, -1090, -2418, 184, -1945, 1986, 569, 456, 835, 868, 768, 458, 439, 787
337858442, -6072, 13689, -6571, -1007, 907, -994, -2239, 165, -1481, 1571, 569, 456, 835, 868, 768, 458, 439, 787
337859230, -6072, 13689, -6571, -1007, 907, -994, -2239, 165, -1481, 1571, 628, 456, 954, 768, 799, 444, 427, 808
337864181, -6072, 13689, -6571, -1007, 907, -994, -2239, 165, -1481, 1571, 628, 456, 954, 768, 799, 444, 427, 808
337865017, -6072, 13689, -6571, -1007, 907, -994, -2239, 165, -1481, 1571, 628, 456, 954, 768, 799, 444, 427, 808
337865831, -6072, 13689, -6571, -1007, 907, -994, -2239, 165, -1481, 1571, 628, 456, 954, 768, 799, 444, 427, 808
337866653, -6072, 13689, -6571, -1007, 907, -994, -2239, 165, -1481, 1571, 628, 456, 954, 768, 799, 444, 427, 808
337871652, -6072, 13689, -6571, -1007, 907, -994, -2239, 165, -1481, 1571, 628, 456, 954, 768, 799, 444, 427, 808
337872432, -6072, 13689, -6571, -1007, 907, -994, -2239, 165, -1481, 1571, 628, 456, 954, 768, 799, 444, 427, 808
337873207, -6072, 13689, -6571, -1007, 907, -994, -2239, 165, -1481, 1571, 628, 456, 954, 768, 799, 444, 427, 808
337874040, -6072, 13689, -6571, -1007, 907, -994, -2239, 165, -1481, 1571, 628, 456, 954, 768, 799, 444, 427, 808
337879145, -6072, 13689, -6571, -1007, 907, -994, -2239, 165, -1481, 1571, 628, 456, 954, 768, 799, 444, 427, 808
337880034, -6086, 13628, -6667, -1106, 600, -1055, -2069, 231, -1019, 1215, 628, 456, 954, 768, 799, 444, 427, 808
337880863, -6086, 13628, -6667, -1106, 600, -1055, -2069, 231, -1019, 1215, 629, 470, 963, 684, 792, 418, 390, 804
337881673, -6086, 13628, -6667, -1106, 600, -1055, -2069, 231, -1019, 1215, 629, 470, 963, 684, 792, 418, 390, 804
337886657, -6086, 13628, -6667, -1106, 600, -1055, -2069, 231, -1019, 1215, 629, 470, 963, 684, 792, 418, 390, 804
337887510, -6086, 13628, -6667, -1106, 600, -1055, -2069, 231, -1019, 1215, 629, 470, 963, 684, 792, 418, 390, 804
337888286, -6086, 13628, -6667, -1106, 600, -1055, -2069, 231, -1019, 1215, 629, 470, 963, 684, 792, 418, 390, 804
337889128, -6086, 13628, -6667, -1106, 600, -1055, -2069, 231, -1019, 1215, 629, 470, 963, 684, 792, 418, 390, 804
337894057, -6086, 13628, -6667, -1106, 600, -1055, -2069, 231, -1019, 1215, 629, 470, 963, 684, 792, 418, 390, 804
337894924, -6086, 13628, -6667, -1106, 600, -1055, -2069, 231, -1019, 1215, 629, 470, 963, 684, 792, 418, 390, 804
337895701, -6086, 13628, -6667, -1106, 600, -1055, -2069, 231, -1019, 1215, 629, 470, 963, 684, 792, 418, 390, 804
337896511, -6086, 13628, -6667, -1106, 600, -1055, -2069, 231, -1019, 1215, 629, 470, 963, 684, 792, 418, 390, 804
337901643, -6086, 13628, -6667, -1106, 600, -1055, -2069, 231, -1019, 1215, 629, 470, 963, 684, 792, 418, 390, 804
337902631, -6109, 13583, -6737, -1109, 485, -1189, -2054, 393, -603, 847, 629, 470, 963, 684, 792, 418, 390, 804
337903347, -6109, 13583, -6737, -1109, 485, -1189, -2054, 393, -603, 847, 606, 434, 851, 609, 857, 370, 373, 803
337904229, -6109, 13583, -6737, -1109, 485, -1189, -2054, 393, -603, 847, 606, 434, 851, 609, 857, 370, 373, 803
337909250, -6109, 13583, -6737, -1109, 485, -1189, -2054, 393, -603, 847, 606, 434, 851, 609, 857, 370, 373, 803
337910072, -6109, 13583, -6737, -1109, 485, -1189, -2054, 393, -603, 847, 606, 434, 851, 609, 857, 370, 373, 803
337910838, -6109, 13583, -6737, -1109, 485, -1189, -2054, 393, -603, 847, 606, 434, 851, 609, 857, 370, 373, 803
337911685, -6109, 13583, -6737, -1109, 485, -1189, -2054, 393, -603, 847, 606, 434, 851, 609, 857, 370, 373, 803
337916653, -6109, 13583, -6737, -1109, 485, -1189, -2054, 393, -603, 847, 606, 434, 851, 609, 857, 370, 373, 803
337917432, -6109, 13583, -6737, -1109, 485, -1189, -2054, 393, -603, 847, 606, 434, 851, 609, 857, 370, 373, 803
337918231, -6109, 13583, -6737, -1109, 485, -1189, -2054, 393, -603, 847, 606, 434, 851, 609, 857, 370, 373, 803
337919063, -6109, 13583, -6737, -1109, 485, -1189, -2054, 393, -603, 847, 606, 434, 851, 609, 857, 370, 373, 803
337924108, -6109, 13583, -6737, -1109, 485, -1189, -2054, 393, -603, 847, 606, 434, 851, 609, 857, 370, 373, 803
337925056, -6130, 13548, -6801, -1036, 406, -1196, -2154, 571, -243, 610, 606, 434, 851, 609, 857, 370, 373, 803
337925856, -6130, 13548, -6801, -1036, 406, -1196, -2154, 571, -243, 610, 497, 359, 752, 606, 838, 362, 325, 722
337926708, -6130, 13548, -6801, -1036, 406, -1196, -2154, 571, -243, 610, 497, 359, 752, 606, 838, 362, 325, 722
337931682, -6130, 13548, -6801, -1036, 406, -1196, -2154, 571, -243, 610, 497, 359, 752, 606, 838, 362, 325, 722
337932538, -6130, 13548, -6801, -1036, 406, -1196, -2154, 571, -243, 610, 497, 359, 752, 606, 838, 362, 325, 722
337933313, -6130, 13548, -6801, -1036, 406, -1196, -2154, 571, -243, 610, 497, 359, 752, 606, 838, 362, 325, 722
337934173, -6130, 13548, -6801, -1036, 406, -1196, -2154, 571, -243, 610, 497, 359, 752, 606, 838, 362, 325, 722
337939124, -6130, 13548, -6801, -1036, 406, -1196, -2154, 571, -243, 610, 497, 359, 752, 606, 838, 362, 325, 722
337939881, -6130, 13548, -6801, -1036, 406, -1196, -2154, 571, -243, 610, 497, 359, 752, 606, 838, 362, 325, 722
337940748, -6130, 13548, -6801, -1036, 406, -1196, -2154, 571, -243, 610, 497, 359, 752, 606, 838, 362, 325, 722
337941557, -6130, 13548, -6801, -1036, 406, -1196, -2154, 571, -243, 610, 497, 359, 752, 606, 838, 362, 325, 722
337946637, -6130, 13548, -6801, -1036, 406, -1196, -2154, 571, -243, 610, 497, 359, 752, 606, 838, 362, 325, 722
337947516, -6143, 13532, -6841, -895, 425, -1240, -2196, 642, 42, 328, 497, 359, 752, 606, 838, 362, 325, 722
337948306, -6143, 13532, -6841, -895, 425, -1240, -2196, 642, 42, 328, 367, 217, 615, 681, 854, 420, 264, 599
337949131, -6143, 13532, -6841, -895, 425, -1240, -2196, 642, 42, 328, 367, 217, 615, 681, 854, 420, 264, 599
337954186, -6143, 13532, -6841, -895, 425, -1240, -2196, 642, 42, 328, 367, 217, 615, 681, 854, 420, 264, 599
337954983, -6143, 13532, -6841, -895, 425, -1240, -2196, 642, 42, 328, 367, 217, 615, 681, 854, 420, 264, 599
337955809, -6143, 13532, -6841, -895, 425, -1240, -2196, 642, 42, 328, 367, 217, 615, 681, 854, 420, 264, 599
337956635, -6143, 13532, -6841, -895, 425, -1240, -2196, 642, 42, 328, 367, 217, 615, 681, 854, 420, 264, 599
337961554, -6143, 13532, -6841, -895, 425, -1240, -2196, 642, 42, 328, 367, 217, 615, 681, 854, 420, 264, 599
337962407, -6143, 13532, -6841, -895, 425, -1240, -2196, 642, 42, 328, 367, 217, 615, 681, 854, 420, 264, 599
337963181, -6143, 13532, -6841, -895, 425, -1240, -2196, 642, 42, 328, 367, 217, 615, 681, 854, 420, 264, 599
337964024, -6143, 13532, -6841, -895, 425, -1240, -2196, 642, 42, 328, 367, 217, 615, 681, 854, 420, 264, 599
337969155, -6143, 13532, -6841, -895, 425, -1240, -2196, 642, 42, 328, 367, 217, 615, 681, 854, 420, 264, 599
337970059, -6138, 13539, -6853, -689, 511, -1366, -2204, 621, 322, 56, 367, 217, 615, 681, 854, 420, 264, 599
337970904, -6138, 13539, -6853, -689, 511, -1366, -2204, 621, 322, 56, 232, 217, 435, 793, 836, 445, 267, 555
337971681, -6138, 13539, -6853, -689, 511, -1366, -2204, 621, 322, 56, 232, 217, 435, 793, 836, 445, 267, 555
337976698, -6138, 13539, -6853, -689, 511, -1366, -2204, 621, 322, 56, 232, 217, 435, 793, 836, 445, 267, 555
337977628, -6138, 13539, -6853, -689, 511, -1366, -2204, 621, 322, 56, 232, 217, 435, 793, 836, 445, 267, 555
337978382, -6138, 13539, -6853, -689, 511, -1366, -2204, 621, 322, 56, 232, 217, 435, 793, 836, 445, 267, 555
337979139, -6138, 13539, -6853, -689, 511, -1366, -2204, 621, 322, 56, 232, 217, 435, 793, 836, 445, 267, 555
337984088, -6138, 13539, -6853, -689, 511, -1366, -2204, 621, 322, 56, 232, 217, 435, 793, 836, 445, 267, 555
337984905, -6138, 13539, -6853, -689, 511, -1366, -2204, 621, 322, 56, 232, 217, 435, 793, 836, 445, 267, 555
337985758, -6138, 13539, -6853, -689, 511, -1366, -2204, 621, 322, 56, 232, 217, 435, 793, 836, 445, 267, 555
337986534, -6138, 13539, -6853, -689, 511, -1366, -2204, 621, 322, 56, 232, 217, 435, 793, 836, 445, 267, 555
337991661, -6138, 13539, -6853, -689, 511, -1366, -2204, 621, 322, 56, 232, 217, 435, 793, 836, 445, 267, 555
337992537, -6102, 13571, -6844, -416, 669, -1438, -2162, 542, 643, -188, 232, 217, 435, 793, 836, 445, 267, 555
337993349, -6102, 13571, -6844, -416, 669, -1438, -2162, 542, 643, -188, 226, 188, 364, 725, 831, 507, 276, 479
337994157, -6102, 13571, -6844, -416, 669, -1438, -2162, 542, 643, -188, 226, 188, 364, 725, 831, 507, 276, 479
337999157, -6102, 13571, -6844, -416, 669, -1438, -2162, 542, 643, -188, 226, 188, 364, 725, 831, 507, 276, 479
337999956, -6102, 13571, -6844, -416, 669, -1438, -2162, 542, 643, -188, 226, 188, 364, 725, 831, 507, 276, 479
338000781, -6102, 13571, -6844, -416, 669, -1438, -2162, 542, 643, -188, 226, 188, 364, 725, 831, 507, 276, 479
338001606, -6102, 13571, -6844, -416, 669, -1438, -2162, 542, 643, -188, 226, 188, 364, 725, 831, 507, 276, 479
338006568, -6102, 13571, -6844, -416, 669, -1438, -2162, 542, 643, -188, 226, 188, 364, 725, 831, 507, 276, 479
338007396, -6102, 13571, -6844, -416, 669, -1438, -2162, 542, 643, -188, 226, 188, 364, 725, 831, 507, 276, 479
338008207, -6102, 13571, -6844, -416, 669, -1438, -2162, 542, 643, -188, 226, 188, 364, 725, 831, 507, 276, 479
338009035, -6102, 13571, -6844, -416, 669, -1438, -2162, 542, 643, -188, 226, 188, 364, 725, 831, 507, 276, 479
338014076, -6102, 13571, -6844, -416, 669, -1438, -2162, 542, 643, -188, 226, 188, 364, 725, 831, 507, 276, 479
338015044, -6033, 13631, -6799, -103, 772, -1566, -2248, 405, 822, -464, 226, 188, 364, 725, 831, 507, 276, 479
338015838, -6033, 13631, -6799, -103, 772, -1566, -2248, 405, 822, -464, 227, 192, 360, 785, 841, 505, 303, 488
338016658, -6033, 13631, -6799, -103, 772, -1566, -2248, 405, 822, -464, 227, 192, 360, 785, 841, 505, 303, 488
338021659, -6033, 13631, -6799, -103, 772, -1566, -2248, 405, 822, -464, 227, 192, 360, 785, 841, 505, 303, 488
338022462, -6033, 13631, -6799, -103, 772, -1566, -2248, 405, 822, -464, 227, 192, 360, 785, 841, 505, 303, 488
338023273, -6033, 13631, -6799, -103, 772, -1566, -2248, 405, 822, -464, 227, 192, 360, 785, 841, 505, 303, 488
338024082, -6033, 13631, -6799, -103, 772, -1566, -2248, 405, 822, -464, 227, 192, 360, 785, 841, 505, 303, 488
338029116, -6033, 13631, -6799, -103, 772, -1566, -2248, 405, 822, -464, 227, 192, 360, 785, 841, 505, 303, 488
338029972, -6033, 13631, -6799, -103, 772, -1566, -2248, 405, 822, -464, 227, 192, 360, 785, 841, 505, 303, 488
338030738, -6033, 13631, -6799, -103, 772, -1566, -2248, 405, 822, -464, 227, 192, 360, 785, 841, 505, 303, 488
338031620, -6033, 13631, -6799, -103, 772, -1566, -2248, 405, 822, -464, 227, 192, 360, 785, 841, 505, 303, 488
338036662, -6033, 13631, -6799, -103, 772, -1566, -2248, 405, 822, -464, 227, 192, 360, 785, 841, 505, 303, 488
338037634, -5925, 13716, -6720, 239, 951, -1590, -2328, 258, 942, -703, 227, 192, 360, 785, 841, 505, 303, 488
338038329, -5925, 13716, -6720, 239, 951, -1590, -2328, 258, 942, -703, 192, 176, 359, 817, 850, 502, 307, 427
338039186, -5925, 13716, -6720, 239, 951, -1590, -2328, 258, 942, -703, 192, 176, 359, 817, 850, 502, 307, 427
338044185, -5925, 13716, -6720, 239, 951, -1590, -2328, 258, 942, -703, 192, 176, 359, 817, 850, 502, 307, 427
338044995, -5925, 13716, -6720, 239, 951, -1590, -2328, 258, 942, -703, 192, 176, 359, 817, 850, 502, 307, 427
338045848, -5925, 13716, -6720, 239, 951, -1590, -2328, 258, 942, -703, 192, 176, 359, 817, 850, 502, 307, 427
338046626, -5925, 13716, -6720, 239, 951, -1590, -2328, 258, 942, -703, 192, 176, 359, 817, 850, 502, 307, 427
338051651, -5925, 13716, -6720, 239, 951, -1590, -2328, 258, 942, -703, 192, 176, 359, 817, 850, 502, 307, 427
338052410, -5925, 13716, -6720, 239, 951, -1590, -2328, 258, 942, -703, 192, 176, 359, 817, 850, 502, 307, 427
338053207, -5925, 13716, -6720, 239, 951, -1590, -2328, 258, 942, -703, 192, 176, 359, 817, 850, 502, 307, 427
338054043, -5925, 13716, -6720, 239, 951, -1590, -2328, 258, 942, -703, 192, 176, 359, 817, 850, 502, 307, 427
338059122, -5925, 13716, -6720, 239, 951, -1590, -2328, 258, 942, -703, 192, 176, 359, 817, 850, 502, 307, 427
338060037, -5774, 13820, -6613, 604, 1102, -1637, -2409, 81, 1075, -911, 192, 176, 359, 817, 850, 502, 307, 427
338060858, -5774, 13820, -6613, 604, 1102, -1637, -2409, 81, 1075, -911, 185, 179, 343, 814, 782, 494, 324, 402
338061655, -5774, 13820, -6613, 604, 1102, -1637, -2409, 81, 1075, -911, 185, 179, 343, 814, 782, 494, 324, 402
338066679, -5774, 13820, -6613, 604, 1102, -1637, -2409, 81, 1075, -911, 185, 179, 343, 814, 782, 494, 324, 402
338067506, -5774, 13820, -6613, 604, 1102, -1637, -2409, 81, 1075, -911, 185, 179, 343, 814, 782, 494, 324, 402
338068309, -5774, 13820, -6613, 604, 1102, -1637, -2409, 81, 1075, -911, 185, 179, 343, 814, 782, 494, 324, 402
338069107, -5774, 13820, -6613, 604, 1102, -1637, -2409, 81, 1075, -911, 185, 179, 343, 814, 782, 494, 324, 402
338074097, -5774, 13820, -6613, 604, 1102, -1637, -2409, 81, 1075, -911, 185, 179, 343, 814, 782, 494, 324, 402
338074883, -5774, 13820, -6613, 604, 1102, -1637, -2409, 81, 1075, -911, 185, 179, 343, 814, 782, 494, 324, 402
338075705, -5774, 13820, -6613, 604, 1102, -1637, -2409, 81, 1075, -911, 185, 179, 343, 814, 782, 494, 324, 402
338076510, -5774, 13820, -6613, 604, 1102, -1637, -2409, 81, 1075, -911, 185, 179, 343, 814, 782, 494, 324, 402
338081635, -5774, 13820, -6613, 604, 1102, -1637, -2409, 81, 1075, -911, 185, 179, 343, 814, 782, 494, 324, 402
338082617, -5596, 13929, -6490, 1002, 1239, -1737, -2414, -21, 1267, -1058, 185, 179, 343, 814, 782, 494, 324, 402
338083312, -5596, 13929, -6490, 1002, 1239, -1737, -2414, -21, 1267, -1058, 181, 186, 343, 754, 820, 499, 351, 375
338084181, -5596, 13929, -6490, 1002, 1239, -1737, -2414, -21, 1267, -1058, 181, 186, 343, 754, 820, 499, 351, 375
338089181, -5596, 13929, -6490, 1002, 1239, -1737, -2414, -21, 1267, -1058, 181, 186, 343, 754, 820, 499, 351, 375
338089981, -5596, 13929, -6490, 1002, 1239, -1737, -2414, -21, 1267, -1058, 181, 186, 343, 754, 820, 499, 351, 375
338090806, -5596, 13929, -6490, 1002, 1239, -1737, -2414, -21, 1267, -1058, 181, 186, 343, 754, 820, 499, 351, 375
338091637, -5596, 13929, -6490, 1002, 1239, -1737, -2414, -21, 1267, -1058, 181, 186, 343, 754, 820, 499, 351, 375
338096633, -5596, 13929, -6490, 1002, 1239, -1737, -2414, -21, 1267, -1058, 181, 186, 343, 754, 820, 499, 351, 375
338097450, -5596, 13929, -6490, 1002, 1239, -1737, -2414, -21, 1267, -1058, 181, 186, 343, 754, 820, 499, 351, 375
338098231, -5596, 13929, -6490, 1002, 1239, -1737, -2414, -21, 1267, -1058, 181, 186, 343, 754, 820, 499, 351, 375
338099073, -5596, 13929, -6490, 1002, 1239, -1737, -2414, -21, 1267, -1058, 181, 186, 343, 754, 820, 499, 351, 375
338104106, -5596, 13929, -6490, 1002, 1239, -1737, -2414, -21, 1267, -1058, 181, 186, 343, 754, 820, 499, 351, 375
338105099, -5423, 14032, -6332, 1425, 1341, -1844, -2383, 26, 1348, -1269, 181, 186, 343, 754, 820, 499, 351, 375
338105856, -5423, 14032, -6332, 1425, 1341, -1844, -2383, 26, 1348, -1269, 164, 186, 348, 795, 872, 461, 343, 374
338106696, -5423, 14032, -6332, 1425, 1341, -1844, -2383, 26, 1348, -1269, 164, 186, 348, 795, 872, 461, 343, 374
338111681, -5423, 14032, -6332, 1425, 1341, -1844, -2383, 26, 1348, -1269, 164, 186, 348, 795, 872, 461, 343, 374
338112511, -5423, 14032, -6332, 1425, 1341, -1844, -2383, 26, 1348, -1269, 164, 186, 348, 795, 872, 461, 343, 374
338113312, -5423, 14032, -6332, 1425, 1341, -1844, -2383, 26, 1348, -1269, 164, 186, 348, 795, 872, 461, 343, 374
338114123, -5423, 14032, -6332, 1425, 1341, -1844, -2383, 26, 1348, -1269, 164, 186, 348, 795, 872, 461, 343, 374
338119080, -5423, 14032, -6332, 1425, 1341, -1844, -2383, 26, 1348, -1269, 164, 186, 348, 795, 872, 461, 343, 374
338119922, -5423, 14032, -6332, 1425, 1341, -1844, -2383, 26, 1348, -1269, 164, 186, 348, 795, 872, 461, 343, 374
338120706, -5423, 14032, -6332, 1425, 1341, -1844, -2383, 26, 1348, -1269, 164, 186, 348, 795, 872, 461, 343, 374
338121549, -5423, 14032, -6332, 1425, 1341, -1844, -2383, 26, 1348, -1269, 164, 186, 348, 795, 872, 461, 343, 374
338126634, -5423, 14032, -6332, 1425, 1341, -1844, -2383, 26, 1348, -1269, 164, 186, 348, 795, 872, 461, 343, 374
338127539, -5254, 14130, -6145, 1846, 1471, -1830, -2496, 109, 1290, -1403, 164, 186, 348, 795, 872, 461, 343, 374
338128337, -5254, 14130, -6145, 1846, 1471, -1830, -2496, 109, 1290, -1403, 134, 173, 331, 801, 874, 471, 313, 292
338129153, -5254, 14130, -6145, 1846, 1471, -1830, -2496, 109, 1290, -1403, 134, 173, 331, 801, 874, 471, 313, 292
338134158, -5254, 14130, -6145, 1846, 1471, -1830, -2496, 109, 1290, -1403, 134, 173, 331, 801, 874, 471, 313, 292
338134965, -5254, 14130, -6145, 1846, 1471, -1830, -2496, 109, 1290, -1403, 134, 173, 331, 801, 874, 471, 313, 292
338135757, -5254, 14130, -6145, 1846, 1471, -1830, -2496, 109, 1290, -1403, 134, 173, 331, 801, 874, 471, 313, 292
338136606, -5254, 14130, -6145, 1846, 1471, -1830, -2496, 109, 1290, -1403, 134, 173, 331, 801, 874, 471, 313, 292
338141556, -5254, 14130, -6145, 1846, 1471, -1830, -2496, 109, 1290, -1403, 134, 173, 331, 801, 874, 471, 313, 292
338142386, -5254, 14130, -6145, 1846, 1471, -1830, -2496, 109, 1290, -1403, 134, 173, 331, 801, 874, 471, 313, 292
338143204, -5254, 14130, -6145, 1846, 1471, -1830, -2496, 109, 1290, -1403, 134, 173, 331, 801, 874, 471, 313, 292
338144012, -5254, 14130, -6145, 1846, 1471, -1830, -2496, 109, 1290, -1403, 134, 173, 331, 801, 874, 471, 313, 292
338149111, -5254, 14130, -6145, 1846, 1471, -1830, -2496, 109, 1290, -1403, 134, 173, 331, 801, 874, 471, 313, 292
338150079, -5087, 14215, -5953, 2244, 1780, -1710, -2516, 154, 1123, -1304, 134, 173, 331, 801, 874, 471, 313, 292
338150884, -5087, 14215, -5953, 2244, 1780, -1710, -2516, 154, 1123, -1304, 162, 186, 296, 716, 832, 463, 308, 446
338151708, -5087, 14215, -5953, 2244, 1780, -1710, -2516, 154, 1123, -1304, 162, 186, 296, 716, 832, 463, 308, 446
338156706, -5087, 14215, -5953, 2244, 1780, -1710, -2516, 154, 1123, -1304, 162, 186, 296, 716, 832, 463, 308, 446
338157549, -5087, 14215, -5953, 2244, 1780, -1710, -2516, 154, 1123, -1304, 162, 186, 296, 716, 832, 463, 308, 446
338158360, -5087, 14215, -5953, 2244, 1780, -1710, -2516, 154, 1123, -1304, 162, 186, 296, 716, 832, 463, 308, 446
338159143, -5087, 14215, -5953, 2244, 1780, -1710, -2516, 154, 1123, -1304, 162, 186, 296, 716, 832, 463, 308, 446
338164082, -5087, 14215, -5953, 2244, 1780, -1710, -2516, 154, 1123, -1304, 162, 186, 296, 716, 832, 463, 308, 446
338164947, -5087, 14215, -5953, 2244, 1780, -1710, -2516, 154, 1123, -1304, 162, 186, 296, 716, 832, 463, 308, 446
338165731, -5087, 14215, -5953, 2244, 1780, -1710, -2516, 154, 1123, -1304, 162, 186, 296, 716, 832, 463, 308, 446
338166576, -5087, 14215, -5953, 2244, 1780, -1710, -2516, 154, 1123, -1304, 162, 186, 296, 716, 832, 463, 308, 446
338171634, -5087, 14215, -5953, 2244, 1780, -1710, -2516, 154, 1123, -1304, 162, 186, 296, 716, 832, 463, 308, 446
338172547, -4930, 14284, -5776, 2591, 1801, -1748, -2560, 115, 960, -1150, 162, 186, 296, 716, 832, 463, 308, 446
338173359, -4930, 14284, -5776, 2591, 1801, -1748, -2560, 115, 960, -1150, 148, 167, 289, 689, 868, 414, 299, 473
338174147, -4930, 14284, -5776, 2591, 1801, -1748, -2560, 115, 960, -1150, 148, 167, 289, 689, 868, 414, 299, 473
338179157, -4930, 14284, -5776, 2591, 1801, -1748, -2560, 115, 960, -1150, 148, 167, 289, 689, 868, 414, 299, 473
338179956, -4930, 14284, -5776, 2591, 1801, -1748, -2560, 115, 960, -1150, 148, 167, 289, 689, 868, 414, 299, 473
338180781, -4930, 14284, -5776, 2591, 1801, -1748, -2560, 115, 960, -1150, 148, 167, 289, 689, 868, 414, 299, 473
338181606, -4930, 14284, -5776, 2591, 1801, -1748, -2560, 115, 960, -1150, 148, 167, 289, 689, 868, 414, 299, 473
338186585, -4930, 14284, -5776, 2591, 1801, -1748, -2560, 115, 960, -1150, 148, 167, 289, 689, 868, 414, 299, 473
338187403, -4930, 14284, -5776, 2591, 1801, -1748, -2560, 115, 960, -1150, 148, 167, 289, 689, 868, 414, 299, 473
338188229, -4930, 14284, -5776, 2591, 1801, -1748, -2560, 115, 960, -1150, 148, 167, 289, 689, 868, 414, 299, 473
338189018, -4930, 14284, -5776, 2591, 1801, -1748, -2560, 115, 960, -1150, 148, 167, 289, 689, 868, 414, 299, 473
338194082, -4930, 14284, -5776, 2591, 1801, -1748, -2560, 115, 960, -1150, 148, 167, 289, 689, 868, 414, 299, 473
338195048, -4817, 14342, -5582, 2890, 1515, -2052, -2631, 169, 813, -1253, 148, 167, 289, 689, 868, 414, 299, 473
338195844, -4817, 14342, -5582, 2890, 1515, -2052, -2631, 169, 813, -1253, 163, 158, 257, 689, 821, 408, 293, 498
338196685, -4817, 14342, -5582, 2890, 1515, -2052, -2631, 169, 813, -1253, 163, 158, 257, 689, 821, 408, 293, 498
338201656, -4817, 14342, -5582, 2890, 1515, -2052, -2631, 169, 813, -1253, 163, 158, 257, 689, 821, 408, 293, 498
338202501, -4817, 14342, -5582, 2890, 1515, -2052, -2631, 169, 813, -1253, 163, 158, 257, 689, 821, 408, 293, 498
338203282, -4817, 14342, -5582, 2890, 1515, -2052, -2631, 169, 813, -1253, 163, 158, 257, 689, 821, 408, 293, 498
338204146, -4817, 14342, -5582, 2890, 1515, -2052, -2631, 169, 813, -1253, 163, 158, 257, 689, 821, 408, 293, 498
338209056, -4817, 14342, -5582, 2890, 1515, -2052, -2631, 169, 813, -1253, 163, 158, 257, 689, 821, 408, 293, 498
338209898, -4817, 14342, -5582, 2890, 1515, -2052, -2631, 169, 813, -1253, 163, 158, 257, 689, 821, 408, 293, 498
338210703, -4817, 14342, -5582, 2890, 1515, -2052, -2631, 169, 813, -1253, 163, 158, 257, 689, 821, 408, 293, 498
338211498, -4817, 14342, -5582, 2890, 1515, -2052, -2631, 169, 813, -1253, 163, 158, 257, 689, 821, 408, 293, 498
338216658, -4817, 14342, -5582, 2890, 1515, -2052, -2631, 169, 813, -1253, 163, 158, 257, 689, 821, 408, 293, 498
338217620, -4729, 14399, -5380, 3129, 1339, -1824, -2772, 331, 602, -1258, 163, 158, 257, 689, 821, 408, 293, 498
338218289, -4729, 14399, -5380, 3129, 1339, -1824, -2772, 331, 602, -1258, 189, 197, 263, 661, 699, 385, 290, 499
338219156, -4729, 14399, -5380, 3129, 1339, -1824, -2772, 331, 602, -1258, 189, 197, 263, 661, 699, 385, 290, 499
338224214, -4729, 14399, -5380, 3129, 1339, -1824, -2772, 331, 602, -1258, 189, 197, 263, 661, 699, 385, 290, 499
338225007, -4729, 14399, -5380, 3129, 1339, -1824, -2772, 331, 602, -1258, 189, 197, 263, 661, 699, 385, 290, 499
338225861, -4729, 14399, -5380, 3129, 1339, -1824, -2772, 331, 602, -1258, 189, 197, 263, 661, 699, 385, 290, 499
338226632, -4729, 14399, -5380, 3129, 1339, -1824, -2772, 331, 602, -1258, 189, 197, 263, 661, 699, 385, 290, 499
338231671, -4729, 14399, -5380, 3129, 1339, -1824, -2772, 331, 602, -1258, 189, 197, 263, 661, 699, 385, 290, 499
338232410, -4729, 14399, -5380, 3129, 1339, -1824, -2772, 331, 602, -1258, 189, 197, 263, 661, 699, 385, 290, 499
338233247, -4729, 14399, -5380, 3129, 1339, -1824, -2772, 331, 602, -1258, 189, 197, 263, 661, 699, 385, 290, 499
338234032, -4729, 14399, -5380, 3129, 1339, -1824, -2772, 331, 602, -1258, 189, 197, 263, 661, 699, 385, 290, 499
338239091, -4729, 14399, -5380, 3129, 1339, -1824, -2772, 331, 602, -1258, 189, 197, 263, 661, 699, 385, 290, 499
338240055, -4630, 14446, -5200, 3355, 1514, -1742, -2812, 290, 590, -1088, 189, 197, 263, 661, 699, 385, 290, 499
338240856, -4630, 14446, -5200, 3355, 1514, -1742, -2812, 290, 590, -1088, 193, 220, 300, 601, 571, 373, 306, 521
338241698, -4630, 14446, -5200, 3355, 1514, -1742, -2812, 290, 590, -1088, 193, 220, 300, 601, 571, 373, 306, 521
338246661, -4630, 14446, -5200, 3355, 1514, -1742, -2812, 290, 590, -1088, 193, 220, 300, 601, 571, 373, 306, 521
338247486, -4630, 14446, -5200, 3355, 1514, -1742, -2812, 290, 590, -1088, 193, 220, 300, 601, 571, 373, 306, 521
338248306, -4630, 14446, -5200, 3355, 1514, -1742, -2812, 290, 590, -1088, 193, 220, 300, 601, 571, 373, 306, 521
338249083, -4630, 14446, -5200, 3355, 1514, -1742, -2812, 290, 590, -1088, 193, 220, 300, 601, 571, 373, 306, 521
338254057, -4630, 14446, -5200, 3355, 1514, -1742, -2812, 290, 590, -1088, 193, 220, 300, 601, 571, 373, 306, 521
338254921, -4630, 14446, -5200, 3355, 1514, -1742, -2812, 290, 590, -1088, 193, 220, 300, 601, 571, 373, 306, 521
338255705, -4630, 14446, -5200, 3355, 1514, -1742, -2812, 290, 590, -1088, 193, 220, 300, 601, 571, 373, 306, 521
338256537, -4630, 14446, -5200, 3355, 1514, -1742, -2812, 290, 590, -1088, 193, 220, 300, 601, 571, 373, 306, 521
338261632, -4630, 14446, -5200, 3355, 1514, -1742, -2812, 290, 590, -1088, 193, 220, 300, 601, 571, 373, 306, 521
338262541, -4517, 14483, -5035, 3593, 1664, -1859, -2864, 213, 717, -1035, 193, 220, 300, 601, 571, 373, 306, 521
338263341, -4517, 14483, -5035, 3593, 1664, -1859, -2864, 213, 717, -1035, 187, 223, 306, 593, 633, 344, 276, 399
338264132, -4517, 14483, -5035, 3593, 1664, -1859, -2864, 213, 717, -1035, 187, 223, 306, 593, 633, 344, 276, 399
338269180, -4517, 14483, -5035, 3593, 1664, -1859, -2864, 213, 717, -1035, 187, 223, 306, 593, 633, 344, 276, 399
338269978, -4517, 14483, -5035, 3593, 1664, -1859, -2864, 213, 717, -1035, 187, 223, 306, 593, 633, 344, 276, 399
338270794, -4517, 14483, -5035, 3593, 1664, -1859, -2864, 213, 717, -1035, 187, 223, 306, 593, 633, 344, 276, 399
338271632, -4517, 14483, -5035, 3593, 1664, -1859, -2864, 213, 717, -1035, 187, 223, 306, 593, 633, 344, 276, 399
338276660, -4517, 14483, -5035, 3593, 1664, -1859, -2864, 213, 717, -1035, 187, 223, 306, 593, 633, 344, 276, 399
338277409, -4517, 14483, -5035, 3593, 1664, -1859, -2864, 213, 717, -1035, 187, 223, 306, 593, 633, 344, 276, 399
338278272, -4517, 14483, -5035, 3593, 1664, -1859, -2864, 213, 717, -1035, 187, 223, 306, 593, 633, 344, 276, 399
338279032, -4517, 14483, -5035, 3593, 1664, -1859, -2864, 213, 717, -1035, 187, 223, 306, 593, 633, 344, 276, 399
338284131, -4517, 14483, -5035, 3593, 1664, -1859, -2864, 213, 717, -1035, 187, 223, 306, 593, 633, 344, 276, 399
338285036, -4389, 14512, -4882, 3838, 1846, -1740, -2793, 166, 786, -956, 187, 223, 306, 593, 633, 344, 276, 399
338285859, -4389, 14512, -4882, 3838, 1846, -1740, -2793, 166, 786, -956, 193, 233, 312, 593, 618, 365, 269, 358
338286685, -4389, 14512, -4882, 3838, 1846, -1740, -2793, 166, 786, -956, 193, 233, 312, 593, 618, 365, 269, 358
338291684, -4389, 14512, -4882, 3838, 1846, -1740, -2793, 166, 786, -956, 193, 233, 312, 593, 618, 365, 269, 358
338292477, -4389, 14512, -4882, 3838, 1846, -1740, -2793, 166, 786, -956, 193, 233, 312, 593, 618, 365, 269, 358
338293304, -4389, 14512, -4882, 3838, 1846, -1740, -2793, 166, 786, -956, 193, 233, 312, 593, 618, 365, 269, 358
338294159, -4389, 14512, -4882, 3838, 1846, -1740, -2793, 166, 786, -956, 193, 233, 312, 593, 618, 365, 269, 358
338299082, -4389, 14512, -4882, 3838, 1846, -1740, -2793, 166, 786, -956, 193, 233, 312, 593, 618, 365, 269, 358
338299908, -4389, 14512, -4882, 3838, 1846, -1740, -2793, 166, 786, -956, 193, 233, 312, 593, 618, 365, 269, 358
338300728, -4389, 14512, -4882, 3838, 1846, -1740, -2793, 166, 786, -956, 193, 233, 312, 593, 618, 365, 269, 358
338301534, -4389, 14512, -4882, 3838, 1846, -1740, -2793, 166, 786, -956, 193, 233, 312, 593, 618, 365, 269, 358
338306647, -4389, 14512, -4882, 3838, 1846, -1740, -2793, 166, 786, -956, 193, 233, 312, 593, 618, 365, 269, 358
338307511, -4243, 14535, -4745, 4080, 2026, -1702, -2715, 32, 803, -867, 193, 233, 312, 593, 618, 365, 269, 358
338308365, -4243, 14535, -4745, 4080, 2026, -1702, -2715, 32, 803, -867, 184, 229, 307, 679, 607, 306, 213, 357
338309157, -4243, 14535, -4745, 4080, 2026, -1702, -2715, 32, 803, -867, 184, 229, 307, 679, 607, 306, 213, 357
338314155, -4243, 14535, -4745, 4080, 2026, -1702, -2715, 32, 803, -867, 184, 229, 307, 679, 607, 306, 213, 357
338314980, -4243, 14535, -4745, 4080, 2026, -1702, -2715, 32, 803, -867, 184, 229, 307, 679, 607, 306, 213, 357
338315808, -4243, 14535, -4745, 4080, 2026, -1702, -2715, 32, 803, -867, 184, 229, 307, 679, 607, 306, 213, 357
338316632, -4243, 14535, -4745, 4080, 2026, -1702, -2715, 32, 803, -867, 184, 229, 307, 679, 607, 306, 213, 357
338321579, -4243, 14535, -4745, 4080, 2026, -1702, -2715, 32, 803, -867, 184, 229, 307, 679, 607, 306, 213, 357
338322356, -4243, 14535, -4745, 4080, 2026, -1702, -2715, 32, 803, -867, 184, 229, 307, 679, 607, 306, 213, 357
338323172, -4243, 14535, -4745, 4080, 2026, -1702, -2715, 32, 803, -867, 184, 229, 307, 679, 607, 306, 213, 357
338323982, -4243, 14535, -4745, 4080, 2026, -1702, -2715, 32, 803, -867, 184, 229, 307, 679, 607, 306, 213, 357
338329133, -4243, 14535, -4745, 4080, 2026, -1702, -2715, 32, 803, -867, 184, 229, 307, 679, 607, 306, 213, 357
338330088, -4116, 14548, -4592, 4330, 2109, -1816, -2635, 100, 824, -951, 184, 229, 307, 679, 607, 306, 213, 357
338330884, -4116, 14548, -4592, 4330, 2109, -1816, -2635, 100, 824, -951, 198, 211, 327, 711, 629, 345, 245, 479
338331684, -4116, 14548, -4592, 4330, 2109, -1816, -2635, 100, 824, -951, 198, 211, 327, 711, 629, 345, 245, 479
338336708, -4116, 14548, -4592, 4330, 2109, -1816, -2635, 100, 824, -951, 198, 211, 327, 711, 629, 345, 245, 479
338337507, -4116, 14548, -4592, 4330, 2109, -1816, -2635, 100, 824, -951, 198, 211, 327, 711, 629, 345, 245, 479
338338337, -4116, 14548, -4592, 4330, 2109, -1816, -2635, 100, 824, -951, 198, 211, 327, 711, 629, 345, 245, 479
338339171, -4116, 14548, -4592, 4330, 2109, -1816, -2635, 100, 824, -951, 198, 211, 327, 711, 629, 345, 245, 479
338344083, -4116, 14548, -4592, 4330, 2109, -1816, -2635, 100, 824, -951, 198, 211, 327, 711, 629, 345, 245, 479
338344928, -4116, 14548, -4592, 4330, 2109, -1816, -2635, 100, 824, -951, 198, 211, 327, 711, 629, 345, 245, 479
338345707, -4116, 14548, -4592, 4330, 2109, -1816, -2635, 100, 824, -951, 198, 211, 327, 711, 629, 345, 245, 479
338346574, -4116, 14548, -4592, 4330, 2109, -1816, -2635, 100, 824, -951, 198, 211, 327, 711, 629, 345, 245, 479
338351635, -4116, 14548, -4592, 4330, 2109, -1816, -2635, 100, 824, -951, 198, 211, 327, 711, 629, 345, 245, 479
338352513, -3973, 14563, -4424, 4582, 2315, -1425, -2613, 184, 808, -964, 198, 211, 327, 711, 629, 345, 245, 479
338353324, -3973, 14563, -4424, 4582, 2315, -1425, -2613, 184, 808, -964, 199, 199, 318, 732, 671, 326, 227, 490
338354122, -3973, 14563, -4424, 4582, 2315, -1425, -2613, 184, 808, -964, 199, 199, 318, 732, 671, 326, 227, 490
338359162, -3973, 14563, -4424, 4582, 2315, -1425, -2613, 184, 808, -964, 199, 199, 318, 732, 671, 326, 227, 490
338360024, -3973, 14563, -4424, 4582, 2315, -1425, -2613, 184, 808, -964, 199, 199, 318, 732, 671, 326, 227, 490
338360820, -3973, 14563, -4424, 4582, 2315, -1425, -2613, 184, 808, -964, 199, 199, 318, 732, 671, 326, 227, 490
338361661, -3973, 14563, -4424, 4582, 2315, -1425, -2613, 184, 808, -964, 199, 199, 318, 732, 671, 326, 227, 490
338366579, -3973, 14563, -4424, 4582, 2315, -1425, -2613, 184, 808, -964, 199, 199, 318, 732, 671, 326, 227, 490
338367409, -3973, 14563, -4424, 4582, 2315, -1425, -2613, 184, 808, -964, 199, 199, 318, 732, 671, 326, 227, 490
338368207, -3973, 14563, -4424, 4582, 2315, -1425, -2613, 184, 808, -964, 199, 199, 318, 732, 671, 326, 227, 490
338369017, -3973, 14563, -4424, 4582, 2315, -1425, -2613, 184, 808, -964, 199, 199, 318, 732, 671, 326, 227, 490
338374082, -3973, 14563, -4424, 4582, 2315, -1425, -2613, 184, 808, -964, 199, 199, 318, 732, 671, 326, 227, 490
338375035, -3830, 14575, -4236, 4836, 2211, -831, -2110, 286, 794, -1019, 199, 199, 318, 732, 671, 326, 227, 490
338375832, -3830, 14575, -4236, 4836, 2211, -831, -2110, 286, 794, -1019, 217, 196, 345, 776, 698, 362, 272, 594
338376657, -3830, 14575, -4236, 4836, 2211, -831, -2110, 286, 794, -1019, 217, 196, 345, 776, 698, 362, 272, 594
338381656, -3830, 14575, -4236, 4836, 2211, -831, -2110, 286, 794, -1019, 217, 196, 345, 776, 698, 362, 272, 594
338382458, -3830, 14575, -4236, 4836, 2211, -831, -2110, 286, 794, -1019, 217, 196, 345, 776, 698, 362, 272, 594
338383281, -3830, 14575, -4236, 4836, 2211, -831, -2110, 286, 794, -1019, 217, 196, 345, 776, 698, 362, 272, 594
338384133, -3830, 14575, -4236, 4836, 2211, -831, -2110, 286, 794, -1019, 217, 196, 345, 776, 698, 362, 272, 594
338389034, -3830, 14575, -4236, 4836, 2211, -831, -2110, 286, 794, -1019, 217, 196, 345, 776, 698, 362, 272, 594
338389858, -3830, 14575, -4236, 4836, 2211, -831, -2110, 286, 794, -1019, 217, 196, 345, 776, 698, 362, 272, 594
338390692, -3830, 14575, -4236, 4836, 2211, -831, -2110, 286, 794, -1019, 217, 196, 345, 776, 698, 362, 272, 594
338391482, -3830, 14575, -4236, 4836, 2211, -831, -2110, 286, 794, -1019, 217, 196, 345, 776, 698, 362, 272, 594
338396640, -3830, 14575, -4236, 4836, 2211, -831, -2110, 286, 794, -1019, 217, 196, 345, 776, 698, 362, 272, 594
338397613, -3660, 14591, -4085, 5045, 2073, -626, -1955, 34, 714, -848, 217, 196, 345, 776, 698, 362, 272, 594
338398286, -3660, 14591, -4085, 5045, 2073, -626, -1955, 34, 714, -848, 221, 200, 393, 852, 735, 370, 417, 644
338399156, -3660, 14591, -4085, 5045, 2073, -626, -1955, 34, 714, -848, 221, 200, 393, 852, 735, 370, 417, 644
338404183, -3660, 14591, -4085, 5045, 2073, -626, -1955, 34, 714, -848, 221, 200, 393, 852, 735, 370, 417, 644
338405046, -3660, 14591, -4085, 5045, 2073, -626, -1955, 34, 714, -848, 221, 200, 393, 852, 735, 370, 417, 644
338405807, -3660, 14591, -4085, 5045, 2073, -626, -1955, 34, 714, -848, 221, 200, 393, 852, 735, 370, 417, 644
338406671, -3660, 14591, -4085, 5045, 2073, -626, -1955, 34, 714, -848, 221, 200, 393, 852, 735, 370, 417, 644
338411632, -3660, 14591, -4085, 5045, 2073, -626, -1955, 34, 714, -848, 221, 200, 393, 852, 735, 370, 417, 644
338412412, -3660, 14591, -4085, 5045, 2073, -626, -1955, 34, 714, -848, 221, 200, 393, 852, 735, 370, 417, 644
338413206, -3660, 14591, -4085, 5045, 2073, -626, -1955, 34, 714, -848, 221, 200, 393, 852, 735, 370, 417, 644
338414059, -3660, 14591, -4085, 5045, 2073, -626, -1955, 34, 714, -848, 221, 200, 393, 852, 735, 370, 417, 644
338419081, -3660, 14591, -4085, 5045, 2073, -626, -1955, 34, 714, -848, 221, 200, 393, 852, 735, 370, 417, 644
338420075, -3533, 14627, -3981, 5113, 2112, -755, -2622, 82, 144, -432, 221, 200, 393, 852, 735, 370, 417, 644
338420853, -3533, 14627, -3981, 5113, 2112, -755, -2622, 82, 144, -432, 222, 215, 494, 838, 756, 453, 427, 624
338421679, -3533, 14627, -3981, 5113, 2112, -755, -2622, 82, 144, -432, 222, 215, 494, 838, 756, 453, 427, 624
338426699, -3533, 14627, -3981, 5113, 2112, -755, -2622, 82, 144, -432, 222, 215, 494, 838, 756, 453, 427, 624
338427502, -3533, 14627, -3981, 5113, 2112, -755, -2622, 82, 144, -432, 222, 215, 494, 838, 756, 453, 427, 624
338428307, -3533, 14627, -3981, 5113, 2112, -755, -2622, 82, 144, -432, 222, 215, 494, 838, 756, 453, 427, 624
338429149, -3533, 14627, -3981, 5113, 2112, -755, -2622, 82, 144, -432, 222, 215, 494, 838, 756, 453, 427, 624
338434057, -3533, 14627, -3981, 5113, 2112, -755, -2622, 82, 144, -432, 222, 215, 494, 838, 756, 453, 427, 624
338434903, -3533, 14627, -3981, 5113, 2112, -755, -2622, 82, 144, -432, 222, 215, 494, 838, 756, 453, 427, 624
338435681, -3533, 14627, -3981, 5113, 2112, -755, -2622, 82, 144, -432, 222, 215, 494, 838, 756, 453, 427, 624
338436538, -3533, 14627, -3981, 5113, 2112, -755, -2622, 82, 144, -432, 222, 215, 494, 838, 756, 453, 427, 624
338441557, -3533, 14627, -3981, 5113, 2112, -755, -2622, 82, 144, -432, 222, 215, 494, 838, 756, 453, 427, 624
338442549, -3516, 14650, -3932, 5097, 1928, -1275, -2318, 133, -344, -36, 222, 215, 494, 838, 756, 453, 427, 624
338443312, -3516, 14650, -3932, 5097, 1928, -1275, -2318, 133, -344, -36, 201, 216, 578, 835, 808, 490, 457, 627
338444149, -3516, 14650, -3932, 5097, 1928, -1275, -2318, 133, -344, -36, 201, 216, 578, 835, 808, 490, 457, 627
338449123, -3516, 14650, -3932, 5097, 1928, -1275, -2318, 133, -344, -36, 201, 216, 578, 835, 808, 490, 457, 627
338449939, -3516, 14650, -3932, 5097, 1928, -1275, -2318, 133, -344, -36, 201, 216, 578, 835, 808, 490, 457, 627
338450756, -3516, 14650, -3932, 5097, 1928, -1275, -2318, 133, -344, -36, 201, 216, 578, 835, 808, 490, 457, 627
338451613, -3516, 14650, -3932, 5097, 1928, -1275, -2318, 133, -344, -36, 201, 216, 578, 835, 808, 490, 457, 627
338456640, -3516, 14650, -3932, 5097, 1928, -1275, -2318, 133, -344, -36, 201, 216, 578, 835, 808, 490, 457, 627
338457400, -3516, 14650, -3932, 5097, 1928, -1275, -2318, 133, -344, -36, 201, 216, 578, 835, 808, 490, 457, 627
338458207, -3516, 14650, -3932, 5097, 1928, -1275, -2318, 133, -344, -36, 201, 216, 578, 835, 808, 490, 457, 627
338459006, -3516, 14650, -3932, 5097, 1928, -1275, -2318, 133, -344, -36, 201, 216, 578, 835, 808, 490, 457, 627
338464081, -3516, 14650, -3932, 5097, 1928, -1275, -2318, 133, -344, -36, 201, 216, 578, 835, 808, 490, 457, 627
338465008, -3554, 14646, -3882, 5120, 2082, -1269, -2136, 444, -269, 94, 201, 216, 578, 835, 808, 490, 457, 627
338465831, -3554, 14646, -3882, 5120, 2082, -1269, -2136, 444, -269, 94, 206, 225, 632, 830, 758, 476, 477, 638
338466658, -3554, 14646, -3882, 5120, 2082, -1269, -2136, 444, -269, 94, 206, 225, 632, 830, 758, 476, 477, 638
338471683, -3554, 14646, -3882, 5120, 2082, -1269, -2136, 444, -269, 94, 206, 225, 632, 830, 758, 476, 477, 638
338472511, -3554, 14646, -3882, 5120, 2082, -1269, -2136, 444, -269, 94, 206, 225, 632, 830, 758, 476, 477, 638
338473312, -3554, 14646, -3882, 5120, 2082, -1269, -2136, 444, -269, 94, 206, 225, 632, 830, 758, 476, 477, 638
338474159, -3554, 14646, -3882, 5120, 2082, -1269, -2136, 444, -269, 94, 206, 225, 632, 830, 758, 476, 477, 638
338479081, -3554, 14646, -3882, 5120, 2082, -1269, -2136, 444, -269, 94, 206, 225, 632, 830, 758, 476, 477, 638
338479908, -3554, 14646, -3882, 5120, 2082, -1269, -2136, 444, -269, 94, 206, 225, 632, 830, 758, 476, 477, 638
338480707, -3554, 14646, -3882, 5120, 2082, -1269, -2136, 444, -269, 94, 206, 225, 632, 830, 758, 476, 477, 638
338481536, -3554, 14646, -3882, 5120, 2082, -1269, -2136, 444, -269, 94, 206, 225, 632, 830, 758, 476, 477, 638
338486637, -3554, 14646, -3882, 5120, 2082, -1269, -2136, 444, -269, 94, 206, 225, 632, 830, 758, 476, 477, 638
338487545, -3612, 14650, -3826, 5112, 2013, -1275, -2213, 535, -430, 105, 206, 225, 632, 830, 758, 476, 477, 638
338488337, -3612, 14650, -3826, 5112, 2013, -1275, -2213, 535, -430, 105, 203, 212, 729, 814, 745, 457, 466, 644
338489135, -3612, 14650, -3826, 5112, 2013, -1275, -2213, 535, -430, 105, 203, 212, 729, 814, 745, 457, 466, 644
338494193, -3612, 14650, -3826, 5112, 2013, -1275, -2213, 535, -430, 105, 203, 212, 729, 814, 745, 457, 466, 644
338494984, -3612, 14650, -3826, 5112, 2013, -1275, -2213, 535, -430, 105, 203, 212, 729, 814, 745, 457, 466, 644
338495772, -3612, 14650, -3826, 5112, 2013, -1275, -2213, 535, -430, 105, 203, 212, 729, 814, 745, 457, 466, 644
338496668, -3612, 14650, -3826, 5112, 2013, -1275, -2213, 535, -430, 105, 203, 212, 729, 814, 745, 457, 466, 644
338501600, -3612, 14650, -3826, 5112, 2013, -1275, -2213, 535, -430, 105, 203, 212, 729, 814, 745, 457, 466, 644
338502386, -3612, 14650, -3826, 5112, 2013, -1275, -2213, 535, -430, 105, 203, 212, 729, 814, 745, 457, 466, 644
338503182, -3612, 14650, -3826, 5112, 2013, -1275, -2213, 535, -430, 105, 203, 212, 729, 814, 745, 457, 466, 644
338504036, -3612, 14650, -3826, 5112, 2013, -1275, -2213, 535, -430, 105, 203, 212, 729, 814, 745, 457, 466, 644
338509061, -3612, 14650, -3826, 5112, 2013, -1275, -2213, 535, -430, 105, 203, 212, 729, 814, 745, 457, 466, 644
338510037, -3654, 14657, -3773, 5101, 1988, -1330, -2194, 421, -413, 77, 203, 212, 729, 814, 745, 457, 466, 644
338510807, -3654, 14657, -3773, 5101, 1988, -1330, -2194, 421, -413, 77, 204, 207, 724, 704, 696, 532, 359, 671
338511635, -3654, 14657, -3773, 5101, 1988, -1330, -2194, 421, -413, 77, 204, 207, 724, 704, 696, 532, 359, 671
338516615, -3654, 14657, -3773, 5101, 1988, -1330, -2194, 421, -413, 77, 204, 207, 724, 704, 696, 532, 359, 671
338517460, -3654, 14657, -3773, 5101, 1988, -1330, -2194, 421, -413, 77, 204, 207, 724, 704, 696, 532, 359, 671
338518258, -3654, 14657, -3773, 5101, 1988, -1330, -2194, 421, -413, 77, 204, 207, 724, 704, 696, 532, 359, 671
338519095, -3654, 14657, -3773, 5101, 1988, -1330, -2194, 421, -413, 77, 204, 207, 724, 704, 696, 532, 359, 671
338524082, -3654, 14657, -3773, 5101, 1988, -1330, -2194, 421, -413, 77, 204, 207, 724, 704, 696, 532, 359, 671
338524947, -3654, 14657, -3773, 5101, 1988, -1330, -2194, 421, -413, 77, 204, 207, 724, 704, 696, 532, 359, 671
338525707, -3654, 14657, -3773, 5101, 1988, -1330, -2194, 421, -413, 77, 204, 207, 724, 704, 696, 532, 359, 671
338526560, -3654, 14657, -3773, 5101, 1988, -1330, -2194, 421, -413, 77, 204, 207, 724, 704, 696, 532, 359, 671
338531633, -3654, 14657, -3773, 5101, 1988, -1330, -2194, 421, -413, 77, 204, 207, 724, 704, 696, 532, 359, 671
338532535, -3679, 14665, -3727, 5092, 1928, -1380, -2202, 304, -351, 51, 204, 207, 724, 704, 696, 532, 359, 671
338533357, -3679, 14665, -3727, 5092, 1928, -1380, -2202, 304, -351, 51, 224, 214, 698, 724, 664, 504, 365, 745
338534179, -3679, 14665, -3727, 5092, 1928, -1380, -2202, 304, -351, 51, 224, 214, 698, 724, 664, 504, 365, 745
338539181, -3679, 14665, -3727, 5092, 1928, -1380, -2202, 304, -351, 51, 224, 214, 698, 724, 664, 504, 365, 745
338540017, -3679, 14665, -3727, 5092, 1928, -1380, -2202, 304, -351, 51, 224, 214, 698, 724, 664, 504, 365, 745
338540807, -3679, 14665, -3727, 5092, 1928, -1380, -2202, 304, -351, 51, 224, 214, 698, 724, 664, 504, 365, 745
338541642, -3679, 14665, -3727, 5092, 1928, -1380, -2202, 304, -351, 51, 224, 214, 698, 724, 664, 504, 365, 745
338546577, -3679, 14665, -3727, 5092, 1928, -1380, -2202, 304, -351, 51, 224, 214, 698, 724, 664, 504, 365, 745
338547373, -3679, 14665, -3727, 5092, 1928, -1380, -2202, 304, -351, 51, 224, 214, 698, 724, 664, 504, 365, 745
338548157, -3679, 14665, -3727, 5092, 1928, -1380, -2202, 304, -351, 51, 224, 214, 698, 724, 664, 504, 365, 745
338549014, -3679, 14665, -3727, 5092, 1928, -1380, -2202, 304, -351, 51, 224, 214, 698, 724, 664, 504, 365, 745
338554092, -3679, 14665, -3727, 5092, 1928, -1380, -2202, 304, -351, 51, 224, 214, 698, 724, 664, 504, 365, 745
338555050, -3683, 14675, -3680, 5095, 1919, -1486, -2209, 175, -265, -42, 224, 214, 698, 724, 664, 504, 365, 745
338555831, -3683, 14675, -3680, 5095, 1919, -1486, -2209, 175, -265, -42, 242, 229, 707, 723, 686, 561, 352, 744
338556672, -3683, 14675, -3680, 5095, 1919, -1486, -2209, 175, -265, -42, 242, 229, 707, 723, 686, 561, 352, 744
338561657, -3683, 14675, -3680, 5095, 1919, -1486, -2209, 175, -265, -42, 242, 229, 707, 723, 686, 561, 352, 744
338562501, -3683, 14675, -3680, 5095, 1919, -1486, -2209, 175, -265, -42, 242, 229, 707, 723, 686, 561, 352, 744
338563282, -3683, 14675, -3680, 5095, 1919, -1486, -2209, 175, -265, -42, 242, 229, 707, 723, 686, 561, 352, 744
338564106, -3683, 14675, -3680, 5095, 1919, -1486, -2209, 175, -265, -42, 242, 229, 707, 723, 686, 561, 352, 744
338569031, -3683, 14675, -3680, 5095, 1919, -1486, -2209, 175, -265, -42, 242, 229, 707, 723, 686, 561, 352, 744
338569885, -3683, 14675, -3680, 5095, 1919, -1486, -2209, 175, -265, -42, 242, 229, 707, 723, 686, 561, 352, 744
338570681, -3683, 14675, -3680, 5095, 1919, -1486, -2209, 175, -265, -42, 242, 229, 707, 723, 686, 561, 352, 744
338571526, -3683, 14675, -3680, 5095, 1919, -1486, -2209, 175, -265, -42, 242, 229, 707, 723, 686, 561, 352, 744
338576631, -3683, 14675, -3680, 5095, 1919, -1486, -2209, 175, -265, -42, 242, 229, 707, 723, 686, 561, 352, 744
338577674, -3673, 14681, -3622, 5126, 1921, -1667, -2166, 78, -112, -205, 242, 229, 707, 723, 686, 561, 352, 744
338578312, -3673, 14681, -3622, 5126, 1921, -1667, -2166, 78, -112, -205, 247, 214, 657, 735, 719, 607, 338, 849
338579209, -3673, 14681, -3622, 5126, 1921, -1667, -2166, 78, -112, -205, 247, 214, 657, 735, 719, 607, 338, 849
338584181, -3673, 14681, -3622, 5126, 1921, -1667, -2166, 78, -112, -205, 247, 214, 657, 735, 719, 607, 338, 849
338585028, -3673, 14681, -3622, 5126, 1921, -1667, -2166, 78, -112, -205, 247, 214, 657, 735, 719, 607, 338, 849
338585806, -3673, 14681, -3622, 5126, 1921, -1667, -2166, 78, -112, -205, 247, 214, 657, 735, 719, 607, 338, 849
338586653, -3673, 14681, -3622, 5126, 1921, -1667, -2166, 78, -112, -205, 247, 214, 657, 735, 719, 607, 338, 849
338591646, -3673, 14681, -3622, 5126, 1921, -1667, -2166, 78, -112, -205, 247, 214, 657, 735, 719, 607, 338, 849
338592384, -3673, 14681, -3622, 5126, 1921, -1667, -2166, 78, -112, -205, 247, 214, 657, 735, 719, 607, 338, 849
338593246, -3673, 14681, -3622, 5126, 1921, -1667, -2166, 78, -112, -205, 247, 214, 657, 735, 719, 607, 338, 849
338594033, -3673, 14681, -3622, 5126, 1921, -1667, -2166, 78, -112, -205, 247, 214, 657, 735, 719, 607, 338, 849
338599072, -3673, 14681, -3622, 5126, 1921, -1667, -2166, 78, -112, -205, 247, 214, 657, 735, 719, 607, 338, 849
338600032, -3643, 14690, -3552, 5169, 1916, -1531, -2171, 66, -32, -300, 247, 214, 657, 735, 719, 607, 338, 849
338600872, -3643, 14690, -3552, 5169, 1916, -1531, -2171, 66, -32, -300, 252, 233, 573, 773, 752, 664, 358, 846
338601657, -3643, 14690, -3552, 5169, 1916, -1531, -2171, 66, -32, -300, 252, 233, 573, 773, 752, 664, 358, 846
338606668, -3643, 14690, -3552, 5169, 1916, -1531, -2171, 66, -32, -300, 252, 233, 573, 773, 752, 664, 358, 846
338607523, -3643, 14690, -3552, 5169, 1916, -1531, -2171, 66, -32, -300, 252, 233, 573, 773, 752, 664, 358, 846
338608288, -3643, 14690, -3552, 5169, 1916, -1531, -2171, 66, -32, -300, 252, 233, 573, 773, 752, 664, 358, 846
338609147, -3643, 14690, -3552, 5169, 1916, -1531, -2171, 66, -32, -300, 252, 233, 573, 773, 752, 664, 358, 846
338614057, -3643, 14690, -3552, 5169, 1916, -1531, -2171, 66, -32, -300, 252, 233, 573, 773, 752, 664, 358, 846
338614899, -3643, 14690, -3552, 5169, 1916, -1531, -2171, 66, -32, -300, 252, 233, 573, 773, 752, 664, 358, 846
338615681, -3643, 14690, -3552, 5169, 1916, -1531, -2171, 66, -32, -300, 252, 233, 573, 773, 752, 664, 358, 846
338616551, -3643, 14690, -3552, 5169, 1916, -1531, -2171, 66, -32, -300, 252, 233, 573, 773, 752, 664, 358, 846
338621556, -3643, 14690, -3552, 5169, 1916, -1531, -2171, 66, -32, -300, 252, 233, 573, 773, 752, 664, 358, 846
338622549, -3571, 14707, -3484, 5220, 1946, -1366, -2191, -97, 50, -343, 252, 233, 573, 773, 752, 664, 358, 846
338623327, -3571, 14707, -3484, 5220, 1946, -1366, -2191, -97, 50, -343, 246, 227, 542, 785, 753, 657, 354, 806
338624158, -3571, 14707, -3484, 5220, 1946, -1366, -2191, -97, 50, -343, 246, 227, 542, 785, 753, 657, 354, 806
338629131, -3571, 14707, -3484, 5220, 1946, -1366, -2191, -97, 50, -343, 246, 227, 542, 785, 753, 657, 354, 806
338629954, -3571, 14707, -3484, 5220, 1946, -1366, -2191, -97, 50, -343, 246, 227, 542, 785, 753, 657, 354, 806
338630758, -3571, 14707, -3484, 5220, 1946, -1366, -2191, -97, 50, -343, 246, 227, 542, 785, 753, 657, 354, 806
338631647, -3571, 14707, -3484, 5220, 1946, -1366, -2191, -97, 50, -343, 246, 227, 542, 785, 753, 657, 354, 806
338636574, -3571, 14707, -3484, 5220, 1946, -1366, -2191, -97, 50, -343, 246, 227, 542, 785, 753, 657, 354, 806
338637368, -3571, 14707, -3484, 5220, 1946, -1366, -2191, -97, 50, -343, 246, 227, 542, 785, 753, 657, 354, 806
338638156, -3571, 14707, -3484, 5220, 1946, -1366, -2191, -97, 50, -343, 246, 227, 542, 785, 753, 657, 354, 806
338639008, -3571, 14707, -3484, 5220, 1946, -1366, -2191, -97, 50, -343, 246, 227, 542, 785, 753, 657, 354, 806
338644101, -3571, 14707, -3484, 5220, 1946, -1366, -2191, -97, 50, -343, 246, 227, 542, 785, 753, 657, 354, 806
338645016, -3491, 14717, -3445, 5272, 1958, -1688, -2198, -308, 121, -309, 246, 227, 542, 785, 753, 657, 354, 806
338645832, -3491, 14717, -3445, 5272, 1958, -1688, -2198, -308, 121, -309, 239, 229, 514, 698, 771, 695, 397, 834
338646656, -3491, 14717, -3445, 5272, 1958, -1688, -2198, -308, 121, -309, 239, 229, 514, 698, 771, 695, 397, 834
338651663, -3491, 14717, -3445, 5272, 1958, -1688, -2198, -308, 121, -309, 239, 229, 514, 698, 771, 695, 397, 834
338652506, -3491, 14717, -3445, 5272, 1958, -1688, -2198, -308, 121, -309, 239, 229, 514, 698, 771, 695, 397, 834
338653315, -3491, 14717, -3445, 5272, 1958, -1688, -2198, -308, 121, -309, 239, 229, 514, 698, 771, 695, 397, 834
338654142, -3491, 14717, -3445, 5272, 1958, -1688, -2198, -308, 121, -309, 239, 229, 514, 698, 771, 695, 397, 834
338659106, -3491, 14717, -3445, 5272, 1958, -1688, -2198, -308, 121, -309, 239, 229, 514, 698, 771, 695, 397, 834
338659909, -3491, 14717, -3445, 5272, 1958, -1688, -2198, -308, 121, -309, 239, 229, 514, 698, 771, 695, 397, 834
338660707, -3491, 14717, -3445, 5272, 1958, -1688, -2198, -308, 121, -309, 239, 229, 514, 698, 771, 695, 397, 834
338661550, -3491, 14717, -3445, 5272, 1958, -1688, -2198, -308, 121, -309, 239, 229, 514, 698, 771, 695, 397, 834
338666633, -3491, 14717, -3445, 5272, 1958, -1688, -2198, -308, 121, -309, 239, 229, 514, 698, 771, 695, 397, 834
338667553, -3449, 14714, -3399, 5336, 1955, -1828, -2169, -144, 162, -330, 239, 229, 514, 698, 771, 695, 397, 834
338668359, -3449, 14714, -3399, 5336, 1955, -1828, -2169, -144, 162, -330, 209, 192, 406, 652, 686, 626, 359, 788
338669168, -3449, 14714, -3399, 5336, 1955, -1828, -2169, -144, 162, -330, 209, 192, 406, 652, 686, 626, 359, 788
338674188, -3449, 14714, -3399, 5336, 1955, -1828, -2169, -144, 162, -330, 209, 192, 406, 652, 686, 626, 359, 788
338674955, -3449, 14714, -3399, 5336, 1955, -1828, -2169, -144, 162, -330, 209, 192, 406, 652, 686, 626, 359, 788
338675823, -3449, 14714, -3399, 5336, 1955, -1828, -2169, -144, 162, -330, 209, 192, 406, 652, 686, 626, 359, 788
338676631, -3449, 14714, -3399, 5336, 1955, -1828, -2169, -144, 162, -330, 209, 192, 406, 652, 686, 626, 359, 788
338681598, -3449, 14714, -3399, 5336, 1955, -1828, -2169, -144, 162, -330, 209, 192, 406, 652, 686, 626, 359, 788
338682356, -3449, 14714, -3399, 5336, 1955, -1828, -2169, -144, 162, -330, 209, 192, 406, 652, 686, 626, 359, 788
338683207, -3449, 14714, -3399, 5336, 1955, -1828, -2169, -144, 162, -330, 209, 192, 406, 652, 686, 626, 359, 788
338683983, -3449, 14714, -3399, 5336, 1955, -1828, -2169, -144, 162, -330, 209, 192, 406, 652, 686, 626, 359, 788
338689070, -3449, 14714, -3399, 5336, 1955, -1828, -2169, -144, 162, -330, 209, 192, 406, 652, 686, 626, 359, 788
338690033, -3428, 14711, -3331, 5399, 1944, -1598, -2199, 104, 134, -347, 209, 192, 406, 652, 686, 626, 359, 788
338690847, -3428, 14711, -3331, 5399, 1944, -1598, -2199, 104, 134, -347, 215, 204, 447, 681, 671, 580, 335, 742
338691653, -3428, 14711, -3331, 5399, 1944, -1598, -2199, 104, 134, -347, 215, 204, 447, 681, 671, 580, 335, 742
338696661, -3428, 14711, -3331, 5399, 1944, -1598, -2199, 104, 134, -347, 215, 204, 447, 681, 671, 580, 335, 742
338697460, -3428, 14711, -3331, 5399, 1944, -1598, -2199, 104, 134, -347, 215, 204, 447, 681, 671, 580, 335, 742
338698280, -3428, 14711, -3331, 5399, 1944, -1598, -2199, 104, 134, -347, 215, 204, 447, 681, 671, 580, 335, 742
338699081, -3428, 14711, -3331, 5399, 1944, -1598, -2199, 104, 134, -347, 215, 204, 447, 681, 671, 580, 335, 742
338704113, -3428, 14711, -3331, 5399, 1944, -1598, -2199, 104, 134, -347, 215, 204, 447, 681, 671, 580, 335, 742
338704906, -3428, 14711, -3331, 5399, 1944, -1598, -2199, 104, 134, -347, 215, 204, 447, 681, 671, 580, 335, 742
338705736, -3428, 14711, -3331, 5399, 1944, -1598, -2199, 104, 134, -347, 215, 204, 447, 681, 671, 580, 335, 742
338706557, -3428, 14711, -3331, 5399, 1944, -1598, -2199, 104, 134, -347, 215, 204, 447, 681, 671, 580, 335, 742
338711651, -3428, 14711, -3331, 5399, 1944, -1598, -2199, 104, 134, -347, 215, 204, 447, 681, 671, 580, 335, 742
338712554, -3398, 14712, -3271, 5453, 1989, -1474, -2259, 88, 112, -282, 215, 204, 447, 681, 671, 580, 335, 742
338713358, -3398, 14712, -3271, 5453, 1989, -1474, -2259, 88, 112, -282, 195, 204, 407, 628, 568, 509, 294, 765
338714199, -3398, 14712, -3271, 5453, 1989, -1474, -2259, 88, 112, -282, 195, 204, 407, 628, 568, 509, 294, 765
338719157, -3398, 14712, -3271, 5453, 1989, -1474, -2259, 88, 112, -282, 195, 204, 407, 628, 568, 509, 294, 765
338720008, -3398, 14712, -3271, 5453, 1989, -1474, -2259, 88, 112, -282, 195, 204, 407, 628, 568, 509, 294, 765
338720806, -3398, 14712, -3271, 5453, 1989, -1474, -2259, 88, 112, -282, 195, 204, 407, 628, 568, 509, 294, 765
338721661, -3398, 14712, -3271, 5453, 1989, -1474, -2259, 88, 112, -282, 195, 204, 407, 628, 568, 509, 294, 765
338726557, -3398, 14712, -3271, 5453, 1989, -1474, -2259, 88, 112, -282, 195, 204, 407, 628, 568, 509, 294, 765
338727423, -3398, 14712, -3271, 5453, 1989, -1474, -2259, 88, 112, -282, 195, 204, 407, 628, 568, 509, 294, 765
338728184, -3398, 14712, -3271, 5453, 1989, -1474, -2259, 88, 112, -282, 195, 204, 407, 628, 568, 509, 294, 765
338729009, -3398, 14712, -3271, 5453, 1989, -1474, -2259, 88, 112, -282, 195, 204, 407, 628, 568, 509, 294, 765
338734084, -3398, 14712, -3271, 5453, 1989, -1474, -2259, 88, 112, -282, 195, 204, 407, 628, 568, 509, 294, 765
338734999, -3360, 14711, -3245, 5493, 1982, -1644, -2319, -85, 120, -169, 195, 204, 407, 628, 568, 509, 294, 765
338735808, -3360, 14711, -3245, 5493, 1982, -1644, -2319, -85, 120, -169, 211, 212, 435, 644, 554, 420, 266, 779
338736606, -3360, 14711, -3245, 5493, 1982, -1644, -2319, -85, 120, -169, 211, 212, 435, 644, 554, 420, 266, 779
338741631, -3360, 14711, -3245, 5493, 1982, -1644, -2319, -85, 120, -169, 211, 212, 435, 644, 554, 420, 266, 779
338742434, -3360, 14711, -3245, 5493, 1982, -1644, -2319, -85, 120, -169, 211, 212, 435, 644, 554, 420, 266, 779
338743260, -3360, 14711, -3245, 5493, 1982, -1644, -2319, -85, 120, -169, 211, 212, 435, 644, 554, 420, 266, 779
338744090, -3360, 14711, -3245, 5493, 1982, -1644, -2319, -85, 120, -169, 211, 212, 435, 644, 554, 420, 266, 779
338749057, -3360, 14711, -3245, 5493, 1982, -1644, -2319, -85, 120, -169, 211, 212, 435, 644, 554, 420, 266, 779
338749850, -3360, 14711, -3245, 5493, 1982, -1644, -2319, -85, 120, -169, 211, 212, 435, 644, 554, 420, 266, 779
338750696, -3360, 14711, -3245, 5493, 1982, -1644, -2319, -85, 120, -169, 211, 212, 435, 644, 554, 420, 266, 779
338751486, -3360, 14711, -3245, 5493, 1982, -1644, -2319, -85, 120, -169, 211, 212, 435, 644, 554, 420, 266, 779
338756676, -3360, 14711, -3245, 5493, 1982, -1644, -2319, -85, 120, -169, 211, 212, 435, 644, 554, 420, 266, 779
338757647, -3336, 14707, -3230, 5528, 1982, -1745, -2349, -69, 118, -118, 211, 212, 435, 644, 554, 420, 266, 779
338758324, -3336, 14707, -3230, 5528, 1982, -1745, -2349, -69, 118, -118, 194, 196, 416, 631, 520, 310, 168, 714
338759204, -3336, 14707, -3230, 5528, 1982, -1745, -2349, -69, 118, -118, 194, 196, 416, 631, 520, 310, 168, 714
338764190, -3336, 14707, -3230, 5528, 1982, -1745, -2349, -69, 118, -118, 194, 196, 416, 631, 520, 310, 168, 714
338765044, -3336, 14707, -3230, 5528, 1982, -1745, -2349, -69, 118, -118, 194, 196, 416, 631, 520, 310, 168, 714
338765808, -3336, 14707, -3230, 5528, 1982, -1745, -2349, -69, 118, -118, 194, 196, 416, 631, 520, 310, 168, 714
338766701, -3336, 14707, -3230, 5528, 1982, -1745, -2349, -69, 118, -118, 194, 196, 416, 631, 520, 310, 168, 714
338771648, -3336, 14707, -3230, 5528, 1982, -1745, -2349, -69, 118, -118, 194, 196, 416, 631, 520, 310, 168, 714
338772385, -3336, 14707, -3230, 5528, 1982, -1745, -2349, -69, 118, -118, 194, 196, 416, 631, 520, 310, 168, 714
338773196, -3336, 14707, -3230, 5528, 1982, -1745, -2349, -69, 118, -118, 194, 196, 416, 631, 520, 310, 168, 714
338774025, -3336, 14707, -3230, 5528, 1982, -1745, -2349, -69, 118, -118, 194, 196, 416, 631, 520, 310, 168, 714
