Timestamp, Orientation x, Orientation y, Orientation z, Orientation w, Acceleration x, Acceleration y, Acceleration z, Rotation x, Rotation y, Rotation z, EMG 0, EMG 1, EMG 2, EMG 3, EMG 4, EMG 5, EMG 6, EMG 7
102572371, 2679, 12319, -6594, 8124, 3816, -666, -1953, -19, 16, -24, 0, 0, 0, 0, 0, 0, 0, 0
102573157, 2684, 12318, -6594, 8124, 3810, -673, -1961, -27, 10, -16, 0, 0, 0, 0, 0, 0, 0, 0
102586655, 2688, 12317, -6596, 8124, 3808, -681, -1969, -29, 7, -10, 0, 0, 0, 0, 0, 0, 0, 0
102609158, 2691, 12315, -6597, 8124, 3816, -676, -1979, -20, 10, -8, 0, 0, 0, 0, 0, 0, 0, 0
102624156, 2694, 12313, -6599, 8125, 3813, -670, -1961, -23, 12, 4, 0, 0, 0, 0, 0, 0, 0, 0
102639760, 2694, 12313, -6599, 8125, 3813, -670, -1961, -23, 12, 4, 22, 21, 38, 28, 34, 68, 42, 53
102640661, 2694, 12313, -6599, 8125, 3813, -670, -1961, -23, 12, 4, 22, 21, 38, 28, 34, 68, 42, 53
102646715, 2698, 12308, -6606, 8125, 3819, -681, -1967, -45, 8, 22, 22, 21, 38, 28, 34, 68, 42, 53
102654738, 2698, 12308, -6606, 8125, 3819, -681, -1967, -45, 8, 22, 23, 23, 32, 27, 34, 79, 75, 37
102655535, 2698, 12308, -6606, 8125, 3819, -681, -1967, -45, 8, 22, 23, 23, 32, 27, 34, 79, 75, 37
102671847, 2700, 12300, -6619, 8126, 3810, -720, -1919, -70, -4, 37, 23, 23, 32, 27, 34, 79, 75, 37
102672680, 2700, 12300, -6619, 8126, 3810, -720, -1919, -70, -4, 37, 23, 23, 32, 27, 34, 79, 75, 37
102673509, 2679, 12319, -6594, 8124, 3816, -666, -1953, -19, 16, -24, 23, 23, 32, 27, 34, 79, 75, 37
102674330, 2684, 12318, -6594, 8124, 3810, -673, -1961, -27, 10, -16, 23, 23, 32, 27, 34, 79, 75, 37
102679258, 2688, 12317, -6596, 8124, 3808, -681, -1969, -29, 7, -10, 23, 23, 32, 27, 34, 79, 75, 37
102680109, 2691, 12315, -6597, 8124, 3816, -676, -1979, -20, 10, -8, 23, 23, 32, 27, 34, 79, 75, 37
102680933, 2694, 12313, -6599, 8125, 3813, -670, -1961, -23, 12, 4, 23, 23, 32, 27, 34, 79, 75, 37
102681731, 2694, 12313, -6599, 8125, 3813, -670, -1961, -23, 12, 4, 22, 21, 38, 28, 34, 68, 42, 53
102686831, 2694, 12313, -6599, 8125, 3813, -670, -1961, -23, 12, 4, 23, 23, 32, 27, 34, 79, 75, 37
102687660, 2694, 12313, -6599, 8125, 3813, -670, -1961, -23, 12, 4, 23, 23, 32, 27, 34, 79, 75, 37
102688471, 2694, 12313, -6599, 8125, 3813, -670, -1961, -23, 12, 4, 23, 23, 32, 27, 34, 79, 75, 37
102689283, 2694, 12313, -6599, 8125, 3813, -670, -1961, -23, 12, 4, 23, 23, 32, 27, 34, 79, 75, 37
102694207, 2694, 12313, -6599, 8125, 3813, -670, -1961, -23, 12, 4, 23, 23, 32, 27, 34, 79, 75, 37
102695059, 2694, 12313, -6599, 8125, 3813, -670, -1961, -23, 12, 4, 23, 23, 32, 27, 34, 79, 75, 37
102695831, 2694, 12313, -6599, 8125, 3813, -670, -1961, -23, 12, 4, 23, 23, 32, 27, 34, 79, 75, 37
102696697, 2694, 12313, -6599, 8125, 3813, -670, -1961, -23, 12, 4, 23, 23, 32, 27, 34, 79, 75, 37
102701753, 2694, 12313, -6599, 8125, 3813, -670, -1961, -23, 12, 4, 23, 23, 32, 27, 34, 79, 75, 37
102702687, 2700, 12300, -6619, 8126, 3810, -720, -1919, -70, -4, 37, 23, 23, 32, 27, 34, 79, 75, 37
102703486, 2700, 12300, -6619, 8126, 3810, -720, -1919, -70, -4, 37, 27, 27, 29, 24, 43, 119, 133, 43
102704315, 2700, 12300, -6619, 8126, 3810, -720, -1919, -70, -4, 37, 27, 27, 29, 24, 43, 119, 133, 43
102709306, 2700, 12300, -6619, 8126, 3810, -720, -1919, -70, -4, 37, 27, 27, 29, 24, 43, 119, 133, 43
102710147, 2700, 12300, -6619, 8126, 3810, -720, -1919, -70, -4, 37, 27, 27, 29, 24, 43, 119, 133, 43
102710936, 2700, 12300, -6619, 8126, 3810, -720, -1919, -70, -4, 37, 27, 27, 29, 24, 43, 119, 133, 43
102711772, 2700, 12300, -6619, 8126, 3810, -720, -1919, -70, -4, 37, 27, 27, 29, 24, 43, 119, 133, 43
102716681, 2700, 12300, -6619, 8126, 3810, -720, -1919, -70, -4, 37, 27, 27, 29, 24, 43, 119, 133, 43
102717551, 2700, 12300, -6619, 8126, 3810, -720, -1919, -70, -4, 37, 27, 27, 29, 24, 43, 119, 133, 43
102718313, 2700, 12300, -6619, 8126, 3810, -720, -1919, -70, -4, 37, 27, 27, 29, 24, 43, 119, 133, 43
102719158, 2700, 12300, -6619, 8126, 3810, -720, -1919, -70, -4, 37, 27, 27, 29, 24, 43, 119, 133, 43
102722718, 2700, 12300, -6619, 8126, 3810, -720, -1919, -70, -4, 37, 27, 27, 29, 24, 43, 119, 133, 43
102723656, 2682, 12287, -6645, 8130, 3755, -852, -1889, -46, -38, 107, 27, 27, 29, 24, 43, 119, 133, 43
102731834, 2682, 12287, -6645, 8130, 3755, -852, -1889, -46, -38, 107, 37, 30, 32, 31, 65, 237, 145, 68
102732623, 2682, 12287, -6645, 8130, 3755, -852, -1889, -46, -38, 107, 37, 30, 32, 31, 65, 237, 145, 68
102733434, 2682, 12287, -6645, 8130, 3755, -852, -1889, -46, -38, 107, 37, 30, 32, 31, 65, 237, 145, 68
102734256, 2682, 12287, -6645, 8130, 3755, -852, -1889, -46, -38, 107, 37, 30, 32, 31, 65, 237, 145, 68
102739206, 2682, 12287, -6645, 8130, 3755, -852, -1889, -46, -38, 107, 37, 30, 32, 31, 65, 237, 145, 68
102740006, 2682, 12287, -6645, 8130, 3755, -852, -1889, -46, -38, 107, 37, 30, 32, 31, 65, 237, 145, 68
102740830, 2682, 12287, -6645, 8130, 3755, -852, -1889, -46, -38, 107, 37, 30, 32, 31, 65, 237, 145, 68
102741630, 2682, 12287, -6645, 8130, 3755, -852, -1889, -46, -38, 107, 37, 30, 32, 31, 65, 237, 145, 68
102746764, 2682, 12287, -6645, 8130, 3755, -852, -1889, -46, -38, 107, 37, 30, 32, 31, 65, 237, 145, 68
102747708, 2639, 12264, -6703, 8131, 3687, -1042, -1842, -97, -122, 245, 37, 30, 32, 31, 65, 237, 145, 68
102748502, 2639, 12264, -6703, 8131, 3687, -1042, -1842, -97, -122, 245, 41, 34, 42, 67, 86, 394, 178, 71
102749297, 2639, 12264, -6703, 8131, 3687, -1042, -1842, -97, -122, 245, 41, 34, 42, 67, 86, 394, 178, 71
102754327, 2639, 12264, -6703, 8131, 3687, -1042, -1842, -97, -122, 245, 41, 34, 42, 67, 86, 394, 178, 71
102755118, 2639, 12264, -6703, 8131, 3687, -1042, -1842, -97, -122, 245, 41, 34, 42, 67, 86, 394, 178, 71
102755908, 2639, 12264, -6703, 8131, 3687, -1042, -1842, -97, -122, 245, 41, 34, 42, 67, 86, 394, 178, 71
102756732, 2639, 12264, -6703, 8131, 3687, -1042, -1842, -97, -122, 245, 41, 34, 42, 67, 86, 394, 178, 71
102761681, 2639, 12264, -6703, 8131, 3687, -1042, -1842, -97, -122, 245, 41, 34, 42, 67, 86, 394, 178, 71
102762484, 2639, 12264, -6703, 8131, 3687, -1042, -1842, -97, -122, 245, 41, 34, 42, 67, 86, 394, 178, 71
102763312, 2639, 12264, -6703, 8131, 3687, -1042, -1842, -97, -122, 245, 41, 34, 42, 67, 86, 394, 178, 71
102764106, 2639, 12264, -6703, 8131, 3687, -1042, -1842, -97, -122, 245, 41, 34, 42, 67, 86, 394, 178, 71
102769283, 2639, 12264, -6703, 8131, 3687, -1042, -1842, -97, -122, 245, 41, 34, 42, 67, 86, 394, 178, 71
102770236, 2543, 12237, -6807, 8116, 3676, -1179, -1857, -67, -347, 542, 41, 34, 42, 67, 86, 394, 178, 71
102771031, 2543, 12237, -6807, 8116, 3676, -1179, -1857, -67, -347, 542, 61, 58, 61, 79, 100, 475, 205, 143
102771822, 2543, 12237, -6807, 8116, 3676, -1179, -1857, -67, -347, 542, 61, 58, 61, 79, 100, 475, 205, 143
102776830, 2543, 12237, -6807, 8116, 3676, -1179, -1857, -67, -347, 542, 61, 58, 61, 79, 100, 475, 205, 143
102777684, 2543, 12237, -6807, 8116, 3676, -1179, -1857, -67, -347, 542, 61, 58, 61, 79, 100, 475, 205, 143
102778485, 2543, 12237, -6807, 8116, 3676, -1179, -1857, -67, -347, 542, 61, 58, 61, 79, 100, 475, 205, 143
102779311, 2543, 12237, -6807, 8116, 3676, -1179, -1857, -67, -347, 542, 61, 58, 61, 79, 100, 475, 205, 143
102784231, 2543, 12237, -6807, 8116, 3676, -1179, -1857, -67, -347, 542, 61, 58, 61, 79, 100, 475, 205, 143
102785086, 2543, 12237, -6807, 8116, 3676, -1179, -1857, -67, -347, 542, 61, 58, 61, 79, 100, 475, 205, 143
102785859, 2543, 12237, -6807, 8116, 3676, -1179, -1857, -67, -347, 542, 61, 58, 61, 79, 100, 475, 205, 143
102786690, 2543, 12237, -6807, 8116, 3676, -1179, -1857, -67, -347, 542, 61, 58, 61, 79, 100, 475, 205, 143
102791759, 2543, 12237, -6807, 8116, 3676, -1179, -1857, -67, -347, 542, 61, 58, 61, 79, 100, 475, 205, 143
102792693, 2326, 12194, -7009, 8074, 3722, -1203, -1862, 117, -838, 1365, 61, 58, 61, 79, 100, 475, 205, 143
102793487, 2326, 12194, -7009, 8074, 3722, -1203, -1862, 117, -838, 1365, 113, 78, 116, 120, 162, 600, 332, 247
102794348, 2326, 12194, -7009, 8074, 3722, -1203, -1862, 117, -838, 1365, 113, 78, 116, 120, 162, 600, 332, 247
102799331, 2326, 12194, -7009, 8074, 3722, -1203, -1862, 117, -838, 1365, 113, 78, 116, 120, 162, 600, 332, 247
102800158, 2326, 12194, -7009, 8074, 3722, -1203, -1862, 117, -838, 1365, 113, 78, 116, 120, 162, 600, 332, 247
102800956, 2326, 12194, -7009, 8074, 3722, -1203, -1862, 117, -838, 1365, 113, 78, 116, 120, 162, 600, 332, 247
102801755, 2326, 12194, -7009, 8074, 3722, -1203, -1862, 117, -838, 1365, 113, 78, 116, 120, 162, 600, 332, 247
102806705, 2326, 12194, -7009, 8074, 3722, -1203, -1862, 117, -838, 1365, 113, 78, 116, 120, 162, 600, 332, 247
102807562, 2326, 12194, -7009, 8074, 3722, -1203, -1862, 117, -838, 1365, 113, 78, 116, 120, 162, 600, 332, 247
102808354, 2326, 12194, -7009, 8074, 3722, -1203, -1862, 117, -838, 1365, 113, 78, 116, 120, 162, 600, 332, 247
102809168, 2326, 12194, -7009, 8074, 3722, -1203, -1862, 117, -838, 1365, 113, 78, 116, 120, 162, 600, 332, 247
102814232, 2326, 12194, -7009, 8074, 3722, -1203, -1862, 117, -838, 1365, 113, 78, 116, 120, 162, 600, 332, 247
102815199, 1931, 12150, -7300, 7986, 3768, -1741, -2023, 553, -1453, 2273, 113, 78, 116, 120, 162, 600, 332, 247
102815982, 1931, 12150, -7300, 7986, 3768, -1741, -2023, 553, -1453, 2273, 120, 85, 125, 125, 165, 708, 404, 263
102816822, 1931, 12150, -7300, 7986, 3768, -1741, -2023, 553, -1453, 2273, 120, 85, 125, 125, 165, 708, 404, 263
102821806, 1931, 12150, -7300, 7986, 3768, -1741, -2023, 553, -1453, 2273, 120, 85, 125, 125, 165, 708, 404, 263
102822671, 1931, 12150, -7300, 7986, 3768, -1741, -2023, 553, -1453, 2273, 120, 85, 125, 125, 165, 708, 404, 263
102823434, 1931, 12150, -7300, 7986, 3768, -1741, -2023, 553, -1453, 2273, 120, 85, 125, 125, 165, 708, 404, 263
102824239, 1931, 12150, -7300, 7986, 3768, -1741, -2023, 553, -1453, 2273, 120, 85, 125, 125, 165, 708, 404, 263
102829206, 1931, 12150, -7300, 7986, 3768, -1741, -2023, 553, -1453, 2273, 120, 85, 125, 125, 165, 708, 404, 263
102830084, 1931, 12150, -7300, 7986, 3768, -1741, -2023, 553, -1453, 2273, 120, 85, 125, 125, 165, 708, 404, 263
102830836, 1931, 12150, -7300, 7986, 3768, -1741, -2023, 553, -1453, 2273, 120, 85, 125, 125, 165, 708, 404, 263
102831642, 1931, 12150, -7300, 7986, 3768, -1741, -2023, 553, -1453, 2273, 120, 85, 125, 125, 165, 708, 404, 263
102836754, 1931, 12150, -7300, 7986, 3768, -1741, -2023, 553, -1453, 2273, 120, 85, 125, 125, 165, 708, 404, 263
102837750, 1316, 12088, -7647, 7880, 4026, -1928, -1977, 1255, -2107, 3178, 120, 85, 125, 125, 165, 708, 404, 263
102838534, 1316, 12088, -7647, 7880, 4026, -1928, -1977, 1255, -2107, 3178, 129, 113, 127, 127, 170, 786, 610, 321
102839340, 1316, 12088, -7647, 7880, 4026, -1928, -1977, 1255, -2107, 3178, 129, 113, 127, 127, 170, 786, 610, 321
102844337, 1316, 12088, -7647, 7880, 4026, -1928, -1977, 1255, -2107, 3178, 129, 113, 127, 127, 170, 786, 610, 321
102845167, 1316, 12088, -7647, 7880, 4026, -1928, -1977, 1255, -2107, 3178, 129, 113, 127, 127, 170, 786, 610, 321
102845958, 1316, 12088, -7647, 7880, 4026, -1928, -1977, 1255, -2107, 3178, 129, 113, 127, 127, 170, 786, 610, 321
102846779, 1316, 12088, -7647, 7880, 4026, -1928, -1977, 1255, -2107, 3178, 129, 113, 127, 127, 170, 786, 610, 321
102851726, 1316, 12088, -7647, 7880, 4026, -1928, -1977, 1255, -2107, 3178, 129, 113, 127, 127, 170, 786, 610, 321
102852556, 1316, 12088, -7647, 7880, 4026, -1928, -1977, 1255, -2107, 3178, 129, 113, 127, 127, 170, 786, 610, 321
102853358, 1316, 12088, -7647, 7880, 4026, -1928, -1977, 1255, -2107, 3178, 129, 113, 127, 127, 170, 786, 610, 321
102854222, 1316, 12088, -7647, 7880, 4026, -1928, -1977, 1255, -2107, 3178, 129, 113, 127, 127, 170, 786, 610, 321
102859254, 1316, 12088, -7647, 7880, 4026, -1928, -1977, 1255, -2107, 3178, 129, 113, 127, 127, 170, 786, 610, 321
102860210, 621, 11909, -8179, 7702, 4617, -1648, -2526, 893, -2313, 4467, 129, 113, 127, 127, 170, 786, 610, 321
102860982, 621, 11909, -8179, 7702, 4617, -1648, -2526, 893, -2313, 4467, 144, 131, 147, 131, 246, 803, 624, 342
102861833, 621, 11909, -8179, 7702, 4617, -1648, -2526, 893, -2313, 4467, 144, 131, 147, 131, 246, 803, 624, 342
102866810, 621, 11909, -8179, 7702, 4617, -1648, -2526, 893, -2313, 4467, 144, 131, 147, 131, 246, 803, 624, 342
102867632, 621, 11909, -8179, 7702, 4617, -1648, -2526, 893, -2313, 4467, 144, 131, 147, 131, 246, 803, 624, 342
102868434, 621, 11909, -8179, 7702, 4617, -1648, -2526, 893, -2313, 4467, 144, 131, 147, 131, 246, 803, 624, 342
102869298, 621, 11909, -8179, 7702, 4617, -1648, -2526, 893, -2313, 4467, 144, 131, 147, 131, 246, 803, 624, 342
102874216, 621, 11909, -8179, 7702, 4617, -1648, -2526, 893, -2313, 4467, 144, 131, 147, 131, 246, 803, 624, 342
102875038, 621, 11909, -8179, 7702, 4617, -1648, -2526, 893, -2313, 4467, 144, 131, 147, 131, 246, 803, 624, 342
102875832, 621, 11909, -8179, 7702, 4617, -1648, -2526, 893, -2313, 4467, 144, 131, 147, 131, 246, 803, 624, 342
102876659, 621, 11909, -8179, 7702, 4617, -1648, -2526, 893, -2313, 4467, 144, 131, 147, 131, 246, 803, 624, 342
102881710, 621, 11909, -8179, 7702, 4617, -1648, -2526, 893, -2313, 4467, 144, 131, 147, 131, 246, 803, 624, 342
102882662, 59, 11573, -8918, 7413, 4292, -1951, -2735, -538, -2024, 5367, 144, 131, 147, 131, 246, 803, 624, 342
102883464, 59, 11573, -8918, 7413, 4292, -1951, -2735, -538, -2024, 5367, 151, 195, 144, 128, 274, 780, 624, 334
102884290, 59, 11573, -8918, 7413, 4292, -1951, -2735, -538, -2024, 5367, 151, 195, 144, 128, 274, 780, 624, 334
102889279, 59, 11573, -8918, 7413, 4292, -1951, -2735, -538, -2024, 5367, 151, 195, 144, 128, 274, 780, 624, 334
102890133, 59, 11573, -8918, 7413, 4292, -1951, -2735, -538, -2024, 5367, 151, 195, 144, 128, 274, 780, 624, 334
102890931, 59, 11573, -8918, 7413, 4292, -1951, -2735, -538, -2024, 5367, 151, 195, 144, 128, 274, 780, 624, 334
102891773, 59, 11573, -8918, 7413, 4292, -1951, -2735, -538, -2024, 5367, 151, 195, 144, 128, 274, 780, 624, 334
102896734, 59, 11573, -8918, 7413, 4292, -1951, -2735, -538, -2024, 5367, 151, 195, 144, 128, 274, 780, 624, 334
102897661, 59, 11573, -8918, 7413, 4292, -1951, -2735, -538, -2024, 5367, 151, 195, 144, 128, 274, 780, 624, 334
102898312, 59, 11573, -8918, 7413, 4292, -1951, -2735, -538, -2024, 5367, 151, 195, 144, 128, 274, 780, 624, 334
102899183, 59, 11573, -8918, 7413, 4292, -1951, -2735, -538, -2024, 5367, 151, 195, 144, 128, 274, 780, 624, 334
102904257, 59, 11573, -8918, 7413, 4292, -1951, -2735, -538, -2024, 5367, 151, 195, 144, 128, 274, 780, 624, 334
102905225, -382, 11132, -9766, 7000, 2819, -1997, -2752, -1645, -1914, 5874, 151, 195, 144, 128, 274, 780, 624, 334
102906006, -382, 11132, -9766, 7000, 2819, -1997, -2752, -1645, -1914, 5874, 159, 228, 202, 233, 271, 701, 565, 280
102906872, -382, 11132, -9766, 7000, 2819, -1997, -2752, -1645, -1914, 5874, 151, 195, 144, 128, 274, 780, 624, 334
102911833, -382, 11132, -9766, 7000, 2819, -1997, -2752, -1645, -1914, 5874, 159, 228, 202, 233, 271, 701, 565, 280
102912634, -382, 11132, -9766, 7000, 2819, -1997, -2752, -1645, -1914, 5874, 159, 228, 202, 233, 271, 701, 565, 280
102913461, -382, 11132, -9766, 7000, 2819, -1997, -2752, -1645, -1914, 5874, 159, 228, 202, 233, 271, 701, 565, 280
102914272, -382, 11132, -9766, 7000, 2819, -1997, -2752, -1645, -1914, 5874, 159, 228, 202, 233, 271, 701, 565, 280
102919207, -382, 11132, -9766, 7000, 2819, -1997, -2752, -1645, -1914, 5874, 159, 228, 202, 233, 271, 701, 565, 280
102920006, -382, 11132, -9766, 7000, 2819, -1997, -2752, -1645, -1914, 5874, 159, 228, 202, 233, 271, 701, 565, 280
102920830, -382, 11132, -9766, 7000, 2819, -1997, -2752, -1645, -1914, 5874, 159, 228, 202, 233, 271, 701, 565, 280
102921631, -382, 11132, -9766, 7000, 2819, -1997, -2752, -1645, -1914, 5874, 159, 228, 202, 233, 271, 701, 565, 280
102926725, -382, 11132, -9766, 7000, 2819, -1997, -2752, -1645, -1914, 5874, 159, 228, 202, 233, 271, 701, 565, 280
102927649, -851, 10617, -10650, 6447, 1800, -1839, -2822, -2063, -2322, 6323, 159, 228, 202, 233, 271, 701, 565, 280
102928461, -851, 10617, -10650, 6447, 1800, -1839, -2822, -2063, -2322, 6323, 168, 234, 223, 252, 278, 603, 513, 275
102929322, -851, 10617, -10650, 6447, 1800, -1839, -2822, -2063, -2322, 6323, 168, 234, 223, 252, 278, 603, 513, 275
102934307, -851, 10617, -10650, 6447, 1800, -1839, -2822, -2063, -2322, 6323, 168, 234, 223, 252, 278, 603, 513, 275
102935172, -851, 10617, -10650, 6447, 1800, -1839, -2822, -2063, -2322, 6323, 168, 234, 223, 252, 278, 603, 513, 275
102935932, -851, 10617, -10650, 6447, 1800, -1839, -2822, -2063, -2322, 6323, 168, 234, 223, 252, 278, 603, 513, 275
102936748, -851, 10617, -10650, 6447, 1800, -1839, -2822, -2063, -2322, 6323, 168, 234, 223, 252, 278, 603, 513, 275
102941682, -851, 10617, -10650, 6447, 1800, -1839, -2822, -2063, -2322, 6323, 168, 234, 223, 252, 278, 603, 513, 275
102942484, -851, 10617, -10650, 6447, 1800, -1839, -2822, -2063, -2322, 6323, 168, 234, 223, 252, 278, 603, 513, 275
102943312, -851, 10617, -10650, 6447, 1800, -1839, -2822, -2063, -2322, 6323, 168, 234, 223, 252, 278, 603, 513, 275
102944118, -851, 10617, -10650, 6447, 1800, -1839, -2822, -2063, -2322, 6323, 168, 234, 223, 252, 278, 603, 513, 275
102949235, -851, 10617, -10650, 6447, 1800, -1839, -2822, -2063, -2322, 6323, 168, 234, 223, 252, 278, 603, 513, 275
102950209, -1325, 10106, -11434, 5814, 1205, -1442, -2745, -2091, -2670, 5982, 168, 234, 223, 252, 278, 603, 513, 275
102951069, -1325, 10106, -11434, 5814, 1205, -1442, -2745, -2091, -2670, 5982, 165, 234, 246, 275, 281, 457, 240, 207
102951834, -1325, 10106, -11434, 5814, 1205, -1442, -2745, -2091, -2670, 5982, 165, 234, 246, 275, 281, 457, 240, 207
102956859, -1325, 10106, -11434, 5814, 1205, -1442, -2745, -2091, -2670, 5982, 165, 234, 246, 275, 281, 457, 240, 207
102957657, -1325, 10106, -11434, 5814, 1205, -1442, -2745, -2091, -2670, 5982, 165, 234, 246, 275, 281, 457, 240, 207
102958499, -1325, 10106, -11434, 5814, 1205, -1442, -2745, -2091, -2670, 5982, 165, 234, 246, 275, 281, 457, 240, 207
102959282, -1325, 10106, -11434, 5814, 1205, -1442, -2745, -2091, -2670, 5982, 165, 234, 246, 275, 281, 457, 240, 207
102964272, -1325, 10106, -11434, 5814, 1205, -1442, -2745, -2091, -2670, 5982, 165, 234, 246, 275, 281, 457, 240, 207
102965057, -1325, 10106, -11434, 5814, 1205, -1442, -2745, -2091, -2670, 5982, 165, 234, 246, 275, 281, 457, 240, 207
102965897, -1325, 10106, -11434, 5814, 1205, -1442, -2745, -2091, -2670, 5982, 165, 234, 246, 275, 281, 457, 240, 207
102966709, -1325, 10106, -11434, 5814, 1205, -1442, -2745, -2091, -2670, 5982, 165, 234, 246, 275, 281, 457, 240, 207
102971787, -1325, 10106, -11434, 5814, 1205, -1442, -2745, -2091, -2670, 5982, 165, 234, 246, 275, 281, 457, 240, 207
102972707, -1784, 9597, -12105, 5160, 702, -1304, -2884, -1985, -2726, 5546, 165, 234, 246, 275, 281, 457, 240, 207
102973515, -1784, 9597, -12105, 5160, 702, -1304, -2884, -1985, -2726, 5546, 153, 228, 257, 272, 212, 293, 181, 173
102974312, -1784, 9597, -12105, 5160, 702, -1304, -2884, -1985, -2726, 5546, 153, 228, 257, 272, 212, 293, 181, 173
102979324, -1784, 9597, -12105, 5160, 702, -1304, -2884, -1985, -2726, 5546, 153, 228, 257, 272, 212, 293, 181, 173
102980139, -1784, 9597, -12105, 5160, 702, -1304, -2884, -1985, -2726, 5546, 153, 228, 257, 272, 212, 293, 181, 173
102980957, -1784, 9597, -12105, 5160, 702, -1304, -2884, -1985, -2726, 5546, 153, 228, 257, 272, 212, 293, 181, 173
102981754, -1784, 9597, -12105, 5160, 702, -1304, -2884, -1985, -2726, 5546, 153, 228, 257, 272, 212, 293, 181, 173
102986706, -1784, 9597, -12105, 5160, 702, -1304, -2884, -1985, -2726, 5546, 153, 228, 257, 272, 212, 293, 181, 173
102987555, -1784, 9597, -12105, 5160, 702, -1304, -2884, -1985, -2726, 5546, 153, 228, 257, 272, 212, 293, 181, 173
102988330, -1784, 9597, -12105, 5160, 702, -1304, -2884, -1985, -2726, 5546, 153, 228, 257, 272, 212, 293, 181, 173
102989179, -1784, 9597, -12105, 5160, 702, -1304, -2884, -1985, -2726, 5546, 153, 228, 257, 272, 212, 293, 181, 173
102994230, -1784, 9597, -12105, 5160, 702, -1304, -2884, -1985, -2726, 5546, 153, 228, 257, 272, 212, 293, 181, 173
102995199, -2262, 9132, -12671, 4402, 1047, -1254, -2883, -2198, -3381, 5167, 153, 228, 257, 272, 212, 293, 181, 173
102995981, -2262, 9132, -12671, 4402, 1047, -1254, -2883, -2198, -3381, 5167, 140, 177, 280, 317, 171, 225, 156, 145
102996822, -2262, 9132, -12671, 4402, 1047, -1254, -2883, -2198, -3381, 5167, 140, 177, 280, 317, 171, 225, 156, 145
103001831, -2262, 9132, -12671, 4402, 1047, -1254, -2883, -2198, -3381, 5167, 140, 177, 280, 317, 171, 225, 156, 145
103002643, -2262, 9132, -12671, 4402, 1047, -1254, -2883, -2198, -3381, 5167, 140, 177, 280, 317, 171, 225, 156, 145
103003435, -2262, 9132, -12671, 4402, 1047, -1254, -2883, -2198, -3381, 5167, 140, 177, 280, 317, 171, 225, 156, 145
103004272, -2262, 9132, -12671, 4402, 1047, -1254, -2883, -2198, -3381, 5167, 140, 177, 280, 317, 171, 225, 156, 145
103009203, -2262, 9132, -12671, 4402, 1047, -1254, -2883, -2198, -3381, 5167, 140, 177, 280, 317, 171, 225, 156, 145
103010035, -2262, 9132, -12671, 4402, 1047, -1254, -2883, -2198, -3381, 5167, 140, 177, 280, 317, 171, 225, 156, 145
103010831, -2262, 9132, -12671, 4402, 1047, -1254, -2883, -2198, -3381, 5167, 140, 177, 280, 317, 171, 225, 156, 145
103011642, -2262, 9132, -12671, 4402, 1047, -1254, -2883, -2198, -3381, 5167, 140, 177, 280, 317, 171, 225, 156, 145
103016771, -2262, 9132, -12671, 4402, 1047, -1254, -2883, -2198, -3381, 5167, 140, 177, 280, 317, 171, 225, 156, 145
103017708, -2744, 8847, -12968, 3806, 1502, -1590, -2288, -1312, -3467, 3466, 140, 177, 280, 317, 171, 225, 156, 145
103018538, -2744, 8847, -12968, 3806, 1502, -1590, -2288, -1312, -3467, 3466, 94, 125, 235, 314, 139, 176, 155, 117
103019338, -2744, 8847, -12968, 3806, 1502, -1590, -2288, -1312, -3467, 3466, 94, 125, 235, 314, 139, 176, 155, 117
103024343, -2744, 8847, -12968, 3806, 1502, -1590, -2288, -1312, -3467, 3466, 94, 125, 235, 314, 139, 176, 155, 117
103025157, -2744, 8847, -12968, 3806, 1502, -1590, -2288, -1312, -3467, 3466, 94, 125, 235, 314, 139, 176, 155, 117
103025984, -2744, 8847, -12968, 3806, 1502, -1590, -2288, -1312, -3467, 3466, 94, 125, 235, 314, 139, 176, 155, 117
103026782, -2744, 8847, -12968, 3806, 1502, -1590, -2288, -1312, -3467, 3466, 94, 125, 235, 314, 139, 176, 155, 117
103031716, -2744, 8847, -12968, 3806, 1502, -1590, -2288, -1312, -3467, 3466, 94, 125, 235, 314, 139, 176, 155, 117
103032558, -2744, 8847, -12968, 3806, 1502, -1590, -2288, -1312, -3467, 3466, 94, 125, 235, 314, 139, 176, 155, 117
103033357, -2744, 8847, -12968, 3806, 1502, -1590, -2288, -1312, -3467, 3466, 94, 125, 235, 314, 139, 176, 155, 117
103034223, -2744, 8847, -12968, 3806, 1502, -1590, -2288, -1312, -3467, 3466, 94, 125, 235, 314, 139, 176, 155, 117
103039235, -2744, 8847, -12968, 3806, 1502, -1590, -2288, -1312, -3467, 3466, 94, 125, 235, 314, 139, 176, 155, 117
103040198, -3143, 8746, -13043, 3457, 1266, -1768, -2163, -389, -2790, 1633, 94, 125, 235, 314, 139, 176, 155, 117
103040991, -3143, 8746, -13043, 3457, 1266, -1768, -2163, -389, -2790, 1633, 63, 109, 236, 345, 124, 114, 125, 90
103041804, -3143, 8746, -13043, 3457, 1266, -1768, -2163, -389, -2790, 1633, 63, 109, 236, 345, 124, 114, 125, 90
103046830, -3143, 8746, -13043, 3457, 1266, -1768, -2163, -389, -2790, 1633, 63, 109, 236, 345, 124, 114, 125, 90
103047641, -3143, 8746, -13043, 3457, 1266, -1768, -2163, -389, -2790, 1633, 63, 109, 236, 345, 124, 114, 125, 90
103048428, -3143, 8746, -13043, 3457, 1266, -1768, -2163, -389, -2790, 1633, 63, 109, 236, 345, 124, 114, 125, 90
103049256, -3143, 8746, -13043, 3457, 1266, -1768, -2163, -389, -2790, 1633, 63, 109, 236, 345, 124, 114, 125, 90
103054224, -3143, 8746, -13043, 3457, 1266, -1768, -2163, -389, -2790, 1633, 63, 109, 236, 345, 124, 114, 125, 90
103055025, -3143, 8746, -13043, 3457, 1266, -1768, -2163, -389, -2790, 1633, 63, 109, 236, 345, 124, 114, 125, 90
103055830, -3143, 8746, -13043, 3457, 1266, -1768, -2163, -389, -2790, 1633, 63, 109, 236, 345, 124, 114, 125, 90
103056687, -3143, 8746, -13043, 3457, 1266, -1768, -2163, -389, -2790, 1633, 63, 109, 236, 345, 124, 114, 125, 90
103061734, -3143, 8746, -13043, 3457, 1266, -1768, -2163, -389, -2790, 1633, 63, 109, 236, 345, 124, 114, 125, 90
103062672, -3182, 8823, -12964, 3522, 1816, -1369, -1483, 234, -1045, -3, 63, 109, 236, 345, 124, 114, 125, 90
103063490, -3182, 8823, -12964, 3522, 1816, -1369, -1483, 234, -1045, -3, 50, 80, 536, 381, 106, 96, 101, 70
103064340, -3182, 8823, -12964, 3522, 1816, -1369, -1483, 234, -1045, -3, 50, 80, 536, 381, 106, 96, 101, 70
103069329, -3182, 8823, -12964, 3522, 1816, -1369, -1483, 234, -1045, -3, 50, 80, 536, 381, 106, 96, 101, 70
103070132, -3182, 8823, -12964, 3522, 1816, -1369, -1483, 234, -1045, -3, 50, 80, 536, 381, 106, 96, 101, 70
103070934, -3182, 8823, -12964, 3522, 1816, -1369, -1483, 234, -1045, -3, 50, 80, 536, 381, 106, 96, 101, 70
103071732, -3182, 8823, -12964, 3522, 1816, -1369, -1483, 234, -1045, -3, 50, 80, 536, 381, 106, 96, 101, 70
103076773, -3182, 8823, -12964, 3522, 1816, -1369, -1483, 234, -1045, -3, 50, 80, 536, 381, 106, 96, 101, 70
103077633, -3182, 8823, -12964, 3522, 1816, -1369, -1483, 234, -1045, -3, 50, 80, 536, 381, 106, 96, 101, 70
103078324, -3182, 8823, -12964, 3522, 1816, -1369, -1483, 234, -1045, -3, 50, 80, 536, 381, 106, 96, 101, 70
103079182, -3182, 8823, -12964, 3522, 1816, -1369, -1483, 234, -1045, -3, 50, 80, 536, 381, 106, 96, 101, 70
103084297, -3182, 8823, -12964, 3522, 1816, -1369, -1483, 234, -1045, -3, 50, 80, 536, 381, 106, 96, 101, 70
103085184, -2997, 9036, -12758, 3878, 2241, -1715, -1665, 767, 372, -1456, 50, 80, 536, 381, 106, 96, 101, 70
103086031, -2997, 9036, -12758, 3878, 2241, -1715, -1665, 767, 372, -1456, 58, 99, 816, 386, 120, 99, 218, 85
103086806, -2997, 9036, -12758, 3878, 2241, -1715, -1665, 767, 372, -1456, 58, 99, 816, 386, 120, 99, 218, 85
103091859, -2997, 9036, -12758, 3878, 2241, -1715, -1665, 767, 372, -1456, 58, 99, 816, 386, 120, 99, 218, 85
103092631, -2997, 9036, -12758, 3878, 2241, -1715, -1665, 767, 372, -1456, 58, 99, 816, 386, 120, 99, 218, 85
103093501, -2997, 9036, -12758, 3878, 2241, -1715, -1665, 767, 372, -1456, 58, 99, 816, 386, 120, 99, 218, 85
103094282, -2997, 9036, -12758, 3878, 2241, -1715, -1665, 767, 372, -1456, 58, 99, 816, 386, 120, 99, 218, 85
103099219, -2997, 9036, -12758, 3878, 2241, -1715, -1665, 767, 372, -1456, 58, 99, 816, 386, 120, 99, 218, 85
103100031, -2997, 9036, -12758, 3878, 2241, -1715, -1665, 767, 372, -1456, 58, 99, 816, 386, 120, 99, 218, 85
103100885, -2997, 9036, -12758, 3878, 2241, -1715, -1665, 767, 372, -1456, 58, 99, 816, 386, 120, 99, 218, 85
103101679, -2997, 9036, -12758, 3878, 2241, -1715, -1665, 767, 372, -1456, 58, 99, 816, 386, 120, 99, 218, 85
103106760, -2997, 9036, -12758, 3878, 2241, -1715, -1665, 767, 372, -1456, 58, 99, 816, 386, 120, 99, 218, 85
103107659, -3022, 9341, -12420, 4217, 2310, -2793, -2605, 1595, -63, -2508, 58, 99, 816, 386, 120, 99, 218, 85
103108515, -3022, 9341, -12420, 4217, 2310, -2793, -2605, 1595, -63, -2508, 86, 106, 994, 371, 179, 465, 648, 175
103109309, -3022, 9341, -12420, 4217, 2310, -2793, -2605, 1595, -63, -2508, 86, 106, 994, 371, 179, 465, 648, 175
103114333, -3022, 9341, -12420, 4217, 2310, -2793, -2605, 1595, -63, -2508, 86, 106, 994, 371, 179, 465, 648, 175
103115107, -3022, 9341, -12420, 4217, 2310, -2793, -2605, 1595, -63, -2508, 86, 106, 994, 371, 179, 465, 648, 175
103115923, -3022, 9341, -12420, 4217, 2310, -2793, -2605, 1595, -63, -2508, 86, 106, 994, 371, 179, 465, 648, 175
103116731, -3022, 9341, -12420, 4217, 2310, -2793, -2605, 1595, -63, -2508, 86, 106, 994, 371, 179, 465, 648, 175
103121681, -3022, 9341, -12420, 4217, 2310, -2793, -2605, 1595, -63, -2508, 86, 106, 994, 371, 179, 465, 648, 175
103122483, -3022, 9341, -12420, 4217, 2310, -2793, -2605, 1595, -63, -2508, 86, 106, 994, 371, 179, 465, 648, 175
103123311, -3022, 9341, -12420, 4217, 2310, -2793, -2605, 1595, -63, -2508, 86, 106, 994, 371, 179, 465, 648, 175
103124106, -3022, 9341, -12420, 4217, 2310, -2793, -2605, 1595, -63, -2508, 86, 106, 994, 371, 179, 465, 648, 175
103129213, -3022, 9341, -12420, 4217, 2310, -2793, -2605, 1595, -63, -2508, 86, 106, 994, 371, 179, 465, 648, 175
103130134, -3286, 9541, -11988, 4785, 2788, -3063, -2883, 3670, -39, -2438, 86, 106, 994, 371, 179, 465, 648, 175
103130996, -3286, 9541, -11988, 4785, 2788, -3063, -2883, 3670, -39, -2438, 100, 121, 1006, 314, 217, 695, 886, 217
103131803, -3286, 9541, -11988, 4785, 2788, -3063, -2883, 3670, -39, -2438, 100, 121, 1006, 314, 217, 695, 886, 217
103136795, -3286, 9541, -11988, 4785, 2788, -3063, -2883, 3670, -39, -2438, 100, 121, 1006, 314, 217, 695, 886, 217
103137636, -3286, 9541, -11988, 4785, 2788, -3063, -2883, 3670, -39, -2438, 100, 121, 1006, 314, 217, 695, 886, 217
103138407, -3286, 9541, -11988, 4785, 2788, -3063, -2883, 3670, -39, -2438, 100, 121, 1006, 314, 217, 695, 886, 217
103139229, -3286, 9541, -11988, 4785, 2788, -3063, -2883, 3670, -39, -2438, 100, 121, 1006, 314, 217, 695, 886, 217
103144239, -3286, 9541, -11988, 4785, 2788, -3063, -2883, 3670, -39, -2438, 100, 121, 1006, 314, 217, 695, 886, 217
103145044, -3286, 9541, -11988, 4785, 2788, -3063, -2883, 3670, -39, -2438, 100, 121, 1006, 314, 217, 695, 886, 217
103145833, -3286, 9541, -11988, 4785, 2788, -3063, -2883, 3670, -39, -2438, 100, 121, 1006, 314, 217, 695, 886, 217
103146656, -3286, 9541, -11988, 4785, 2788, -3063, -2883, 3670, -39, -2438, 100, 121, 1006, 314, 217, 695, 886, 217
103151742, -3286, 9541, -11988, 4785, 2788, -3063, -2883, 3670, -39, -2438, 100, 121, 1006, 314, 217, 695, 886, 217
103152685, -3720, 9590, -11449, 5619, 2746, -2566, -4317, 5663, 254, -2187, 100, 121, 1006, 314, 217, 695, 886, 217
103153510, -3720, 9590, -11449, 5619, 2746, -2566, -4317, 5663, 254, -2187, 112, 132, 1012, 275, 273, 811, 933, 251
103154334, -3720, 9590, -11449, 5619, 2746, -2566, -4317, 5663, 254, -2187, 112, 132, 1012, 275, 273, 811, 933, 251
103159323, -3720, 9590, -11449, 5619, 2746, -2566, -4317, 5663, 254, -2187, 112, 132, 1012, 275, 273, 811, 933, 251
103160132, -3720, 9590, -11449, 5619, 2746, -2566, -4317, 5663, 254, -2187, 112, 132, 1012, 275, 273, 811, 933, 251
103160997, -3720, 9590, -11449, 5619, 2746, -2566, -4317, 5663, 254, -2187, 112, 132, 1012, 275, 273, 811, 933, 251
103161756, -3720, 9590, -11449, 5619, 2746, -2566, -4317, 5663, 254, -2187, 112, 132, 1012, 275, 273, 811, 933, 251
103166746, -3720, 9590, -11449, 5619, 2746, -2566, -4317, 5663, 254, -2187, 112, 132, 1012, 275, 273, 811, 933, 251
103167556, -3720, 9590, -11449, 5619, 2746, -2566, -4317, 5663, 254, -2187, 112, 132, 1012, 275, 273, 811, 933, 251
103168359, -3720, 9590, -11449, 5619, 2746, -2566, -4317, 5663, 254, -2187, 112, 132, 1012, 275, 273, 811, 933, 251
103169157, -3720, 9590, -11449, 5619, 2746, -2566, -4317, 5663, 254, -2187, 112, 132, 1012, 275, 273, 811, 933, 251
103174271, -3720, 9590, -11449, 5619, 2746, -2566, -4317, 5663, 254, -2187, 112, 132, 1012, 275, 273, 811, 933, 251
103175159, -4566, 9364, -10938, 6345, 2304, -2496, -5102, 6895, -1148, -89, 112, 132, 1012, 275, 273, 811, 933, 251
103176009, -4566, 9364, -10938, 6345, 2304, -2496, -5102, 6895, -1148, -89, 122, 137, 884, 202, 284, 858, 984, 262
103176782, -4566, 9364, -10938, 6345, 2304, -2496, -5102, 6895, -1148, -89, 112, 132, 1012, 275, 273, 811, 933, 251
103181846, -4566, 9364, -10938, 6345, 2304, -2496, -5102, 6895, -1148, -89, 122, 137, 884, 202, 284, 858, 984, 262
103182630, -4566, 9364, -10938, 6345, 2304, -2496, -5102, 6895, -1148, -89, 122, 137, 884, 202, 284, 858, 984, 262
103183457, -4566, 9364, -10938, 6345, 2304, -2496, -5102, 6895, -1148, -89, 122, 137, 884, 202, 284, 858, 984, 262
103184232, -4566, 9364, -10938, 6345, 2304, -2496, -5102, 6895, -1148, -89, 122, 137, 884, 202, 284, 858, 984, 262
103189201, -4566, 9364, -10938, 6345, 2304, -2496, -5102, 6895, -1148, -89, 122, 137, 884, 202, 284, 858, 984, 262
103190009, -4566, 9364, -10938, 6345, 2304, -2496, -5102, 6895, -1148, -89, 122, 137, 884, 202, 284, 858, 984, 262
103190848, -4566, 9364, -10938, 6345, 2304, -2496, -5102, 6895, -1148, -89, 122, 137, 884, 202, 284, 858, 984, 262
103191631, -4566, 9364, -10938, 6345, 2304, -2496, -5102, 6895, -1148, -89, 122, 137, 884, 202, 284, 858, 984, 262
103196796, -4566, 9364, -10938, 6345, 2304, -2496, -5102, 6895, -1148, -89, 122, 137, 884, 202, 284, 858, 984, 262
103197709, -5829, 8913, -10644, 6460, 253, -1383, -4243, 5835, -3844, 3313, 122, 137, 884, 202, 284, 858, 984, 262
103198553, -5829, 8913, -10644, 6460, 253, -1383, -4243, 5835, -3844, 3313, 121, 130, 731, 188, 343, 864, 978, 264
103199338, -5829, 8913, -10644, 6460, 253, -1383, -4243, 5835, -3844, 3313, 121, 130, 731, 188, 343, 864, 978, 264
103204295, -5829, 8913, -10644, 6460, 253, -1383, -4243, 5835, -3844, 3313, 121, 130, 731, 188, 343, 864, 978, 264
103205082, -5829, 8913, -10644, 6460, 253, -1383, -4243, 5835, -3844, 3313, 121, 130, 731, 188, 343, 864, 978, 264
103205908, -5829, 8913, -10644, 6460, 253, -1383, -4243, 5835, -3844, 3313, 121, 130, 731, 188, 343, 864, 978, 264
103206709, -5829, 8913, -10644, 6460, 253, -1383, -4243, 5835, -3844, 3313, 121, 130, 731, 188, 343, 864, 978, 264
103211757, -5829, 8913, -10644, 6460, 253, -1383, -4243, 5835, -3844, 3313, 121, 130, 731, 188, 343, 864, 978, 264
103212534, -5829, 8913, -10644, 6460, 253, -1383, -4243, 5835, -3844, 3313, 121, 130, 731, 188, 343, 864, 978, 264
103213347, -5829, 8913, -10644, 6460, 253, -1383, -4243, 5835, -3844, 3313, 121, 130, 731, 188, 343, 864, 978, 264
103214156, -5829, 8913, -10644, 6460, 253, -1383, -4243, 5835, -3844, 3313, 121, 130, 731, 188, 343, 864, 978, 264
103219233, -5829, 8913, -10644, 6460, 253, -1383, -4243, 5835, -3844, 3313, 121, 130, 731, 188, 343, 864, 978, 264
103220212, -6845, 8572, -10548, 6071, 4082, 1336, -1715, 2570, -4327, 3973, 121, 130, 731, 188, 343, 864, 978, 264
103220982, -6845, 8572, -10548, 6071, 4082, 1336, -1715, 2570, -4327, 3973, 105, 136, 731, 593, 684, 742, 770, 216
103221847, -6845, 8572, -10548, 6071, 4082, 1336, -1715, 2570, -4327, 3973, 105, 136, 731, 593, 684, 742, 770, 216
103226807, -6845, 8572, -10548, 6071, 4082, 1336, -1715, 2570, -4327, 3973, 105, 136, 731, 593, 684, 742, 770, 216
103227657, -6845, 8572, -10548, 6071, 4082, 1336, -1715, 2570, -4327, 3973, 105, 136, 731, 593, 684, 742, 770, 216
103228434, -6845, 8572, -10548, 6071, 4082, 1336, -1715, 2570, -4327, 3973, 105, 136, 731, 593, 684, 742, 770, 216
103229255, -6845, 8572, -10548, 6071, 4082, 1336, -1715, 2570, -4327, 3973, 105, 136, 731, 593, 684, 742, 770, 216
103234205, -6845, 8572, -10548, 6071, 4082, 1336, -1715, 2570, -4327, 3973, 105, 136, 731, 593, 684, 742, 770, 216
103235046, -6845, 8572, -10548, 6071, 4082, 1336, -1715, 2570, -4327, 3973, 105, 136, 731, 593, 684, 742, 770, 216
103235831, -6845, 8572, -10548, 6071, 4082, 1336, -1715, 2570, -4327, 3973, 105, 136, 731, 593, 684, 742, 770, 216
103236698, -6845, 8572, -10548, 6071, 4082, 1336, -1715, 2570, -4327, 3973, 105, 136, 731, 593, 684, 742, 770, 216
103241733, -6845, 8572, -10548, 6071, 4082, 1336, -1715, 2570, -4327, 3973, 105, 136, 731, 593, 684, 742, 770, 216
103242687, -6751, 8265, -11061, 5676, 3509, 125, -1134, -2046, 1015, 3336, 105, 136, 731, 593, 684, 742, 770, 216
103243465, -6751, 8265, -11061, 5676, 3509, 125, -1134, -2046, 1015, 3336, 95, 133, 1084, 912, 920, 545, 489, 175
103244320, -6751, 8265, -11061, 5676, 3509, 125, -1134, -2046, 1015, 3336, 95, 133, 1084, 912, 920, 545, 489, 175
103249291, -6751, 8265, -11061, 5676, 3509, 125, -1134, -2046, 1015, 3336, 95, 133, 1084, 912, 920, 545, 489, 175
103250114, -6751, 8265, -11061, 5676, 3509, 125, -1134, -2046, 1015, 3336, 95, 133, 1084, 912, 920, 545, 489, 175
103250891, -6751, 8265, -11061, 5676, 3509, 125, -1134, -2046, 1015, 3336, 95, 133, 1084, 912, 920, 545, 489, 175
103251767, -6751, 8265, -11061, 5676, 3509, 125, -1134, -2046, 1015, 3336, 95, 133, 1084, 912, 920, 545, 489, 175
103256688, -6751, 8265, -11061, 5676, 3509, 125, -1134, -2046, 1015, 3336, 95, 133, 1084, 912, 920, 545, 489, 175
103257507, -6751, 8265, -11061, 5676, 3509, 125, -1134, -2046, 1015, 3336, 95, 133, 1084, 912, 920, 545, 489, 175
103258320, -6751, 8265, -11061, 5676, 3509, 125, -1134, -2046, 1015, 3336, 95, 133, 1084, 912, 920, 545, 489, 175
103259153, -6751, 8265, -11061, 5676, 3509, 125, -1134, -2046, 1015, 3336, 95, 133, 1084, 912, 920, 545, 489, 175
103264256, -6751, 8265, -11061, 5676, 3509, 125, -1134, -2046, 1015, 3336, 95, 133, 1084, 912, 920, 545, 489, 175
103265197, -6371, 7945, -11658, 5369, 2874, -1079, -1178, -2652, 2571, 2871, 95, 133, 1084, 912, 920, 545, 489, 175
103266008, -6371, 7945, -11658, 5369, 2874, -1079, -1178, -2652, 2571, 2871, 115, 208, 1093, 947, 920, 352, 397, 128
103266809, -6371, 7945, -11658, 5369, 2874, -1079, -1178, -2652, 2571, 2871, 115, 208, 1093, 947, 920, 352, 397, 128
103271834, -6371, 7945, -11658, 5369, 2874, -1079, -1178, -2652, 2571, 2871, 115, 208, 1093, 947, 920, 352, 397, 128
103272629, -6371, 7945, -11658, 5369, 2874, -1079, -1178, -2652, 2571, 2871, 115, 208, 1093, 947, 920, 352, 397, 128
103273460, -6371, 7945, -11658, 5369, 2874, -1079, -1178, -2652, 2571, 2871, 115, 208, 1093, 947, 920, 352, 397, 128
103274270, -6371, 7945, -11658, 5369, 2874, -1079, -1178, -2652, 2571, 2871, 115, 208, 1093, 947, 920, 352, 397, 128
103279206, -6371, 7945, -11658, 5369, 2874, -1079, -1178, -2652, 2571, 2871, 115, 208, 1093, 947, 920, 352, 397, 128
103280071, -6371, 7945, -11658, 5369, 2874, -1079, -1178, -2652, 2571, 2871, 115, 208, 1093, 947, 920, 352, 397, 128
103280857, -6371, 7945, -11658, 5369, 2874, -1079, -1178, -2652, 2571, 2871, 115, 208, 1093, 947, 920, 352, 397, 128
103281672, -6371, 7945, -11658, 5369, 2874, -1079, -1178, -2652, 2571, 2871, 115, 208, 1093, 947, 920, 352, 397, 128
103286748, -6371, 7945, -11658, 5369, 2874, -1079, -1178, -2652, 2571, 2871, 115, 208, 1093, 947, 920, 352, 397, 128
103287686, -5946, 7453, -12165, 5437, 1214, -631, -2015, -557, 3739, 2554, 115, 208, 1093, 947, 920, 352, 397, 128
103288486, -5946, 7453, -12165, 5437, 1214, -631, -2015, -557, 3739, 2554, 107, 209, 1115, 959, 933, 220, 251, 108
103289329, -5946, 7453, -12165, 5437, 1214, -631, -2015, -557, 3739, 2554, 107, 209, 1115, 959, 933, 220, 251, 108
103294310, -5946, 7453, -12165, 5437, 1214, -631, -2015, -557, 3739, 2554, 107, 209, 1115, 959, 933, 220, 251, 108
103295127, -5946, 7453, -12165, 5437, 1214, -631, -2015, -557, 3739, 2554, 107, 209, 1115, 959, 933, 220, 251, 108
103295931, -5946, 7453, -12165, 5437, 1214, -631, -2015, -557, 3739, 2554, 107, 209, 1115, 959, 933, 220, 251, 108
103296778, -5946, 7453, -12165, 5437, 1214, -631, -2015, -557, 3739, 2554, 107, 209, 1115, 959, 933, 220, 251, 108
103301707, -5946, 7453, -12165, 5437, 1214, -631, -2015, -557, 3739, 2554, 107, 209, 1115, 959, 933, 220, 251, 108
103302509, -5946, 7453, -12165, 5437, 1214, -631, -2015, -557, 3739, 2554, 107, 209, 1115, 959, 933, 220, 251, 108
103303313, -5946, 7453, -12165, 5437, 1214, -631, -2015, -557, 3739, 2554, 107, 209, 1115, 959, 933, 220, 251, 108
103304171, -5946, 7453, -12165, 5437, 1214, -631, -2015, -557, 3739, 2554, 107, 209, 1115, 959, 933, 220, 251, 108
103309207, -5946, 7453, -12165, 5437, 1214, -631, -2015, -557, 3739, 2554, 107, 209, 1115, 959, 933, 220, 251, 108
103310175, -5562, 7154, -12636, 5163, 513, -448, -2458, -2154, 2295, 2355, 107, 209, 1115, 959, 933, 220, 251, 108
103310957, -5562, 7154, -12636, 5163, 513, -448, -2458, -2154, 2295, 2355, 103, 221, 1063, 962, 914, 193, 186, 87
103311808, -5562, 7154, -12636, 5163, 513, -448, -2458, -2154, 2295, 2355, 103, 221, 1063, 962, 914, 193, 186, 87
103316781, -5562, 7154, -12636, 5163, 513, -448, -2458, -2154, 2295, 2355, 103, 221, 1063, 962, 914, 193, 186, 87
103317659, -5562, 7154, -12636, 5163, 513, -448, -2458, -2154, 2295, 2355, 103, 221, 1063, 962, 914, 193, 186, 87
103318409, -5562, 7154, -12636, 5163, 513, -448, -2458, -2154, 2295, 2355, 103, 221, 1063, 962, 914, 193, 186, 87
103319273, -5562, 7154, -12636, 5163, 513, -448, -2458, -2154, 2295, 2355, 103, 221, 1063, 962, 914, 193, 186, 87
103324254, -5562, 7154, -12636, 5163, 513, -448, -2458, -2154, 2295, 2355, 103, 221, 1063, 962, 914, 193, 186, 87
103325068, -5562, 7154, -12636, 5163, 513, -448, -2458, -2154, 2295, 2355, 103, 221, 1063, 962, 914, 193, 186, 87
103325856, -5562, 7154, -12636, 5163, 513, -448, -2458, -2154, 2295, 2355, 103, 221, 1063, 962, 914, 193, 186, 87
103326708, -5562, 7154, -12636, 5163, 513, -448, -2458, -2154, 2295, 2355, 103, 221, 1063, 962, 914, 193, 186, 87
103331730, -5562, 7154, -12636, 5163, 513, -448, -2458, -2154, 2295, 2355, 103, 221, 1063, 962, 914, 193, 186, 87
103332710, -5193, 7242, -12884, 4799, 869, -352, -2812, -2827, 862, 366, 103, 221, 1063, 962, 914, 193, 186, 87
103333486, -5193, 7242, -12884, 4799, 869, -352, -2812, -2827, 862, 366, 114, 250, 907, 778, 684, 157, 160, 81
103334354, -5193, 7242, -12884, 4799, 869, -352, -2812, -2827, 862, 366, 114, 250, 907, 778, 684, 157, 160, 81
103339308, -5193, 7242, -12884, 4799, 869, -352, -2812, -2827, 862, 366, 114, 250, 907, 778, 684, 157, 160, 81
103340130, -5193, 7242, -12884, 4799, 869, -352, -2812, -2827, 862, 366, 114, 250, 907, 778, 684, 157, 160, 81
103340954, -5193, 7242, -12884, 4799, 869, -352, -2812, -2827, 862, 366, 114, 250, 907, 778, 684, 157, 160, 81
103341797, -5193, 7242, -12884, 4799, 869, -352, -2812, -2827, 862, 366, 114, 250, 907, 778, 684, 157, 160, 81
103346710, -5193, 7242, -12884, 4799, 869, -352, -2812, -2827, 862, 366, 114, 250, 907, 778, 684, 157, 160, 81
103347553, -5193, 7242, -12884, 4799, 869, -352, -2812, -2827, 862, 366, 114, 250, 907, 778, 684, 157, 160, 81
103348349, -5193, 7242, -12884, 4799, 869, -352, -2812, -2827, 862, 366, 114, 250, 907, 778, 684, 157, 160, 81
103349156, -5193, 7242, -12884, 4799, 869, -352, -2812, -2827, 862, 366, 114, 250, 907, 778, 684, 157, 160, 81
103354274, -5193, 7242, -12884, 4799, 869, -352, -2812, -2827, 862, 366, 114, 250, 907, 778, 684, 157, 160, 81
103355160, -4727, 7669, -12954, 4412, 612, -705, -2774, -3537, 385, -1703, 114, 250, 907, 778, 684, 157, 160, 81
103355985, -4727, 7669, -12954, 4412, 612, -705, -2774, -3537, 385, -1703, 131, 247, 421, 846, 264, 105, 116, 75
103356782, -4727, 7669, -12954, 4412, 612, -705, -2774, -3537, 385, -1703, 131, 247, 421, 846, 264, 105, 116, 75
103361783, -4727, 7669, -12954, 4412, 612, -705, -2774, -3537, 385, -1703, 131, 247, 421, 846, 264, 105, 116, 75
103362641, -4727, 7669, -12954, 4412, 612, -705, -2774, -3537, 385, -1703, 131, 247, 421, 846, 264, 105, 116, 75
103363434, -4727, 7669, -12954, 4412, 612, -705, -2774, -3537, 385, -1703, 131, 247, 421, 846, 264, 105, 116, 75
103364273, -4727, 7669, -12954, 4412, 612, -705, -2774, -3537, 385, -1703, 131, 247, 421, 846, 264, 105, 116, 75
103369206, -4727, 7669, -12954, 4412, 612, -705, -2774, -3537, 385, -1703, 131, 247, 421, 846, 264, 105, 116, 75
103370047, -4727, 7669, -12954, 4412, 612, -705, -2774, -3537, 385, -1703, 131, 247, 421, 846, 264, 105, 116, 75
103370829, -4727, 7669, -12954, 4412, 612, -705, -2774, -3537, 385, -1703, 131, 247, 421, 846, 264, 105, 116, 75
103371643, -4727, 7669, -12954, 4412, 612, -705, -2774, -3537, 385, -1703, 131, 247, 421, 846, 264, 105, 116, 75
103376707, -4727, 7669, -12954, 4412, 612, -705, -2774, -3537, 385, -1703, 131, 247, 421, 846, 264, 105, 116, 75
103377658, -4315, 8266, -12820, 4141, 495, -998, -2321, -2939, -107, -3112, 131, 247, 421, 846, 264, 105, 116, 75
103378462, -4315, 8266, -12820, 4141, 495, -998, -2321, -2939, -107, -3112, 106, 185, 459, 1072, 206, 166, 113, 73
103379247, -4315, 8266, -12820, 4141, 495, -998, -2321, -2939, -107, -3112, 106, 185, 459, 1072, 206, 166, 113, 73
103384262, -4315, 8266, -12820, 4141, 495, -998, -2321, -2939, -107, -3112, 106, 185, 459, 1072, 206, 166, 113, 73
103385056, -4315, 8266, -12820, 4141, 495, -998, -2321, -2939, -107, -3112, 106, 185, 459, 1072, 206, 166, 113, 73
103385881, -4315, 8266, -12820, 4141, 495, -998, -2321, -2939, -107, -3112, 106, 185, 459, 1072, 206, 166, 113, 73
103386681, -4315, 8266, -12820, 4141, 495, -998, -2321, -2939, -107, -3112, 106, 185, 459, 1072, 206, 166, 113, 73
103391724, -4315, 8266, -12820, 4141, 495, -998, -2321, -2939, -107, -3112, 106, 185, 459, 1072, 206, 166, 113, 73
103392524, -4315, 8266, -12820, 4141, 495, -998, -2321, -2939, -107, -3112, 106, 185, 459, 1072, 206, 166, 113, 73
103393330, -4315, 8266, -12820, 4141, 495, -998, -2321, -2939, -107, -3112, 106, 185, 459, 1072, 206, 166, 113, 73
103394131, -4315, 8266, -12820, 4141, 495, -998, -2321, -2939, -107, -3112, 106, 185, 459, 1072, 206, 166, 113, 73
103399224, -4315, 8266, -12820, 4141, 495, -998, -2321, -2939, -107, -3112, 106, 185, 459, 1072, 206, 166, 113, 73
103400173, -3965, 8640, -12667, 4198, 2428, -2938, -1612, -1072, 939, -2648, 106, 185, 459, 1072, 206, 166, 113, 73
103400955, -3965, 8640, -12667, 4198, 2428, -2938, -1612, -1072, 939, -2648, 136, 224, 436, 1309, 159, 361, 412, 202
103401780, -3965, 8640, -12667, 4198, 2428, -2938, -1612, -1072, 939, -2648, 136, 224, 436, 1309, 159, 361, 412, 202
103406788, -3965, 8640, -12667, 4198, 2428, -2938, -1612, -1072, 939, -2648, 136, 224, 436, 1309, 159, 361, 412, 202
103407671, -3965, 8640, -12667, 4198, 2428, -2938, -1612, -1072, 939, -2648, 136, 224, 436, 1309, 159, 361, 412, 202
103408456, -3965, 8640, -12667, 4198, 2428, -2938, -1612, -1072, 939, -2648, 136, 224, 436, 1309, 159, 361, 412, 202
103409284, -3965, 8640, -12667, 4198, 2428, -2938, -1612, -1072, 939, -2648, 136, 224, 436, 1309, 159, 361, 412, 202
103414211, -3965, 8640, -12667, 4198, 2428, -2938, -1612, -1072, 939, -2648, 136, 224, 436, 1309, 159, 361, 412, 202
103415003, -3965, 8640, -12667, 4198, 2428, -2938, -1612, -1072, 939, -2648, 136, 224, 436, 1309, 159, 361, 412, 202
103415806, -3965, 8640, -12667, 4198, 2428, -2938, -1612, -1072, 939, -2648, 136, 224, 436, 1309, 159, 361, 412, 202
103416631, -3965, 8640, -12667, 4198, 2428, -2938, -1612, -1072, 939, -2648, 136, 224, 436, 1309, 159, 361, 412, 202
103421708, -3965, 8640, -12667, 4198, 2428, -2938, -1612, -1072, 939, -2648, 136, 224, 436, 1309, 159, 361, 412, 202
103422687, -3682, 8920, -12478, 4428, 2626, -2682, -1586, 51, 1245, -2486, 136, 224, 436, 1309, 159, 361, 412, 202
103423483, -3682, 8920, -12478, 4428, 2626, -2682, -1586, 51, 1245, -2486, 149, 231, 422, 1392, 205, 600, 660, 320
103424322, -3682, 8920, -12478, 4428, 2626, -2682, -1586, 51, 1245, -2486, 149, 231, 422, 1392, 205, 600, 660, 320
103429281, -3682, 8920, -12478, 4428, 2626, -2682, -1586, 51, 1245, -2486, 149, 231, 422, 1392, 205, 600, 660, 320
103430136, -3682, 8920, -12478, 4428, 2626, -2682, -1586, 51, 1245, -2486, 149, 231, 422, 1392, 205, 600, 660, 320
103430906, -3682, 8920, -12478, 4428, 2626, -2682, -1586, 51, 1245, -2486, 149, 231, 422, 1392, 205, 600, 660, 320
103431772, -3682, 8920, -12478, 4428, 2626, -2682, -1586, 51, 1245, -2486, 149, 231, 422, 1392, 205, 600, 660, 320
103436681, -3682, 8920, -12478, 4428, 2626, -2682, -1586, 51, 1245, -2486, 149, 231, 422, 1392, 205, 600, 660, 320
103437512, -3682, 8920, -12478, 4428, 2626, -2682, -1586, 51, 1245, -2486, 149, 231, 422, 1392, 205, 600, 660, 320
103438311, -3682, 8920, -12478, 4428, 2626, -2682, -1586, 51, 1245, -2486, 149, 231, 422, 1392, 205, 600, 660, 320
103439171, -3682, 8920, -12478, 4428, 2626, -2682, -1586, 51, 1245, -2486, 149, 231, 422, 1392, 205, 600, 660, 320
103444270, -3682, 8920, -12478, 4428, 2626, -2682, -1586, 51, 1245, -2486, 149, 231, 422, 1392, 205, 600, 660, 320
103445210, -3527, 9125, -12134, 5050, 2268, -3147, -2430, 2442, 1813, -2945, 149, 231, 422, 1392, 205, 600, 660, 320
103446008, -3527, 9125, -12134, 5050, 2268, -3147, -2430, 2442, 1813, -2945, 162, 198, 401, 1409, 282, 925, 919, 489
103446808, -3527, 9125, -12134, 5050, 2268, -3147, -2430, 2442, 1813, -2945, 162, 198, 401, 1409, 282, 925, 919, 489
103451825, -3527, 9125, -12134, 5050, 2268, -3147, -2430, 2442, 1813, -2945, 162, 198, 401, 1409, 282, 925, 919, 489
103452632, -3527, 9125, -12134, 5050, 2268, -3147, -2430, 2442, 1813, -2945, 162, 198, 401, 1409, 282, 925, 919, 489
103453500, -3527, 9125, -12134, 5050, 2268, -3147, -2430, 2442, 1813, -2945, 162, 198, 401, 1409, 282, 925, 919, 489
103454257, -3527, 9125, -12134, 5050, 2268, -3147, -2430, 2442, 1813, -2945, 162, 198, 401, 1409, 282, 925, 919, 489
103459216, -3527, 9125, -12134, 5050, 2268, -3147, -2430, 2442, 1813, -2945, 162, 198, 401, 1409, 282, 925, 919, 489
103460055, -3527, 9125, -12134, 5050, 2268, -3147, -2430, 2442, 1813, -2945, 162, 198, 401, 1409, 282, 925, 919, 489
103460858, -3527, 9125, -12134, 5050, 2268, -3147, -2430, 2442, 1813, -2945, 162, 198, 401, 1409, 282, 925, 919, 489
103461683, -3527, 9125, -12134, 5050, 2268, -3147, -2430, 2442, 1813, -2945, 162, 198, 401, 1409, 282, 925, 919, 489
103466731, -3527, 9125, -12134, 5050, 2268, -3147, -2430, 2442, 1813, -2945, 162, 198, 401, 1409, 282, 925, 919, 489
103467657, -3731, 9113, -11688, 5903, 1578, -2769, -4158, 4961, 1304, -2020, 162, 198, 401, 1409, 282, 925, 919, 489
103468486, -3731, 9113, -11688, 5903, 1578, -2769, -4158, 4961, 1304, -2020, 168, 199, 436, 1223, 327, 1019, 984, 540
103469324, -3731, 9113, -11688, 5903, 1578, -2769, -4158, 4961, 1304, -2020, 168, 199, 436, 1223, 327, 1019, 984, 540
103474307, -3731, 9113, -11688, 5903, 1578, -2769, -4158, 4961, 1304, -2020, 168, 199, 436, 1223, 327, 1019, 984, 540
103475136, -3731, 9113, -11688, 5903, 1578, -2769, -4158, 4961, 1304, -2020, 168, 199, 436, 1223, 327, 1019, 984, 540
103475931, -3731, 9113, -11688, 5903, 1578, -2769, -4158, 4961, 1304, -2020, 168, 199, 436, 1223, 327, 1019, 984, 540
103476783, -3731, 9113, -11688, 5903, 1578, -2769, -4158, 4961, 1304, -2020, 168, 199, 436, 1223, 327, 1019, 984, 540
103481681, -3731, 9113, -11688, 5903, 1578, -2769, -4158, 4961, 1304, -2020, 168, 199, 436, 1223, 327, 1019, 984, 540
103482536, -3731, 9113, -11688, 5903, 1578, -2769, -4158, 4961, 1304, -2020, 168, 199, 436, 1223, 327, 1019, 984, 540
103483312, -3731, 9113, -11688, 5903, 1578, -2769, -4158, 4961, 1304, -2020, 168, 199, 436, 1223, 327, 1019, 984, 540
103484171, -3731, 9113, -11688, 5903, 1578, -2769, -4158, 4961, 1304, -2020, 168, 199, 436, 1223, 327, 1019, 984, 540
103489207, -3731, 9113, -11688, 5903, 1578, -2769, -4158, 4961, 1304, -2020, 168, 199, 436, 1223, 327, 1019, 984, 540
103490141, -4395, 8980, -11229, 6510, 150, -3024, -4818, 5594, -1082, -333, 168, 199, 436, 1223, 327, 1019, 984, 540
103490952, -4395, 8980, -11229, 6510, 150, -3024, -4818, 5594, -1082, -333, 168, 199, 365, 1009, 336, 1030, 985, 544
103492051, -4395, 8980, -11229, 6510, 150, -3024, -4818, 5594, -1082, -333, 168, 199, 365, 1009, 336, 1030, 985, 544
103496810, -4395, 8980, -11229, 6510, 150, -3024, -4818, 5594, -1082, -333, 168, 199, 365, 1009, 336, 1030, 985, 544
103497642, -4395, 8980, -11229, 6510, 150, -3024, -4818, 5594, -1082, -333, 168, 199, 365, 1009, 336, 1030, 985, 544
103498454, -4395, 8980, -11229, 6510, 150, -3024, -4818, 5594, -1082, -333, 168, 199, 365, 1009, 336, 1030, 985, 544
103499274, -4395, 8980, -11229, 6510, 150, -3024, -4818, 5594, -1082, -333, 168, 199, 365, 1009, 336, 1030, 985, 544
103504249, -4395, 8980, -11229, 6510, 150, -3024, -4818, 5594, -1082, -333, 168, 199, 365, 1009, 336, 1030, 985, 544
103504988, -4395, 8980, -11229, 6510, 150, -3024, -4818, 5594, -1082, -333, 168, 199, 365, 1009, 336, 1030, 985, 544
103505801, -4395, 8980, -11229, 6510, 150, -3024, -4818, 5594, -1082, -333, 168, 199, 365, 1009, 336, 1030, 985, 544
103506669, -4395, 8980, -11229, 6510, 150, -3024, -4818, 5594, -1082, -333, 168, 199, 365, 1009, 336, 1030, 985, 544
103511742, -4395, 8980, -11229, 6510, 150, -3024, -4818, 5594, -1082, -333, 168, 199, 365, 1009, 336, 1030, 985, 544
103512696, -5428, 8868, -10842, 6541, -937, -1241, -2606, 4566, -4144, 1400, 168, 199, 365, 1009, 336, 1030, 985, 544
103513528, -5428, 8868, -10842, 6541, -937, -1241, -2606, 4566, -4144, 1400, 144, 160, 572, 687, 482, 993, 915, 511
103514313, -5428, 8868, -10842, 6541, -937, -1241, -2606, 4566, -4144, 1400, 144, 160, 572, 687, 482, 993, 915, 511
103519286, -5428, 8868, -10842, 6541, -937, -1241, -2606, 4566, -4144, 1400, 144, 160, 572, 687, 482, 993, 915, 511
103520140, -5428, 8868, -10842, 6541, -937, -1241, -2606, 4566, -4144, 1400, 144, 160, 572, 687, 482, 993, 915, 511
103520978, -5428, 8868, -10842, 6541, -937, -1241, -2606, 4566, -4144, 1400, 144, 160, 572, 687, 482, 993, 915, 511
103521798, -5428, 8868, -10842, 6541, -937, -1241, -2606, 4566, -4144, 1400, 144, 160, 572, 687, 482, 993, 915, 511
103526708, -5428, 8868, -10842, 6541, -937, -1241, -2606, 4566, -4144, 1400, 144, 160, 572, 687, 482, 993, 915, 511
103527553, -5428, 8868, -10842, 6541, -937, -1241, -2606, 4566, -4144, 1400, 144, 160, 572, 687, 482, 993, 915, 511
103528351, -5428, 8868, -10842, 6541, -937, -1241, -2606, 4566, -4144, 1400, 144, 160, 572, 687, 482, 993, 915, 511
103529197, -5428, 8868, -10842, 6541, -937, -1241, -2606, 4566, -4144, 1400, 144, 160, 572, 687, 482, 993, 915, 511
103534208, -5428, 8868, -10842, 6541, -937, -1241, -2606, 4566, -4144, 1400, 144, 160, 572, 687, 482, 993, 915, 511
103535161, -5997, 8649, -10911, 6214, 4966, 801, -841, 765, -2485, 2898, 144, 160, 572, 687, 482, 993, 915, 511
103535983, -5997, 8649, -10911, 6214, 4966, 801, -841, 765, -2485, 2898, 137, 155, 816, 839, 879, 874, 759, 448
103536792, -5997, 8649, -10911, 6214, 4966, 801, -841, 765, -2485, 2898, 137, 155, 816, 839, 879, 874, 759, 448
103541779, -5997, 8649, -10911, 6214, 4966, 801, -841, 765, -2485, 2898, 137, 155, 816, 839, 879, 874, 759, 448
103542663, -5997, 8649, -10911, 6214, 4966, 801, -841, 765, -2485, 2898, 137, 155, 816, 839, 879, 874, 759, 448
103543415, -5997, 8649, -10911, 6214, 4966, 801, -841, 765, -2485, 2898, 137, 155, 816, 839, 879, 874, 759, 448
103544230, -5997, 8649, -10911, 6214, 4966, 801, -841, 765, -2485, 2898, 137, 155, 816, 839, 879, 874, 759, 448
103549213, -5997, 8649, -10911, 6214, 4966, 801, -841, 765, -2485, 2898, 137, 155, 816, 839, 879, 874, 759, 448
103550008, -5997, 8649, -10911, 6214, 4966, 801, -841, 765, -2485, 2898, 137, 155, 816, 839, 879, 874, 759, 448
103550793, -5997, 8649, -10911, 6214, 4966, 801, -841, 765, -2485, 2898, 137, 155, 816, 839, 879, 874, 759, 448
103551633, -5997, 8649, -10911, 6214, 4966, 801, -841, 765, -2485, 2898, 137, 155, 816, 839, 879, 874, 759, 448
103556713, -5997, 8649, -10911, 6214, 4966, 801, -841, 765, -2485, 2898, 137, 155, 816, 839, 879, 874, 759, 448
103557632, -5557, 8383, -11413, 6085, 1692, -435, -1197, -2184, 2737, 2003, 137, 155, 816, 839, 879, 874, 759, 448
103558449, -5557, 8383, -11413, 6085, 1692, -435, -1197, -2184, 2737, 2003, 123, 179, 981, 1038, 1047, 535, 413, 259
103559257, -5557, 8383, -11413, 6085, 1692, -435, -1197, -2184, 2737, 2003, 123, 179, 981, 1038, 1047, 535, 413, 259
103564298, -5557, 8383, -11413, 6085, 1692, -435, -1197, -2184, 2737, 2003, 123, 179, 981, 1038, 1047, 535, 413, 259
103565082, -5557, 8383, -11413, 6085, 1692, -435, -1197, -2184, 2737, 2003, 123, 179, 981, 1038, 1047, 535, 413, 259
103565946, -5557, 8383, -11413, 6085, 1692, -435, -1197, -2184, 2737, 2003, 123, 179, 981, 1038, 1047, 535, 413, 259
103566707, -5557, 8383, -11413, 6085, 1692, -435, -1197, -2184, 2737, 2003, 123, 179, 981, 1038, 1047, 535, 413, 259
103571773, -5557, 8383, -11413, 6085, 1692, -435, -1197, -2184, 2737, 2003, 123, 179, 981, 1038, 1047, 535, 413, 259
103572537, -5557, 8383, -11413, 6085, 1692, -435, -1197, -2184, 2737, 2003, 123, 179, 981, 1038, 1047, 535, 413, 259
103573359, -5557, 8383, -11413, 6085, 1692, -435, -1197, -2184, 2737, 2003, 123, 179, 981, 1038, 1047, 535, 413, 259
103574162, -5557, 8383, -11413, 6085, 1692, -435, -1197, -2184, 2737, 2003, 123, 179, 981, 1038, 1047, 535, 413, 259
103579224, -5557, 8383, -11413, 6085, 1692, -435, -1197, -2184, 2737, 2003, 123, 179, 981, 1038, 1047, 535, 413, 259
103580180, -4810, 8289, -11950, 5814, 2187, -787, -1644, -4008, 3181, 1123, 123, 179, 981, 1038, 1047, 535, 413, 259
103580978, -4810, 8289, -11950, 5814, 2187, -787, -1644, -4008, 3181, 1123, 156, 214, 993, 1030, 1100, 338, 236, 139
103581833, -4810, 8289, -11950, 5814, 2187, -787, -1644, -4008, 3181, 1123, 156, 214, 993, 1030, 1100, 338, 236, 139
103586800, -4810, 8289, -11950, 5814, 2187, -787, -1644, -4008, 3181, 1123, 156, 214, 993, 1030, 1100, 338, 236, 139
103587662, -4810, 8289, -11950, 5814, 2187, -787, -1644, -4008, 3181, 1123, 156, 214, 993, 1030, 1100, 338, 236, 139
103588455, -4810, 8289, -11950, 5814, 2187, -787, -1644, -4008, 3181, 1123, 156, 214, 993, 1030, 1100, 338, 236, 139
103589289, -4810, 8289, -11950, 5814, 2187, -787, -1644, -4008, 3181, 1123, 156, 214, 993, 1030, 1100, 338, 236, 139
103594231, -4810, 8289, -11950, 5814, 2187, -787, -1644, -4008, 3181, 1123, 156, 214, 993, 1030, 1100, 338, 236, 139
103595049, -4810, 8289, -11950, 5814, 2187, -787, -1644, -4008, 3181, 1123, 156, 214, 993, 1030, 1100, 338, 236, 139
103595832, -4810, 8289, -11950, 5814, 2187, -787, -1644, -4008, 3181, 1123, 156, 214, 993, 1030, 1100, 338, 236, 139
103596643, -4810, 8289, -11950, 5814, 2187, -787, -1644, -4008, 3181, 1123, 156, 214, 993, 1030, 1100, 338, 236, 139
103601707, -4810, 8289, -11950, 5814, 2187, -787, -1644, -4008, 3181, 1123, 156, 214, 993, 1030, 1100, 338, 236, 139
103602685, -4094, 8052, -12458, 5625, 272, -1189, -2316, -3284, 3663, 1323, 156, 214, 993, 1030, 1100, 338, 236, 139
103603462, -4094, 8052, -12458, 5625, 272, -1189, -2316, -3284, 3663, 1323, 171, 232, 991, 1026, 1117, 273, 228, 118
103604273, -4094, 8052, -12458, 5625, 272, -1189, -2316, -3284, 3663, 1323, 171, 232, 991, 1026, 1117, 273, 228, 118
103609258, -4094, 8052, -12458, 5625, 272, -1189, -2316, -3284, 3663, 1323, 171, 232, 991, 1026, 1117, 273, 228, 118
103610092, -4094, 8052, -12458, 5625, 272, -1189, -2316, -3284, 3663, 1323, 171, 232, 991, 1026, 1117, 273, 228, 118
103610897, -4094, 8052, -12458, 5625, 272, -1189, -2316, -3284, 3663, 1323, 171, 232, 991, 1026, 1117, 273, 228, 118
103611722, -4094, 8052, -12458, 5625, 272, -1189, -2316, -3284, 3663, 1323, 171, 232, 991, 1026, 1117, 273, 228, 118
103616656, -4094, 8052, -12458, 5625, 272, -1189, -2316, -3284, 3663, 1323, 171, 232, 991, 1026, 1117, 273, 228, 118
103617464, -4094, 8052, -12458, 5625, 272, -1189, -2316, -3284, 3663, 1323, 171, 232, 991, 1026, 1117, 273, 228, 118
103618281, -4094, 8052, -12458, 5625, 272, -1189, -2316, -3284, 3663, 1323, 171, 232, 991, 1026, 1117, 273, 228, 118
103619106, -4094, 8052, -12458, 5625, 272, -1189, -2316, -3284, 3663, 1323, 171, 232, 991, 1026, 1117, 273, 228, 118
103624198, -4094, 8052, -12458, 5625, 272, -1189, -2316, -3284, 3663, 1323, 171, 232, 991, 1026, 1117, 273, 228, 118
103625134, -3526, 8036, -12865, 5092, 164, -1325, -2387, -4502, 1529, 867, 171, 232, 991, 1026, 1117, 273, 228, 118
103625929, -3526, 8036, -12865, 5092, 164, -1325, -2387, -4502, 1529, 867, 174, 225, 885, 1015, 1057, 215, 162, 111
103626754, -3526, 8036, -12865, 5092, 164, -1325, -2387, -4502, 1529, 867, 174, 225, 885, 1015, 1057, 215, 162, 111
103631833, -3526, 8036, -12865, 5092, 164, -1325, -2387, -4502, 1529, 867, 174, 225, 885, 1015, 1057, 215, 162, 111
103632631, -3526, 8036, -12865, 5092, 164, -1325, -2387, -4502, 1529, 867, 174, 225, 885, 1015, 1057, 215, 162, 111
103633457, -3526, 8036, -12865, 5092, 164, -1325, -2387, -4502, 1529, 867, 174, 225, 885, 1015, 1057, 215, 162, 111
103634255, -3526, 8036, -12865, 5092, 164, -1325, -2387, -4502, 1529, 867, 174, 225, 885, 1015, 1057, 215, 162, 111
103639216, -3526, 8036, -12865, 5092, 164, -1325, -2387, -4502, 1529, 867, 174, 225, 885, 1015, 1057, 215, 162, 111
103640029, -3526, 8036, -12865, 5092, 164, -1325, -2387, -4502, 1529, 867, 174, 225, 885, 1015, 1057, 215, 162, 111
103640808, -3526, 8036, -12865, 5092, 164, -1325, -2387, -4502, 1529, 867, 174, 225, 885, 1015, 1057, 215, 162, 111
103641632, -3526, 8036, -12865, 5092, 164, -1325, -2387, -4502, 1529, 867, 174, 225, 885, 1015, 1057, 215, 162, 111
103646730, -3526, 8036, -12865, 5092, 164, -1325, -2387, -4502, 1529, 867, 174, 225, 885, 1015, 1057, 215, 162, 111
103647668, -2987, 8456, -12925, 4578, 829, -1775, -3035, -4282, 212, -1928, 174, 225, 885, 1015, 1057, 215, 162, 111
103648489, -2987, 8456, -12925, 4578, 829, -1775, -3035, -4282, 212, -1928, 171, 210, 683, 962, 745, 193, 145, 102
103649278, -2987, 8456, -12925, 4578, 829, -1775, -3035, -4282, 212, -1928, 171, 210, 683, 962, 745, 193, 145, 102
103654324, -2987, 8456, -12925, 4578, 829, -1775, -3035, -4282, 212, -1928, 171, 210, 683, 962, 745, 193, 145, 102
103655106, -2987, 8456, -12925, 4578, 829, -1775, -3035, -4282, 212, -1928, 171, 210, 683, 962, 745, 193, 145, 102
103655958, -2987, 8456, -12925, 4578, 829, -1775, -3035, -4282, 212, -1928, 171, 210, 683, 962, 745, 193, 145, 102
103656731, -2987, 8456, -12925, 4578, 829, -1775, -3035, -4282, 212, -1928, 171, 210, 683, 962, 745, 193, 145, 102
103661685, -2987, 8456, -12925, 4578, 829, -1775, -3035, -4282, 212, -1928, 171, 210, 683, 962, 745, 193, 145, 102
103662508, -2987, 8456, -12925, 4578, 829, -1775, -3035, -4282, 212, -1928, 171, 210, 683, 962, 745, 193, 145, 102
103663341, -2987, 8456, -12925, 4578, 829, -1775, -3035, -4282, 212, -1928, 171, 210, 683, 962, 745, 193, 145, 102
103664133, -2987, 8456, -12925, 4578, 829, -1775, -3035, -4282, 212, -1928, 171, 210, 683, 962, 745, 193, 145, 102
103669236, -2987, 8456, -12925, 4578, 829, -1775, -3035, -4282, 212, -1928, 171, 210, 683, 962, 745, 193, 145, 102
103670134, -2475, 9057, -12735, 4255, 740, -2045, -2518, -3258, 133, -3636, 171, 210, 683, 962, 745, 193, 145, 102
103671002, -2475, 9057, -12735, 4255, 740, -2045, -2518, -3258, 133, -3636, 169, 185, 432, 823, 446, 141, 137, 171
103671832, -2475, 9057, -12735, 4255, 740, -2045, -2518, -3258, 133, -3636, 169, 185, 432, 823, 446, 141, 137, 171
103676827, -2475, 9057, -12735, 4255, 740, -2045, -2518, -3258, 133, -3636, 169, 185, 432, 823, 446, 141, 137, 171
103677671, -2475, 9057, -12735, 4255, 740, -2045, -2518, -3258, 133, -3636, 169, 185, 432, 823, 446, 141, 137, 171
103678409, -2475, 9057, -12735, 4255, 740, -2045, -2518, -3258, 133, -3636, 169, 185, 432, 823, 446, 141, 137, 171
103679271, -2475, 9057, -12735, 4255, 740, -2045, -2518, -3258, 133, -3636, 169, 185, 432, 823, 446, 141, 137, 171
103684179, -2475, 9057, -12735, 4255, 740, -2045, -2518, -3258, 133, -3636, 169, 185, 432, 823, 446, 141, 137, 171
103685008, -2475, 9057, -12735, 4255, 740, -2045, -2518, -3258, 133, -3636, 169, 185, 432, 823, 446, 141, 137, 171
103685806, -2475, 9057, -12735, 4255, 740, -2045, -2518, -3258, 133, -3636, 169, 185, 432, 823, 446, 141, 137, 171
103686658, -2475, 9057, -12735, 4255, 740, -2045, -2518, -3258, 133, -3636, 169, 185, 432, 823, 446, 141, 137, 171
103691731, -2475, 9057, -12735, 4255, 740, -2045, -2518, -3258, 133, -3636, 169, 185, 432, 823, 446, 141, 137, 171
103692726, -2181, 9701, -12268, 4368, 1082, -3008, -1951, -478, 220, -4739, 169, 185, 432, 823, 446, 141, 137, 171
103693488, -2181, 9701, -12268, 4368, 1082, -3008, -1951, -478, 220, -4739, 120, 150, 376, 1151, 255, 124, 239, 225
103694354, -2181, 9701, -12268, 4368, 1082, -3008, -1951, -478, 220, -4739, 120, 150, 376, 1151, 255, 124, 239, 225
103699307, -2181, 9701, -12268, 4368, 1082, -3008, -1951, -478, 220, -4739, 120, 150, 376, 1151, 255, 124, 239, 225
103700172, -2181, 9701, -12268, 4368, 1082, -3008, -1951, -478, 220, -4739, 120, 150, 376, 1151, 255, 124, 239, 225
103700931, -2181, 9701, -12268, 4368, 1082, -3008, -1951, -478, 220, -4739, 120, 150, 376, 1151, 255, 124, 239, 225
103701797, -2181, 9701, -12268, 4368, 1082, -3008, -1951, -478, 220, -4739, 120, 150, 376, 1151, 255, 124, 239, 225
103706727, -2181, 9701, -12268, 4368, 1082, -3008, -1951, -478, 220, -4739, 120, 150, 376, 1151, 255, 124, 239, 225
103707539, -2181, 9701, -12268, 4368, 1082, -3008, -1951, -478, 220, -4739, 120, 150, 376, 1151, 255, 124, 239, 225
103708377, -2181, 9701, -12268, 4368, 1082, -3008, -1951, -478, 220, -4739, 120, 150, 376, 1151, 255, 124, 239, 225
103709148, -2181, 9701, -12268, 4368, 1082, -3008, -1951, -478, 220, -4739, 120, 150, 376, 1151, 255, 124, 239, 225
