Timestamp, Orientation x, Orientation y, Orientation z, Orientation w, Acceleration x, Acceleration y, Acceleration z, Rotation x, Rotation y, Rotation z, EMG 0, EMG 1, EMG 2, EMG 3, EMG 4, EMG 5, EMG 6, EMG 7
268399433, -388, 13897, -952, 8616, 3923, -497, -1982, -69, 29, -26, 0, 0, 0, 0, 0, 0, 0, 0
268400285, -381, 13895, -955, 8618, 3909, -488, -1983, -54, 30, -31, 0, 0, 0, 0, 0, 0, 0, 0
268421274, -375, 13893, -956, 8623, 3908, -493, -1965, -40, 36, -40, 0, 0, 0, 0, 0, 0, 0, 0
268443779, -376, 13891, -955, 8626, 3890, -505, -1980, -7, 36, -35, 0, 0, 0, 0, 0, 0, 0, 0
268458745, -377, 13890, -951, 8627, 3887, -478, -1980, 6, 28, -37, 0, 0, 0, 0, 0, 0, 0, 0
268466925, -377, 13890, -951, 8627, 3887, -478, -1980, 6, 28, -37, 38, 74, 31, 24, 26, 20, 21, 48
268467693, -377, 13890, -951, 8627, 3887, -478, -1980, 6, 28, -37, 38, 74, 31, 24, 26, 20, 21, 48
268481260, -373, 13891, -947, 8627, 3889, -476, -1998, -13, 25, -49, 38, 74, 31, 24, 26, 20, 21, 48
268489369, -373, 13891, -947, 8627, 3889, -476, -1998, -13, 25, -49, 38, 72, 31, 24, 24, 22, 20, 27
268490191, -373, 13891, -947, 8627, 3889, -476, -1998, -13, 25, -49, 38, 72, 31, 24, 24, 22, 20, 27
268506550, -370, 13892, -944, 8626, 3891, -492, -1996, -19, 21, -57, 38, 72, 31, 24, 24, 22, 20, 27
268507335, -388, 13897, -952, 8616, 3923, -497, -1982, -69, 29, -26, 38, 72, 31, 24, 24, 22, 20, 27
268508151, -381, 13895, -955, 8618, 3909, -488, -1983, -54, 30, -31, 38, 72, 31, 24, 24, 22, 20, 27
268508960, -375, 13893, -956, 8623, 3908, -493, -1965, -40, 36, -40, 38, 72, 31, 24, 24, 22, 20, 27
268513917, -376, 13891, -955, 8626, 3890, -505, -1980, -7, 36, -35, 38, 72, 31, 24, 24, 22, 20, 27
268514735, -377, 13890, -951, 8627, 3887, -478, -1980, 6, 28, -37, 38, 72, 31, 24, 24, 22, 20, 27
268515577, -377, 13890, -951, 8627, 3887, -478, -1980, 6, 28, -37, 38, 74, 31, 24, 26, 20, 21, 48
268516379, -377, 13890, -951, 8627, 3887, -478, -1980, 6, 28, -37, 38, 74, 31, 24, 26, 20, 21, 48
268521485, -377, 13890, -951, 8627, 3887, -478, -1980, 6, 28, -37, 38, 72, 31, 24, 24, 22, 20, 27
268522282, -377, 13890, -951, 8627, 3887, -478, -1980, 6, 28, -37, 38, 72, 31, 24, 24, 22, 20, 27
268523135, -377, 13890, -951, 8627, 3887, -478, -1980, 6, 28, -37, 38, 72, 31, 24, 24, 22, 20, 27
268523930, -377, 13890, -951, 8627, 3887, -478, -1980, 6, 28, -37, 38, 72, 31, 24, 24, 22, 20, 27
268528882, -377, 13890, -951, 8627, 3887, -478, -1980, 6, 28, -37, 38, 72, 31, 24, 24, 22, 20, 27
268529681, -377, 13890, -951, 8627, 3887, -478, -1980, 6, 28, -37, 38, 72, 31, 24, 24, 22, 20, 27
268530526, -377, 13890, -951, 8627, 3887, -478, -1980, 6, 28, -37, 38, 72, 31, 24, 24, 22, 20, 27
268531335, -377, 13890, -951, 8627, 3887, -478, -1980, 6, 28, -37, 38, 72, 31, 24, 24, 22, 20, 27
268543867, -377, 13890, -951, 8627, 3887, -478, -1980, 6, 28, -37, 38, 72, 31, 24, 24, 22, 20, 27
268544785, -370, 13892, -944, 8626, 3891, -492, -1996, -19, 21, -57, 38, 72, 31, 24, 24, 22, 20, 27
268545671, -370, 13892, -944, 8626, 3891, -492, -1996, -19, 21, -57, 24, 39, 28, 26, 20, 20, 19, 21
268546410, -370, 13892, -944, 8626, 3891, -492, -1996, -19, 21, -57, 24, 39, 28, 26, 20, 20, 19, 21
268551414, -370, 13892, -944, 8626, 3891, -492, -1996, -19, 21, -57, 24, 39, 28, 26, 20, 20, 19, 21
268552233, -370, 13892, -944, 8626, 3891, -492, -1996, -19, 21, -57, 24, 39, 28, 26, 20, 20, 19, 21
268553097, -370, 13892, -944, 8626, 3891, -492, -1996, -19, 21, -57, 24, 39, 28, 26, 20, 20, 19, 21
268553856, -370, 13892, -944, 8626, 3891, -492, -1996, -19, 21, -57, 24, 39, 28, 26, 20, 20, 19, 21
268558907, -370, 13892, -944, 8626, 3891, -492, -1996, -19, 21, -57, 24, 39, 28, 26, 20, 20, 19, 21
268559704, -370, 13892, -944, 8626, 3891, -492, -1996, -19, 21, -57, 24, 39, 28, 26, 20, 20, 19, 21
268560538, -370, 13892, -944, 8626, 3891, -492, -1996, -19, 21, -57, 24, 39, 28, 26, 20, 20, 19, 21
268561313, -370, 13892, -944, 8626, 3891, -492, -1996, -19, 21, -57, 24, 39, 28, 26, 20, 20, 19, 21
268566394, -370, 13892, -944, 8626, 3891, -492, -1996, -19, 21, -57, 24, 39, 28, 26, 20, 20, 19, 21
268567333, -371, 13892, -938, 8625, 3885, -503, -1976, 3, 13, -62, 24, 39, 28, 26, 20, 20, 19, 21
268568159, -371, 13892, -938, 8625, 3885, -503, -1976, 3, 13, -62, 23, 49, 30, 26, 19, 22, 18, 21
268568957, -371, 13892, -938, 8625, 3885, -503, -1976, 3, 13, -62, 23, 49, 30, 26, 19, 22, 18, 21
268573948, -371, 13892, -938, 8625, 3885, -503, -1976, 3, 13, -62, 23, 49, 30, 26, 19, 22, 18, 21
268574757, -371, 13892, -938, 8625, 3885, -503, -1976, 3, 13, -62, 23, 49, 30, 26, 19, 22, 18, 21
268575606, -371, 13892, -938, 8625, 3885, -503, -1976, 3, 13, -62, 23, 49, 30, 26, 19, 22, 18, 21
268576384, -371, 13892, -938, 8625, 3885, -503, -1976, 3, 13, -62, 23, 49, 30, 26, 19, 22, 18, 21
268581351, -371, 13892, -938, 8625, 3885, -503, -1976, 3, 13, -62, 23, 49, 30, 26, 19, 22, 18, 21
268582153, -371, 13892, -938, 8625, 3885, -503, -1976, 3, 13, -62, 23, 49, 30, 26, 19, 22, 18, 21
268582980, -371, 13892, -938, 8625, 3885, -503, -1976, 3, 13, -62, 23, 49, 30, 26, 19, 22, 18, 21
268583846, -371, 13892, -938, 8625, 3885, -503, -1976, 3, 13, -62, 23, 49, 30, 26, 19, 22, 18, 21
268588858, -371, 13892, -938, 8625, 3885, -503, -1976, 3, 13, -62, 23, 49, 30, 26, 19, 22, 18, 21
268589823, -373, 13894, -931, 8624, 3891, -507, -1981, 17, 7, -69, 23, 49, 30, 26, 19, 22, 18, 21
268590632, -373, 13894, -931, 8624, 3891, -507, -1981, 17, 7, -69, 60, 70, 29, 25, 24, 22, 18, 23
268591450, -373, 13894, -931, 8624, 3891, -507, -1981, 17, 7, -69, 60, 70, 29, 25, 24, 22, 18, 23
268596454, -373, 13894, -931, 8624, 3891, -507, -1981, 17, 7, -69, 60, 70, 29, 25, 24, 22, 18, 23
268597287, -373, 13894, -931, 8624, 3891, -507, -1981, 17, 7, -69, 60, 70, 29, 25, 24, 22, 18, 23
268598064, -373, 13894, -931, 8624, 3891, -507, -1981, 17, 7, -69, 60, 70, 29, 25, 24, 22, 18, 23
268598909, -373, 13894, -931, 8624, 3891, -507, -1981, 17, 7, -69, 60, 70, 29, 25, 24, 22, 18, 23
268603848, -373, 13894, -931, 8624, 3891, -507, -1981, 17, 7, -69, 60, 70, 29, 25, 24, 22, 18, 23
268604671, -373, 13894, -931, 8624, 3891, -507, -1981, 17, 7, -69, 60, 70, 29, 25, 24, 22, 18, 23
268605483, -373, 13894, -931, 8624, 3891, -507, -1981, 17, 7, -69, 60, 70, 29, 25, 24, 22, 18, 23
268606321, -373, 13894, -931, 8624, 3891, -507, -1981, 17, 7, -69, 60, 70, 29, 25, 24, 22, 18, 23
268611429, -373, 13894, -931, 8624, 3891, -507, -1981, 17, 7, -69, 60, 70, 29, 25, 24, 22, 18, 23
268612361, -380, 13895, -922, 8623, 3874, -527, -1983, 35, 7, -70, 60, 70, 29, 25, 24, 22, 18, 23
268613156, -380, 13895, -922, 8623, 3874, -527, -1983, 35, 7, -70, 67, 95, 33, 43, 28, 23, 20, 26
268613948, -380, 13895, -922, 8623, 3874, -527, -1983, 35, 7, -70, 67, 95, 33, 43, 28, 23, 20, 26
268618957, -380, 13895, -922, 8623, 3874, -527, -1983, 35, 7, -70, 67, 95, 33, 43, 28, 23, 20, 26
268619756, -380, 13895, -922, 8623, 3874, -527, -1983, 35, 7, -70, 67, 95, 33, 43, 28, 23, 20, 26
268620605, -380, 13895, -922, 8623, 3874, -527, -1983, 35, 7, -70, 67, 95, 33, 43, 28, 23, 20, 26
268621383, -380, 13895, -922, 8623, 3874, -527, -1983, 35, 7, -70, 67, 95, 33, 43, 28, 23, 20, 26
268626350, -380, 13895, -922, 8623, 3874, -527, -1983, 35, 7, -70, 67, 95, 33, 43, 28, 23, 20, 26
268627179, -380, 13895, -922, 8623, 3874, -527, -1983, 35, 7, -70, 67, 95, 33, 43, 28, 23, 20, 26
268628005, -380, 13895, -922, 8623, 3874, -527, -1983, 35, 7, -70, 67, 95, 33, 43, 28, 23, 20, 26
268628845, -380, 13895, -922, 8623, 3874, -527, -1983, 35, 7, -70, 67, 95, 33, 43, 28, 23, 20, 26
268633893, -380, 13895, -922, 8623, 3874, -527, -1983, 35, 7, -70, 67, 95, 33, 43, 28, 23, 20, 26
268634808, -393, 13897, -912, 8621, 3880, -542, -1981, 65, 0, -65, 67, 95, 33, 43, 28, 23, 20, 26
268635621, -393, 13897, -912, 8621, 3880, -542, -1981, 65, 0, -65, 70, 146, 47, 94, 82, 35, 29, 25
268636410, -393, 13897, -912, 8621, 3880, -542, -1981, 65, 0, -65, 70, 146, 47, 94, 82, 35, 29, 25
268641431, -393, 13897, -912, 8621, 3880, -542, -1981, 65, 0, -65, 70, 146, 47, 94, 82, 35, 29, 25
268642231, -393, 13897, -912, 8621, 3880, -542, -1981, 65, 0, -65, 70, 146, 47, 94, 82, 35, 29, 25
268643055, -393, 13897, -912, 8621, 3880, -542, -1981, 65, 0, -65, 70, 146, 47, 94, 82, 35, 29, 25
268643886, -393, 13897, -912, 8621, 3880, -542, -1981, 65, 0, -65, 70, 146, 47, 94, 82, 35, 29, 25
268648833, -393, 13897, -912, 8621, 3880, -542, -1981, 65, 0, -65, 70, 146, 47, 94, 82, 35, 29, 25
268649685, -393, 13897, -912, 8621, 3880, -542, -1981, 65, 0, -65, 70, 146, 47, 94, 82, 35, 29, 25
268650479, -393, 13897, -912, 8621, 3880, -542, -1981, 65, 0, -65, 70, 146, 47, 94, 82, 35, 29, 25
268651279, -393, 13897, -912, 8621, 3880, -542, -1981, 65, 0, -65, 70, 146, 47, 94, 82, 35, 29, 25
268656355, -393, 13897, -912, 8621, 3880, -542, -1981, 65, 0, -65, 70, 146, 47, 94, 82, 35, 29, 25
268657312, -421, 13898, -894, 8618, 3855, -601, -2006, 147, 11, -85, 70, 146, 47, 94, 82, 35, 29, 25
268658106, -421, 13898, -894, 8618, 3855, -601, -2006, 147, 11, -85, 74, 166, 107, 180, 177, 78, 48, 35
268658934, -421, 13898, -894, 8618, 3855, -601, -2006, 147, 11, -85, 74, 166, 107, 180, 177, 78, 48, 35
268663932, -421, 13898, -894, 8618, 3855, -601, -2006, 147, 11, -85, 74, 166, 107, 180, 177, 78, 48, 35
268664772, -421, 13898, -894, 8618, 3855, -601, -2006, 147, 11, -85, 74, 166, 107, 180, 177, 78, 48, 35
268665654, -421, 13898, -894, 8618, 3855, -601, -2006, 147, 11, -85, 74, 166, 107, 180, 177, 78, 48, 35
268666337, -421, 13898, -894, 8618, 3855, -601, -2006, 147, 11, -85, 74, 166, 107, 180, 177, 78, 48, 35
268671306, -421, 13898, -894, 8618, 3855, -601, -2006, 147, 11, -85, 74, 166, 107, 180, 177, 78, 48, 35
268672147, -421, 13898, -894, 8618, 3855, -601, -2006, 147, 11, -85, 74, 166, 107, 180, 177, 78, 48, 35
268672939, -421, 13898, -894, 8618, 3855, -601, -2006, 147, 11, -85, 74, 166, 107, 180, 177, 78, 48, 35
268673732, -421, 13898, -894, 8618, 3855, -601, -2006, 147, 11, -85, 74, 166, 107, 180, 177, 78, 48, 35
268678882, -421, 13898, -894, 8618, 3855, -601, -2006, 147, 11, -85, 74, 166, 107, 180, 177, 78, 48, 35
268679873, -481, 13907, -871, 8604, 3781, -758, -2078, 279, -27, -87, 74, 166, 107, 180, 177, 78, 48, 35
268680631, -481, 13907, -871, 8604, 3781, -758, -2078, 279, -27, -87, 82, 179, 172, 237, 240, 148, 96, 68
268681489, -481, 13907, -871, 8604, 3781, -758, -2078, 279, -27, -87, 82, 179, 172, 237, 240, 148, 96, 68
268686457, -481, 13907, -871, 8604, 3781, -758, -2078, 279, -27, -87, 82, 179, 172, 237, 240, 148, 96, 68
268687323, -481, 13907, -871, 8604, 3781, -758, -2078, 279, -27, -87, 82, 179, 172, 237, 240, 148, 96, 68
268688082, -481, 13907, -871, 8604, 3781, -758, -2078, 279, -27, -87, 82, 179, 172, 237, 240, 148, 96, 68
268688947, -481, 13907, -871, 8604, 3781, -758, -2078, 279, -27, -87, 82, 179, 172, 237, 240, 148, 96, 68
268693857, -481, 13907, -871, 8604, 3781, -758, -2078, 279, -27, -87, 82, 179, 172, 237, 240, 148, 96, 68
268694721, -481, 13907, -871, 8604, 3781, -758, -2078, 279, -27, -87, 82, 179, 172, 237, 240, 148, 96, 68
268695487, -481, 13907, -871, 8604, 3781, -758, -2078, 279, -27, -87, 82, 179, 172, 237, 240, 148, 96, 68
268696314, -481, 13907, -871, 8604, 3781, -758, -2078, 279, -27, -87, 82, 179, 172, 237, 240, 148, 96, 68
268701372, -481, 13907, -871, 8604, 3781, -758, -2078, 279, -27, -87, 82, 179, 172, 237, 240, 148, 96, 68
268702338, -616, 13917, -819, 8584, 3686, -1147, -2081, 634, -60, -184, 82, 179, 172, 237, 240, 148, 96, 68
268703107, -616, 13917, -819, 8584, 3686, -1147, -2081, 634, -60, -184, 71, 186, 234, 361, 304, 208, 123, 83
268703960, -616, 13917, -819, 8584, 3686, -1147, -2081, 634, -60, -184, 71, 186, 234, 361, 304, 208, 123, 83
268708932, -616, 13917, -819, 8584, 3686, -1147, -2081, 634, -60, -184, 71, 186, 234, 361, 304, 208, 123, 83
268709785, -616, 13917, -819, 8584, 3686, -1147, -2081, 634, -60, -184, 71, 186, 234, 361, 304, 208, 123, 83
268710631, -616, 13917, -819, 8584, 3686, -1147, -2081, 634, -60, -184, 71, 186, 234, 361, 304, 208, 123, 83
268711375, -616, 13917, -819, 8584, 3686, -1147, -2081, 634, -60, -184, 71, 186, 234, 361, 304, 208, 123, 83
268716353, -616, 13917, -819, 8584, 3686, -1147, -2081, 634, -60, -184, 71, 186, 234, 361, 304, 208, 123, 83
268717168, -616, 13917, -819, 8584, 3686, -1147, -2081, 634, -60, -184, 71, 186, 234, 361, 304, 208, 123, 83
268717957, -616, 13917, -819, 8584, 3686, -1147, -2081, 634, -60, -184, 71, 186, 234, 361, 304, 208, 123, 83
268718821, -616, 13917, -819, 8584, 3686, -1147, -2081, 634, -60, -184, 71, 186, 234, 361, 304, 208, 123, 83
268723859, -616, 13917, -819, 8584, 3686, -1147, -2081, 634, -60, -184, 71, 186, 234, 361, 304, 208, 123, 83
268724786, -789, 13931, -739, 8554, 3616, -1362, -2087, 849, -124, -289, 71, 186, 234, 361, 304, 208, 123, 83
268725633, -789, 13931, -739, 8554, 3616, -1362, -2087, 849, -124, -289, 79, 189, 279, 451, 432, 250, 143, 160
268726400, -789, 13931, -739, 8554, 3616, -1362, -2087, 849, -124, -289, 79, 189, 279, 451, 432, 250, 143, 160
268731404, -789, 13931, -739, 8554, 3616, -1362, -2087, 849, -124, -289, 79, 189, 279, 451, 432, 250, 143, 160
268732271, -789, 13931, -739, 8554, 3616, -1362, -2087, 849, -124, -289, 79, 189, 279, 451, 432, 250, 143, 160
268733059, -789, 13931, -739, 8554, 3616, -1362, -2087, 849, -124, -289, 79, 189, 279, 451, 432, 250, 143, 160
268733859, -789, 13931, -739, 8554, 3616, -1362, -2087, 849, -124, -289, 79, 189, 279, 451, 432, 250, 143, 160
268738884, -789, 13931, -739, 8554, 3616, -1362, -2087, 849, -124, -289, 79, 189, 279, 451, 432, 250, 143, 160
268739679, -789, 13931, -739, 8554, 3616, -1362, -2087, 849, -124, -289, 79, 189, 279, 451, 432, 250, 143, 160
268740507, -789, 13931, -739, 8554, 3616, -1362, -2087, 849, -124, -289, 79, 189, 279, 451, 432, 250, 143, 160
268741339, -789, 13931, -739, 8554, 3616, -1362, -2087, 849, -124, -289, 79, 189, 279, 451, 432, 250, 143, 160
268746410, -789, 13931, -739, 8554, 3616, -1362, -2087, 849, -124, -289, 79, 189, 279, 451, 432, 250, 143, 160
268747321, -827, 13960, -711, 8505, 3554, -840, -2091, 181, -213, -169, 79, 189, 279, 451, 432, 250, 143, 160
268748140, -827, 13960, -711, 8505, 3554, -840, -2091, 181, -213, -169, 99, 159, 297, 517, 489, 271, 187, 257
268748969, -827, 13960, -711, 8505, 3554, -840, -2091, 181, -213, -169, 99, 159, 297, 517, 489, 271, 187, 257
268753985, -827, 13960, -711, 8505, 3554, -840, -2091, 181, -213, -169, 99, 159, 297, 517, 489, 271, 187, 257
268754804, -827, 13960, -711, 8505, 3554, -840, -2091, 181, -213, -169, 99, 159, 297, 517, 489, 271, 187, 257
268755643, -827, 13960, -711, 8505, 3554, -840, -2091, 181, -213, -169, 99, 159, 297, 517, 489, 271, 187, 257
268756430, -827, 13960, -711, 8505, 3554, -840, -2091, 181, -213, -169, 99, 159, 297, 517, 489, 271, 187, 257
268761346, -827, 13960, -711, 8505, 3554, -840, -2091, 181, -213, -169, 99, 159, 297, 517, 489, 271, 187, 257
268762156, -827, 13960, -711, 8505, 3554, -840, -2091, 181, -213, -169, 99, 159, 297, 517, 489, 271, 187, 257
268763024, -827, 13960, -711, 8505, 3554, -840, -2091, 181, -213, -169, 99, 159, 297, 517, 489, 271, 187, 257
268763806, -827, 13960, -711, 8505, 3554, -840, -2091, 181, -213, -169, 99, 159, 297, 517, 489, 271, 187, 257
268768890, -827, 13960, -711, 8505, 3554, -840, -2091, 181, -213, -169, 99, 159, 297, 517, 489, 271, 187, 257
268769830, -814, 13956, -883, 8498, 3612, -1041, -1928, -678, 54, 551, 99, 159, 297, 517, 489, 271, 187, 257
268770654, -814, 13956, -883, 8498, 3612, -1041, -1928, -678, 54, 551, 102, 142, 286, 502, 473, 272, 187, 265
268771446, -814, 13956, -883, 8498, 3612, -1041, -1928, -678, 54, 551, 102, 142, 286, 502, 473, 272, 187, 265
268776443, -814, 13956, -883, 8498, 3612, -1041, -1928, -678, 54, 551, 102, 142, 286, 502, 473, 272, 187, 265
268777265, -814, 13956, -883, 8498, 3612, -1041, -1928, -678, 54, 551, 102, 142, 286, 502, 473, 272, 187, 265
268778060, -814, 13956, -883, 8498, 3612, -1041, -1928, -678, 54, 551, 102, 142, 286, 502, 473, 272, 187, 265
268778883, -814, 13956, -883, 8498, 3612, -1041, -1928, -678, 54, 551, 102, 142, 286, 502, 473, 272, 187, 265
268783829, -814, 13956, -883, 8498, 3612, -1041, -1928, -678, 54, 551, 102, 142, 286, 502, 473, 272, 187, 265
268784657, -814, 13956, -883, 8498, 3612, -1041, -1928, -678, 54, 551, 102, 142, 286, 502, 473, 272, 187, 265
268785461, -814, 13956, -883, 8498, 3612, -1041, -1928, -678, 54, 551, 102, 142, 286, 502, 473, 272, 187, 265
268786293, -814, 13956, -883, 8498, 3612, -1041, -1928, -678, 54, 551, 102, 142, 286, 502, 473, 272, 187, 265
268791388, -814, 13956, -883, 8498, 3612, -1041, -1928, -678, 54, 551, 102, 142, 286, 502, 473, 272, 187, 265
268792326, -874, 13953, -1150, 8465, 3692, -1522, -1985, -709, -83, 1050, 102, 142, 286, 502, 473, 272, 187, 265
268793132, -874, 13953, -1150, 8465, 3692, -1522, -1985, -709, -83, 1050, 101, 122, 255, 489, 465, 255, 174, 265
268793932, -874, 13953, -1150, 8465, 3692, -1522, -1985, -709, -83, 1050, 101, 122, 255, 489, 465, 255, 174, 265
268798956, -874, 13953, -1150, 8465, 3692, -1522, -1985, -709, -83, 1050, 101, 122, 255, 489, 465, 255, 174, 265
268799756, -874, 13953, -1150, 8465, 3692, -1522, -1985, -709, -83, 1050, 101, 122, 255, 489, 465, 255, 174, 265
268800605, -874, 13953, -1150, 8465, 3692, -1522, -1985, -709, -83, 1050, 101, 122, 255, 489, 465, 255, 174, 265
268801383, -874, 13953, -1150, 8465, 3692, -1522, -1985, -709, -83, 1050, 101, 122, 255, 489, 465, 255, 174, 265
268806346, -874, 13953, -1150, 8465, 3692, -1522, -1985, -709, -83, 1050, 101, 122, 255, 489, 465, 255, 174, 265
268807181, -874, 13953, -1150, 8465, 3692, -1522, -1985, -709, -83, 1050, 101, 122, 255, 489, 465, 255, 174, 265
268807996, -874, 13953, -1150, 8465, 3692, -1522, -1985, -709, -83, 1050, 101, 122, 255, 489, 465, 255, 174, 265
268808830, -874, 13953, -1150, 8465, 3692, -1522, -1985, -709, -83, 1050, 101, 122, 255, 489, 465, 255, 174, 265
268813910, -874, 13953, -1150, 8465, 3692, -1522, -1985, -709, -83, 1050, 101, 122, 255, 489, 465, 255, 174, 265
268814808, -1018, 13966, -1426, 8384, 3799, -1577, -2212, -323, -329, 1397, 101, 122, 255, 489, 465, 255, 174, 265
268815673, -1018, 13966, -1426, 8384, 3799, -1577, -2212, -323, -329, 1397, 97, 102, 205, 432, 452, 262, 177, 267
268816435, -1018, 13966, -1426, 8384, 3799, -1577, -2212, -323, -329, 1397, 97, 102, 205, 432, 452, 262, 177, 267
268821498, -1018, 13966, -1426, 8384, 3799, -1577, -2212, -323, -329, 1397, 97, 102, 205, 432, 452, 262, 177, 267
268822257, -1018, 13966, -1426, 8384, 3799, -1577, -2212, -323, -329, 1397, 97, 102, 205, 432, 452, 262, 177, 267
268823124, -1018, 13966, -1426, 8384, 3799, -1577, -2212, -323, -329, 1397, 97, 102, 205, 432, 452, 262, 177, 267
268823882, -1018, 13966, -1426, 8384, 3799, -1577, -2212, -323, -329, 1397, 97, 102, 205, 432, 452, 262, 177, 267
268828873, -1018, 13966, -1426, 8384, 3799, -1577, -2212, -323, -329, 1397, 97, 102, 205, 432, 452, 262, 177, 267
268829657, -1018, 13966, -1426, 8384, 3799, -1577, -2212, -323, -329, 1397, 97, 102, 205, 432, 452, 262, 177, 267
268830486, -1018, 13966, -1426, 8384, 3799, -1577, -2212, -323, -329, 1397, 97, 102, 205, 432, 452, 262, 177, 267
268831281, -1018, 13966, -1426, 8384, 3799, -1577, -2212, -323, -329, 1397, 97, 102, 205, 432, 452, 262, 177, 267
268836384, -1018, 13966, -1426, 8384, 3799, -1577, -2212, -323, -329, 1397, 97, 102, 205, 432, 452, 262, 177, 267
268837305, -1207, 14000, -1694, 8251, 3751, -1497, -2389, 35, -705, 1794, 97, 102, 205, 432, 452, 262, 177, 267
268838119, -1207, 14000, -1694, 8251, 3751, -1497, -2389, 35, -705, 1794, 98, 93, 193, 343, 338, 227, 168, 243
268838907, -1207, 14000, -1694, 8251, 3751, -1497, -2389, 35, -705, 1794, 98, 93, 193, 343, 338, 227, 168, 243
268843942, -1207, 14000, -1694, 8251, 3751, -1497, -2389, 35, -705, 1794, 98, 93, 193, 343, 338, 227, 168, 243
268844714, -1207, 14000, -1694, 8251, 3751, -1497, -2389, 35, -705, 1794, 98, 93, 193, 343, 338, 227, 168, 243
268845606, -1207, 14000, -1694, 8251, 3751, -1497, -2389, 35, -705, 1794, 98, 93, 193, 343, 338, 227, 168, 243
268846285, -1207, 14000, -1694, 8251, 3751, -1497, -2389, 35, -705, 1794, 98, 93, 193, 343, 338, 227, 168, 243
268851310, -1207, 14000, -1694, 8251, 3751, -1497, -2389, 35, -705, 1794, 98, 93, 193, 343, 338, 227, 168, 243
268852144, -1207, 14000, -1694, 8251, 3751, -1497, -2389, 35, -705, 1794, 98, 93, 193, 343, 338, 227, 168, 243
268852956, -1207, 14000, -1694, 8251, 3751, -1497, -2389, 35, -705, 1794, 98, 93, 193, 343, 338, 227, 168, 243
268853786, -1207, 14000, -1694, 8251, 3751, -1497, -2389, 35, -705, 1794, 98, 93, 193, 343, 338, 227, 168, 243
268858882, -1207, 14000, -1694, 8251, 3751, -1497, -2389, 35, -705, 1794, 98, 93, 193, 343, 338, 227, 168, 243
268859842, -1448, 14051, -2026, 8048, 3683, -1461, -2546, 70, -1084, 2299, 98, 93, 193, 343, 338, 227, 168, 243
268860624, -1448, 14051, -2026, 8048, 3683, -1461, -2546, 70, -1084, 2299, 117, 204, 331, 265, 267, 212, 126, 149
268861437, -1448, 14051, -2026, 8048, 3683, -1461, -2546, 70, -1084, 2299, 117, 204, 331, 265, 267, 212, 126, 149
268866432, -1448, 14051, -2026, 8048, 3683, -1461, -2546, 70, -1084, 2299, 117, 204, 331, 265, 267, 212, 126, 149
268867256, -1448, 14051, -2026, 8048, 3683, -1461, -2546, 70, -1084, 2299, 117, 204, 331, 265, 267, 212, 126, 149
268868058, -1448, 14051, -2026, 8048, 3683, -1461, -2546, 70, -1084, 2299, 117, 204, 331, 265, 267, 212, 126, 149
268868881, -1448, 14051, -2026, 8048, 3683, -1461, -2546, 70, -1084, 2299, 117, 204, 331, 265, 267, 212, 126, 149
268873859, -1448, 14051, -2026, 8048, 3683, -1461, -2546, 70, -1084, 2299, 117, 204, 331, 265, 267, 212, 126, 149
268874725, -1448, 14051, -2026, 8048, 3683, -1461, -2546, 70, -1084, 2299, 117, 204, 331, 265, 267, 212, 126, 149
268875484, -1448, 14051, -2026, 8048, 3683, -1461, -2546, 70, -1084, 2299, 117, 204, 331, 265, 267, 212, 126, 149
268876329, -1448, 14051, -2026, 8048, 3683, -1461, -2546, 70, -1084, 2299, 117, 204, 331, 265, 267, 212, 126, 149
268881357, -1448, 14051, -2026, 8048, 3683, -1461, -2546, 70, -1084, 2299, 117, 204, 331, 265, 267, 212, 126, 149
268882335, -1721, 14098, -2407, 7805, 3689, -1692, -2688, 65, -1270, 2643, 117, 204, 331, 265, 267, 212, 126, 149
268883106, -1721, 14098, -2407, 7805, 3689, -1692, -2688, 65, -1270, 2643, 123, 226, 419, 278, 297, 214, 129, 139
268883944, -1721, 14098, -2407, 7805, 3689, -1692, -2688, 65, -1270, 2643, 123, 226, 419, 278, 297, 214, 129, 139
268888944, -1721, 14098, -2407, 7805, 3689, -1692, -2688, 65, -1270, 2643, 123, 226, 419, 278, 297, 214, 129, 139
268889753, -1721, 14098, -2407, 7805, 3689, -1692, -2688, 65, -1270, 2643, 123, 226, 419, 278, 297, 214, 129, 139
268890623, -1721, 14098, -2407, 7805, 3689, -1692, -2688, 65, -1270, 2643, 123, 226, 419, 278, 297, 214, 129, 139
268891334, -1721, 14098, -2407, 7805, 3689, -1692, -2688, 65, -1270, 2643, 123, 226, 419, 278, 297, 214, 129, 139
268896340, -1721, 14098, -2407, 7805, 3689, -1692, -2688, 65, -1270, 2643, 123, 226, 419, 278, 297, 214, 129, 139
268897169, -1721, 14098, -2407, 7805, 3689, -1692, -2688, 65, -1270, 2643, 123, 226, 419, 278, 297, 214, 129, 139
268897977, -1721, 14098, -2407, 7805, 3689, -1692, -2688, 65, -1270, 2643, 123, 226, 419, 278, 297, 214, 129, 139
268898782, -1721, 14098, -2407, 7805, 3689, -1692, -2688, 65, -1270, 2643, 123, 226, 419, 278, 297, 214, 129, 139
268903858, -1721, 14098, -2407, 7805, 3689, -1692, -2688, 65, -1270, 2643, 123, 226, 419, 278, 297, 214, 129, 139
268904784, -2089, 14139, -2759, 7519, 3690, -1768, -2801, 588, -1571, 2819, 123, 226, 419, 278, 297, 214, 129, 139
268905657, -2089, 14139, -2759, 7519, 3690, -1768, -2801, 588, -1571, 2819, 127, 246, 460, 265, 280, 204, 124, 132
268906409, -2089, 14139, -2759, 7519, 3690, -1768, -2801, 588, -1571, 2819, 127, 246, 460, 265, 280, 204, 124, 132
268911392, -2089, 14139, -2759, 7519, 3690, -1768, -2801, 588, -1571, 2819, 127, 246, 460, 265, 280, 204, 124, 132
268912206, -2089, 14139, -2759, 7519, 3690, -1768, -2801, 588, -1571, 2819, 127, 246, 460, 265, 280, 204, 124, 132
268913031, -2089, 14139, -2759, 7519, 3690, -1768, -2801, 588, -1571, 2819, 127, 246, 460, 265, 280, 204, 124, 132
268913830, -2089, 14139, -2759, 7519, 3690, -1768, -2801, 588, -1571, 2819, 127, 246, 460, 265, 280, 204, 124, 132
268918805, -2089, 14139, -2759, 7519, 3690, -1768, -2801, 588, -1571, 2819, 127, 246, 460, 265, 280, 204, 124, 132
268919628, -2089, 14139, -2759, 7519, 3690, -1768, -2801, 588, -1571, 2819, 127, 246, 460, 265, 280, 204, 124, 132
268920433, -2089, 14139, -2759, 7519, 3690, -1768, -2801, 588, -1571, 2819, 127, 246, 460, 265, 280, 204, 124, 132
268921278, -2089, 14139, -2759, 7519, 3690, -1768, -2801, 588, -1571, 2819, 127, 246, 460, 265, 280, 204, 124, 132
268926384, -2089, 14139, -2759, 7519, 3690, -1768, -2801, 588, -1571, 2819, 127, 246, 460, 265, 280, 204, 124, 132
268927311, -2486, 14164, -3086, 7219, 3807, -1649, -2767, 812, -1685, 2855, 127, 246, 460, 265, 280, 204, 124, 132
268928134, -2486, 14164, -3086, 7219, 3807, -1649, -2767, 812, -1685, 2855, 125, 248, 462, 232, 238, 130, 94, 121
268928955, -2486, 14164, -3086, 7219, 3807, -1649, -2767, 812, -1685, 2855, 127, 246, 460, 265, 280, 204, 124, 132
268933956, -2486, 14164, -3086, 7219, 3807, -1649, -2767, 812, -1685, 2855, 125, 248, 462, 232, 238, 130, 94, 121
268934798, -2486, 14164, -3086, 7219, 3807, -1649, -2767, 812, -1685, 2855, 125, 248, 462, 232, 238, 130, 94, 121
268935653, -2486, 14164, -3086, 7219, 3807, -1649, -2767, 812, -1685, 2855, 125, 248, 462, 232, 238, 130, 94, 121
268936411, -2486, 14164, -3086, 7219, 3807, -1649, -2767, 812, -1685, 2855, 125, 248, 462, 232, 238, 130, 94, 121
268941357, -2486, 14164, -3086, 7219, 3807, -1649, -2767, 812, -1685, 2855, 125, 248, 462, 232, 238, 130, 94, 121
268942155, -2486, 14164, -3086, 7219, 3807, -1649, -2767, 812, -1685, 2855, 125, 248, 462, 232, 238, 130, 94, 121
268942982, -2486, 14164, -3086, 7219, 3807, -1649, -2767, 812, -1685, 2855, 125, 248, 462, 232, 238, 130, 94, 121
268943791, -2486, 14164, -3086, 7219, 3807, -1649, -2767, 812, -1685, 2855, 125, 248, 462, 232, 238, 130, 94, 121
268948864, -2486, 14164, -3086, 7219, 3807, -1649, -2767, 812, -1685, 2855, 125, 248, 462, 232, 238, 130, 94, 121
268949785, -2876, 14175, -3423, 6892, 3723, -1560, -2781, 757, -1783, 2966, 125, 248, 462, 232, 238, 130, 94, 121
268950646, -2876, 14175, -3423, 6892, 3723, -1560, -2781, 757, -1783, 2966, 131, 289, 541, 248, 232, 124, 88, 101
268951459, -2876, 14175, -3423, 6892, 3723, -1560, -2781, 757, -1783, 2966, 131, 289, 541, 248, 232, 124, 88, 101
268956442, -2876, 14175, -3423, 6892, 3723, -1560, -2781, 757, -1783, 2966, 131, 289, 541, 248, 232, 124, 88, 101
268957256, -2876, 14175, -3423, 6892, 3723, -1560, -2781, 757, -1783, 2966, 131, 289, 541, 248, 232, 124, 88, 101
268958082, -2876, 14175, -3423, 6892, 3723, -1560, -2781, 757, -1783, 2966, 131, 289, 541, 248, 232, 124, 88, 101
268958904, -2876, 14175, -3423, 6892, 3723, -1560, -2781, 757, -1783, 2966, 131, 289, 541, 248, 232, 124, 88, 101
268963844, -2876, 14175, -3423, 6892, 3723, -1560, -2781, 757, -1783, 2966, 131, 289, 541, 248, 232, 124, 88, 101
268964672, -2876, 14175, -3423, 6892, 3723, -1560, -2781, 757, -1783, 2966, 131, 289, 541, 248, 232, 124, 88, 101
268965488, -2876, 14175, -3423, 6892, 3723, -1560, -2781, 757, -1783, 2966, 131, 289, 541, 248, 232, 124, 88, 101
268966257, -2876, 14175, -3423, 6892, 3723, -1560, -2781, 757, -1783, 2966, 131, 289, 541, 248, 232, 124, 88, 101
268971333, -2876, 14175, -3423, 6892, 3723, -1560, -2781, 757, -1783, 2966, 131, 289, 541, 248, 232, 124, 88, 101
268972324, -3228, 14166, -3798, 6551, 3722, -1701, -2820, 494, -1744, 3116, 131, 289, 541, 248, 232, 124, 88, 101
268973082, -3228, 14166, -3798, 6551, 3722, -1701, -2820, 494, -1744, 3116, 106, 264, 588, 207, 203, 108, 82, 88
268973933, -3228, 14166, -3798, 6551, 3722, -1701, -2820, 494, -1744, 3116, 106, 264, 588, 207, 203, 108, 82, 88
268978911, -3228, 14166, -3798, 6551, 3722, -1701, -2820, 494, -1744, 3116, 106, 264, 588, 207, 203, 108, 82, 88
268979746, -3228, 14166, -3798, 6551, 3722, -1701, -2820, 494, -1744, 3116, 106, 264, 588, 207, 203, 108, 82, 88
268980535, -3228, 14166, -3798, 6551, 3722, -1701, -2820, 494, -1744, 3116, 106, 264, 588, 207, 203, 108, 82, 88
268981371, -3228, 14166, -3798, 6551, 3722, -1701, -2820, 494, -1744, 3116, 106, 264, 588, 207, 203, 108, 82, 88
268986356, -3228, 14166, -3798, 6551, 3722, -1701, -2820, 494, -1744, 3116, 106, 264, 588, 207, 203, 108, 82, 88
268987208, -3228, 14166, -3798, 6551, 3722, -1701, -2820, 494, -1744, 3116, 106, 264, 588, 207, 203, 108, 82, 88
268987985, -3228, 14166, -3798, 6551, 3722, -1701, -2820, 494, -1744, 3116, 106, 264, 588, 207, 203, 108, 82, 88
268988804, -3228, 14166, -3798, 6551, 3722, -1701, -2820, 494, -1744, 3116, 106, 264, 588, 207, 203, 108, 82, 88
268993882, -3228, 14166, -3798, 6551, 3722, -1701, -2820, 494, -1744, 3116, 106, 264, 588, 207, 203, 108, 82, 88
268994850, -3548, 14137, -4178, 6207, 3730, -1737, -2831, 356, -1705, 3134, 106, 264, 588, 207, 203, 108, 82, 88
268995654, -3548, 14137, -4178, 6207, 3730, -1737, -2831, 356, -1705, 3134, 95, 249, 540, 295, 228, 92, 75, 85
268996441, -3548, 14137, -4178, 6207, 3730, -1737, -2831, 356, -1705, 3134, 95, 249, 540, 295, 228, 92, 75, 85
269001465, -3548, 14137, -4178, 6207, 3730, -1737, -2831, 356, -1705, 3134, 95, 249, 540, 295, 228, 92, 75, 85
269002256, -3548, 14137, -4178, 6207, 3730, -1737, -2831, 356, -1705, 3134, 95, 249, 540, 295, 228, 92, 75, 85
269003109, -3548, 14137, -4178, 6207, 3730, -1737, -2831, 356, -1705, 3134, 95, 249, 540, 295, 228, 92, 75, 85
269003881, -3548, 14137, -4178, 6207, 3730, -1737, -2831, 356, -1705, 3134, 95, 249, 540, 295, 228, 92, 75, 85
269008873, -3548, 14137, -4178, 6207, 3730, -1737, -2831, 356, -1705, 3134, 95, 249, 540, 295, 228, 92, 75, 85
269009678, -3548, 14137, -4178, 6207, 3730, -1737, -2831, 356, -1705, 3134, 95, 249, 540, 295, 228, 92, 75, 85
269010471, -3548, 14137, -4178, 6207, 3730, -1737, -2831, 356, -1705, 3134, 95, 249, 540, 295, 228, 92, 75, 85
269011303, -3548, 14137, -4178, 6207, 3730, -1737, -2831, 356, -1705, 3134, 95, 249, 540, 295, 228, 92, 75, 85
269016383, -3548, 14137, -4178, 6207, 3730, -1737, -2831, 356, -1705, 3134, 95, 249, 540, 295, 228, 92, 75, 85
269017283, -3896, 14090, -4503, 5869, 3618, -1733, -2754, 648, -1760, 2969, 95, 249, 540, 295, 228, 92, 75, 85
269018147, -3896, 14090, -4503, 5869, 3618, -1733, -2754, 648, -1760, 2969, 86, 227, 506, 293, 215, 79, 67, 80
269018906, -3896, 14090, -4503, 5869, 3618, -1733, -2754, 648, -1760, 2969, 86, 227, 506, 293, 215, 79, 67, 80
269023944, -3896, 14090, -4503, 5869, 3618, -1733, -2754, 648, -1760, 2969, 86, 227, 506, 293, 215, 79, 67, 80
269024731, -3896, 14090, -4503, 5869, 3618, -1733, -2754, 648, -1760, 2969, 86, 227, 506, 293, 215, 79, 67, 80
269025622, -3896, 14090, -4503, 5869, 3618, -1733, -2754, 648, -1760, 2969, 86, 227, 506, 293, 215, 79, 67, 80
269026284, -3896, 14090, -4503, 5869, 3618, -1733, -2754, 648, -1760, 2969, 86, 227, 506, 293, 215, 79, 67, 80
269031299, -3896, 14090, -4503, 5869, 3618, -1733, -2754, 648, -1760, 2969, 86, 227, 506, 293, 215, 79, 67, 80
269032115, -3896, 14090, -4503, 5869, 3618, -1733, -2754, 648, -1760, 2969, 86, 227, 506, 293, 215, 79, 67, 80
269032978, -3896, 14090, -4503, 5869, 3618, -1733, -2754, 648, -1760, 2969, 86, 227, 506, 293, 215, 79, 67, 80
269033765, -3896, 14090, -4503, 5869, 3618, -1733, -2754, 648, -1760, 2969, 86, 227, 506, 293, 215, 79, 67, 80
269038932, -3896, 14090, -4503, 5869, 3618, -1733, -2754, 648, -1760, 2969, 86, 227, 506, 293, 215, 79, 67, 80
269039854, -4219, 14038, -4782, 5539, 3531, -1649, -2731, 647, -1760, 2723, 86, 227, 506, 293, 215, 79, 67, 80
269040664, -4219, 14038, -4782, 5539, 3531, -1649, -2731, 647, -1760, 2723, 85, 226, 503, 289, 217, 78, 66, 78
269041502, -4219, 14038, -4782, 5539, 3531, -1649, -2731, 647, -1760, 2723, 85, 226, 503, 289, 217, 78, 66, 78
269046468, -4219, 14038, -4782, 5539, 3531, -1649, -2731, 647, -1760, 2723, 85, 226, 503, 289, 217, 78, 66, 78
269047286, -4219, 14038, -4782, 5539, 3531, -1649, -2731, 647, -1760, 2723, 85, 226, 503, 289, 217, 78, 66, 78
269048079, -4219, 14038, -4782, 5539, 3531, -1649, -2731, 647, -1760, 2723, 85, 226, 503, 289, 217, 78, 66, 78
269048939, -4219, 14038, -4782, 5539, 3531, -1649, -2731, 647, -1760, 2723, 85, 226, 503, 289, 217, 78, 66, 78
269053902, -4219, 14038, -4782, 5539, 3531, -1649, -2731, 647, -1760, 2723, 85, 226, 503, 289, 217, 78, 66, 78
269054688, -4219, 14038, -4782, 5539, 3531, -1649, -2731, 647, -1760, 2723, 85, 226, 503, 289, 217, 78, 66, 78
269055508, -4219, 14038, -4782, 5539, 3531, -1649, -2731, 647, -1760, 2723, 85, 226, 503, 289, 217, 78, 66, 78
269056328, -4219, 14038, -4782, 5539, 3531, -1649, -2731, 647, -1760, 2723, 85, 226, 503, 289, 217, 78, 66, 78
269061366, -4219, 14038, -4782, 5539, 3531, -1649, -2731, 647, -1760, 2723, 85, 226, 503, 289, 217, 78, 66, 78
269062323, -4535, 13974, -5020, 5233, 3491, -1483, -2687, 773, -1685, 2527, 85, 226, 503, 289, 217, 78, 66, 78
269063107, -4535, 13974, -5020, 5233, 3491, -1483, -2687, 773, -1685, 2527, 59, 162, 399, 278, 220, 77, 56, 65
269063958, -4535, 13974, -5020, 5233, 3491, -1483, -2687, 773, -1685, 2527, 59, 162, 399, 278, 220, 77, 56, 65
269068931, -4535, 13974, -5020, 5233, 3491, -1483, -2687, 773, -1685, 2527, 59, 162, 399, 278, 220, 77, 56, 65
269069798, -4535, 13974, -5020, 5233, 3491, -1483, -2687, 773, -1685, 2527, 59, 162, 399, 278, 220, 77, 56, 65
269070653, -4535, 13974, -5020, 5233, 3491, -1483, -2687, 773, -1685, 2527, 59, 162, 399, 278, 220, 77, 56, 65
269071380, -4535, 13974, -5020, 5233, 3491, -1483, -2687, 773, -1685, 2527, 59, 162, 399, 278, 220, 77, 56, 65
269076332, -4535, 13974, -5020, 5233, 3491, -1483, -2687, 773, -1685, 2527, 59, 162, 399, 278, 220, 77, 56, 65
269077184, -4535, 13974, -5020, 5233, 3491, -1483, -2687, 773, -1685, 2527, 59, 162, 399, 278, 220, 77, 56, 65
269077978, -4535, 13974, -5020, 5233, 3491, -1483, -2687, 773, -1685, 2527, 59, 162, 399, 278, 220, 77, 56, 65
269078809, -4535, 13974, -5020, 5233, 3491, -1483, -2687, 773, -1685, 2527, 59, 162, 399, 278, 220, 77, 56, 65
269083831, -4535, 13974, -5020, 5233, 3491, -1483, -2687, 773, -1685, 2527, 59, 162, 399, 278, 220, 77, 56, 65
269084775, -4836, 13895, -5230, 4962, 3461, -1485, -2550, 828, -1537, 2355, 59, 162, 399, 278, 220, 77, 56, 65
269085606, -4836, 13895, -5230, 4962, 3461, -1485, -2550, 828, -1537, 2355, 45, 93, 155, 295, 231, 80, 52, 58
269086409, -4836, 13895, -5230, 4962, 3461, -1485, -2550, 828, -1537, 2355, 45, 93, 155, 295, 231, 80, 52, 58
269091382, -4836, 13895, -5230, 4962, 3461, -1485, -2550, 828, -1537, 2355, 45, 93, 155, 295, 231, 80, 52, 58
269092206, -4836, 13895, -5230, 4962, 3461, -1485, -2550, 828, -1537, 2355, 45, 93, 155, 295, 231, 80, 52, 58
269093030, -4836, 13895, -5230, 4962, 3461, -1485, -2550, 828, -1537, 2355, 45, 93, 155, 295, 231, 80, 52, 58
269093839, -4836, 13895, -5230, 4962, 3461, -1485, -2550, 828, -1537, 2355, 45, 93, 155, 295, 231, 80, 52, 58
269098822, -4836, 13895, -5230, 4962, 3461, -1485, -2550, 828, -1537, 2355, 45, 93, 155, 295, 231, 80, 52, 58
269099631, -4836, 13895, -5230, 4962, 3461, -1485, -2550, 828, -1537, 2355, 45, 93, 155, 295, 231, 80, 52, 58
269100457, -4836, 13895, -5230, 4962, 3461, -1485, -2550, 828, -1537, 2355, 45, 93, 155, 295, 231, 80, 52, 58
269101257, -4836, 13895, -5230, 4962, 3461, -1485, -2550, 828, -1537, 2355, 45, 93, 155, 295, 231, 80, 52, 58
269106422, -4836, 13895, -5230, 4962, 3461, -1485, -2550, 828, -1537, 2355, 45, 93, 155, 295, 231, 80, 52, 58
269107330, -5130, 13812, -5398, 4712, 3310, -1467, -2446, 916, -1484, 2126, 45, 93, 155, 295, 231, 80, 52, 58
269108159, -5130, 13812, -5398, 4712, 3310, -1467, -2446, 916, -1484, 2126, 41, 137, 99, 201, 177, 63, 44, 45
269108956, -5130, 13812, -5398, 4712, 3310, -1467, -2446, 916, -1484, 2126, 41, 137, 99, 201, 177, 63, 44, 45
269113968, -5130, 13812, -5398, 4712, 3310, -1467, -2446, 916, -1484, 2126, 41, 137, 99, 201, 177, 63, 44, 45
269114757, -5130, 13812, -5398, 4712, 3310, -1467, -2446, 916, -1484, 2126, 41, 137, 99, 201, 177, 63, 44, 45
269115672, -5130, 13812, -5398, 4712, 3310, -1467, -2446, 916, -1484, 2126, 41, 137, 99, 201, 177, 63, 44, 45
269116385, -5130, 13812, -5398, 4712, 3310, -1467, -2446, 916, -1484, 2126, 41, 137, 99, 201, 177, 63, 44, 45
269121365, -5130, 13812, -5398, 4712, 3310, -1467, -2446, 916, -1484, 2126, 41, 137, 99, 201, 177, 63, 44, 45
269122183, -5130, 13812, -5398, 4712, 3310, -1467, -2446, 916, -1484, 2126, 41, 137, 99, 201, 177, 63, 44, 45
269123003, -5130, 13812, -5398, 4712, 3310, -1467, -2446, 916, -1484, 2126, 41, 137, 99, 201, 177, 63, 44, 45
269123809, -5130, 13812, -5398, 4712, 3310, -1467, -2446, 916, -1484, 2126, 41, 137, 99, 201, 177, 63, 44, 45
269128857, -5130, 13812, -5398, 4712, 3310, -1467, -2446, 916, -1484, 2126, 41, 137, 99, 201, 177, 63, 44, 45
269129824, -5400, 13730, -5536, 4483, 3235, -1333, -2413, 898, -1409, 1919, 41, 137, 99, 201, 177, 63, 44, 45
269130631, -5400, 13730, -5536, 4483, 3235, -1333, -2413, 898, -1409, 1919, 38, 167, 90, 208, 174, 63, 44, 43
269131462, -5400, 13730, -5536, 4483, 3235, -1333, -2413, 898, -1409, 1919, 38, 167, 90, 208, 174, 63, 44, 43
269136432, -5400, 13730, -5536, 4483, 3235, -1333, -2413, 898, -1409, 1919, 38, 167, 90, 208, 174, 63, 44, 43
269137286, -5400, 13730, -5536, 4483, 3235, -1333, -2413, 898, -1409, 1919, 38, 167, 90, 208, 174, 63, 44, 43
269138056, -5400, 13730, -5536, 4483, 3235, -1333, -2413, 898, -1409, 1919, 38, 167, 90, 208, 174, 63, 44, 43
269138911, -5400, 13730, -5536, 4483, 3235, -1333, -2413, 898, -1409, 1919, 38, 167, 90, 208, 174, 63, 44, 43
269143849, -5400, 13730, -5536, 4483, 3235, -1333, -2413, 898, -1409, 1919, 38, 167, 90, 208, 174, 63, 44, 43
269144643, -5400, 13730, -5536, 4483, 3235, -1333, -2413, 898, -1409, 1919, 38, 167, 90, 208, 174, 63, 44, 43
269145471, -5400, 13730, -5536, 4483, 3235, -1333, -2413, 898, -1409, 1919, 38, 167, 90, 208, 174, 63, 44, 43
269146256, -5400, 13730, -5536, 4483, 3235, -1333, -2413, 898, -1409, 1919, 38, 167, 90, 208, 174, 63, 44, 43
269151337, -5400, 13730, -5536, 4483, 3235, -1333, -2413, 898, -1409, 1919, 38, 167, 90, 208, 174, 63, 44, 43
269152311, -5628, 13654, -5665, 4271, 3185, -1205, -2369, 750, -1277, 1784, 38, 167, 90, 208, 174, 63, 44, 43
269153088, -5628, 13654, -5665, 4271, 3185, -1205, -2369, 750, -1277, 1784, 38, 177, 150, 213, 188, 64, 45, 46
269153908, -5628, 13654, -5665, 4271, 3185, -1205, -2369, 750, -1277, 1784, 38, 177, 150, 213, 188, 64, 45, 46
269158908, -5628, 13654, -5665, 4271, 3185, -1205, -2369, 750, -1277, 1784, 38, 177, 150, 213, 188, 64, 45, 46
269159740, -5628, 13654, -5665, 4271, 3185, -1205, -2369, 750, -1277, 1784, 38, 177, 150, 213, 188, 64, 45, 46
269160534, -5628, 13654, -5665, 4271, 3185, -1205, -2369, 750, -1277, 1784, 38, 177, 150, 213, 188, 64, 45, 46
269161396, -5628, 13654, -5665, 4271, 3185, -1205, -2369, 750, -1277, 1784, 38, 177, 150, 213, 188, 64, 45, 46
269166306, -5628, 13654, -5665, 4271, 3185, -1205, -2369, 750, -1277, 1784, 38, 177, 150, 213, 188, 64, 45, 46
269167149, -5628, 13654, -5665, 4271, 3185, -1205, -2369, 750, -1277, 1784, 38, 177, 150, 213, 188, 64, 45, 46
269167953, -5628, 13654, -5665, 4271, 3185, -1205, -2369, 750, -1277, 1784, 38, 177, 150, 213, 188, 64, 45, 46
269168803, -5628, 13654, -5665, 4271, 3185, -1205, -2369, 750, -1277, 1784, 38, 177, 150, 213, 188, 64, 45, 46
269173872, -5628, 13654, -5665, 4271, 3185, -1205, -2369, 750, -1277, 1784, 38, 177, 150, 213, 188, 64, 45, 46
269174791, -5810, 13582, -5793, 4081, 3095, -1238, -2253, 561, -1100, 1660, 38, 177, 150, 213, 188, 64, 45, 46
269175606, -5810, 13582, -5793, 4081, 3095, -1238, -2253, 561, -1100, 1660, 45, 214, 311, 210, 198, 65, 45, 56
269176409, -5810, 13582, -5793, 4081, 3095, -1238, -2253, 561, -1100, 1660, 38, 177, 150, 213, 188, 64, 45, 46
269181434, -5810, 13582, -5793, 4081, 3095, -1238, -2253, 561, -1100, 1660, 45, 214, 311, 210, 198, 65, 45, 56
269182232, -5810, 13582, -5793, 4081, 3095, -1238, -2253, 561, -1100, 1660, 45, 214, 311, 210, 198, 65, 45, 56
269183056, -5810, 13582, -5793, 4081, 3095, -1238, -2253, 561, -1100, 1660, 45, 214, 311, 210, 198, 65, 45, 56
269183881, -5810, 13582, -5793, 4081, 3095, -1238, -2253, 561, -1100, 1660, 45, 214, 311, 210, 198, 65, 45, 56
269188832, -5810, 13582, -5793, 4081, 3095, -1238, -2253, 561, -1100, 1660, 45, 214, 311, 210, 198, 65, 45, 56
269189683, -5810, 13582, -5793, 4081, 3095, -1238, -2253, 561, -1100, 1660, 45, 214, 311, 210, 198, 65, 45, 56
269190459, -5810, 13582, -5793, 4081, 3095, -1238, -2253, 561, -1100, 1660, 45, 214, 311, 210, 198, 65, 45, 56
269191265, -5810, 13582, -5793, 4081, 3095, -1238, -2253, 561, -1100, 1660, 45, 214, 311, 210, 198, 65, 45, 56
269196356, -5810, 13582, -5793, 4081, 3095, -1238, -2253, 561, -1100, 1660, 45, 214, 311, 210, 198, 65, 45, 56
269197323, -5845, 13562, -5829, 4043, 2928, -1371, -2132, 512, -976, 1455, 45, 214, 311, 210, 198, 65, 45, 56
269198119, -5845, 13562, -5829, 4043, 2928, -1371, -2132, 512, -976, 1455, 41, 209, 337, 209, 234, 78, 58, 86
269198950, -5845, 13562, -5829, 4043, 2928, -1371, -2132, 512, -976, 1455, 41, 209, 337, 209, 234, 78, 58, 86
269203931, -5845, 13562, -5829, 4043, 2928, -1371, -2132, 512, -976, 1455, 41, 209, 337, 209, 234, 78, 58, 86
269204778, -5845, 13562, -5829, 4043, 2928, -1371, -2132, 512, -976, 1455, 41, 209, 337, 209, 234, 78, 58, 86
269205638, -5845, 13562, -5829, 4043, 2928, -1371, -2132, 512, -976, 1455, 41, 209, 337, 209, 234, 78, 58, 86
269206309, -5845, 13562, -5829, 4043, 2928, -1371, -2132, 512, -976, 1455, 41, 209, 337, 209, 234, 78, 58, 86
269211333, -5845, 13562, -5829, 4043, 2928, -1371, -2132, 512, -976, 1455, 41, 209, 337, 209, 234, 78, 58, 86
269212131, -5845, 13562, -5829, 4043, 2928, -1371, -2132, 512, -976, 1455, 41, 209, 337, 209, 234, 78, 58, 86
269212955, -5845, 13562, -5829, 4043, 2928, -1371, -2132, 512, -976, 1455, 41, 209, 337, 209, 234, 78, 58, 86
269213756, -5845, 13562, -5829, 4043, 2928, -1371, -2132, 512, -976, 1455, 41, 209, 337, 209, 234, 78, 58, 86
269218839, -5845, 13562, -5829, 4043, 2928, -1371, -2132, 512, -976, 1455, 41, 209, 337, 209, 234, 78, 58, 86
269219759, -5880, 13547, -5838, 4030, 2836, -1392, -2086, 559, -899, 1241, 41, 209, 337, 209, 234, 78, 58, 86
269220639, -5880, 13547, -5838, 4030, 2836, -1392, -2086, 559, -899, 1241, 71, 239, 400, 193, 244, 93, 66, 88
269221384, -5880, 13547, -5838, 4030, 2836, -1392, -2086, 559, -899, 1241, 71, 239, 400, 193, 244, 93, 66, 88
269226417, -5880, 13547, -5838, 4030, 2836, -1392, -2086, 559, -899, 1241, 71, 239, 400, 193, 244, 93, 66, 88
269227230, -5880, 13547, -5838, 4030, 2836, -1392, -2086, 559, -899, 1241, 71, 239, 400, 193, 244, 93, 66, 88
269228032, -5880, 13547, -5838, 4030, 2836, -1392, -2086, 559, -899, 1241, 71, 239, 400, 193, 244, 93, 66, 88
269228871, -5880, 13547, -5838, 4030, 2836, -1392, -2086, 559, -899, 1241, 71, 239, 400, 193, 244, 93, 66, 88
269233856, -5880, 13547, -5838, 4030, 2836, -1392, -2086, 559, -899, 1241, 71, 239, 400, 193, 244, 93, 66, 88
269234684, -5880, 13547, -5838, 4030, 2836, -1392, -2086, 559, -899, 1241, 71, 239, 400, 193, 244, 93, 66, 88
269235484, -5880, 13547, -5838, 4030, 2836, -1392, -2086, 559, -899, 1241, 71, 239, 400, 193, 244, 93, 66, 88
269236278, -5880, 13547, -5838, 4030, 2836, -1392, -2086, 559, -899, 1241, 71, 239, 400, 193, 244, 93, 66, 88
269241358, -5880, 13547, -5838, 4030, 2836, -1392, -2086, 559, -899, 1241, 71, 239, 400, 193, 244, 93, 66, 88
269242335, -5901, 13543, -5817, 4045, 2790, -1219, -2016, 607, -795, 996, 71, 239, 400, 193, 244, 93, 66, 88
269243106, -5901, 13543, -5817, 4045, 2790, -1219, -2016, 607, -795, 996, 119, 286, 502, 305, 255, 112, 93, 118
269243971, -5901, 13543, -5817, 4045, 2790, -1219, -2016, 607, -795, 996, 119, 286, 502, 305, 255, 112, 93, 118
269248975, -5901, 13543, -5817, 4045, 2790, -1219, -2016, 607, -795, 996, 119, 286, 502, 305, 255, 112, 93, 118
269249796, -5901, 13543, -5817, 4045, 2790, -1219, -2016, 607, -795, 996, 119, 286, 502, 305, 255, 112, 93, 118
269250623, -5901, 13543, -5817, 4045, 2790, -1219, -2016, 607, -795, 996, 119, 286, 502, 305, 255, 112, 93, 118
269251343, -5901, 13543, -5817, 4045, 2790, -1219, -2016, 607, -795, 996, 119, 286, 502, 305, 255, 112, 93, 118
269256333, -5901, 13543, -5817, 4045, 2790, -1219, -2016, 607, -795, 996, 119, 286, 502, 305, 255, 112, 93, 118
269257134, -5901, 13543, -5817, 4045, 2790, -1219, -2016, 607, -795, 996, 119, 286, 502, 305, 255, 112, 93, 118
269257955, -5901, 13543, -5817, 4045, 2790, -1219, -2016, 607, -795, 996, 119, 286, 502, 305, 255, 112, 93, 118
269258820, -5901, 13543, -5817, 4045, 2790, -1219, -2016, 607, -795, 996, 119, 286, 502, 305, 255, 112, 93, 118
269263831, -5901, 13543, -5817, 4045, 2790, -1219, -2016, 607, -795, 996, 119, 286, 502, 305, 255, 112, 93, 118
269264783, -5935, 13535, -5772, 4086, 2672, -1303, -1967, 718, -702, 803, 119, 286, 502, 305, 255, 112, 93, 118
269265629, -5935, 13535, -5772, 4086, 2672, -1303, -1967, 718, -702, 803, 167, 429, 744, 430, 263, 127, 104, 128
269266436, -5935, 13535, -5772, 4086, 2672, -1303, -1967, 718, -702, 803, 167, 429, 744, 430, 263, 127, 104, 128
269271417, -5935, 13535, -5772, 4086, 2672, -1303, -1967, 718, -702, 803, 167, 429, 744, 430, 263, 127, 104, 128
269272253, -5935, 13535, -5772, 4086, 2672, -1303, -1967, 718, -702, 803, 167, 429, 744, 430, 263, 127, 104, 128
269273058, -5935, 13535, -5772, 4086, 2672, -1303, -1967, 718, -702, 803, 167, 429, 744, 430, 263, 127, 104, 128
269273856, -5935, 13535, -5772, 4086, 2672, -1303, -1967, 718, -702, 803, 167, 429, 744, 430, 263, 127, 104, 128
269278828, -5935, 13535, -5772, 4086, 2672, -1303, -1967, 718, -702, 803, 167, 429, 744, 430, 263, 127, 104, 128
269279644, -5935, 13535, -5772, 4086, 2672, -1303, -1967, 718, -702, 803, 167, 429, 744, 430, 263, 127, 104, 128
269280464, -5935, 13535, -5772, 4086, 2672, -1303, -1967, 718, -702, 803, 167, 429, 744, 430, 263, 127, 104, 128
269281257, -5935, 13535, -5772, 4086, 2672, -1303, -1967, 718, -702, 803, 167, 429, 744, 430, 263, 127, 104, 128
269286396, -5935, 13535, -5772, 4086, 2672, -1303, -1967, 718, -702, 803, 167, 429, 744, 430, 263, 127, 104, 128
269287312, -6004, 13523, -5689, 4142, 2566, -1396, -1989, 961, -714, 598, 167, 429, 744, 430, 263, 127, 104, 128
269288162, -6004, 13523, -5689, 4142, 2566, -1396, -1989, 961, -714, 598, 212, 529, 886, 493, 284, 136, 116, 149
269288948, -6004, 13523, -5689, 4142, 2566, -1396, -1989, 961, -714, 598, 212, 529, 886, 493, 284, 136, 116, 149
269293957, -6004, 13523, -5689, 4142, 2566, -1396, -1989, 961, -714, 598, 212, 529, 886, 493, 284, 136, 116, 149
269294759, -6004, 13523, -5689, 4142, 2566, -1396, -1989, 961, -714, 598, 212, 529, 886, 493, 284, 136, 116, 149
269295634, -6004, 13523, -5689, 4142, 2566, -1396, -1989, 961, -714, 598, 212, 529, 886, 493, 284, 136, 116, 149
269296393, -6004, 13523, -5689, 4142, 2566, -1396, -1989, 961, -714, 598, 212, 529, 886, 493, 284, 136, 116, 149
269301329, -6004, 13523, -5689, 4142, 2566, -1396, -1989, 961, -714, 598, 212, 529, 886, 493, 284, 136, 116, 149
269302182, -6004, 13523, -5689, 4142, 2566, -1396, -1989, 961, -714, 598, 212, 529, 886, 493, 284, 136, 116, 149
269302961, -6004, 13523, -5689, 4142, 2566, -1396, -1989, 961, -714, 598, 212, 529, 886, 493, 284, 136, 116, 149
269303811, -6004, 13523, -5689, 4142, 2566, -1396, -1989, 961, -714, 598, 212, 529, 886, 493, 284, 136, 116, 149
269308863, -6004, 13523, -5689, 4142, 2566, -1396, -1989, 961, -714, 598, 212, 529, 886, 493, 284, 136, 116, 149
269309785, -6141, 13482, -5569, 4234, 2469, -1661, -1904, 1359, -666, 455, 212, 529, 886, 493, 284, 136, 116, 149
269310634, -6141, 13482, -5569, 4234, 2469, -1661, -1904, 1359, -666, 455, 271, 651, 1084, 568, 325, 155, 141, 210
269311400, -6141, 13482, -5569, 4234, 2469, -1661, -1904, 1359, -666, 455, 271, 651, 1084, 568, 325, 155, 141, 210
269316429, -6141, 13482, -5569, 4234, 2469, -1661, -1904, 1359, -666, 455, 271, 651, 1084, 568, 325, 155, 141, 210
269317242, -6141, 13482, -5569, 4234, 2469, -1661, -1904, 1359, -666, 455, 271, 651, 1084, 568, 325, 155, 141, 210
269318057, -6141, 13482, -5569, 4234, 2469, -1661, -1904, 1359, -666, 455, 271, 651, 1084, 568, 325, 155, 141, 210
269318907, -6141, 13482, -5569, 4234, 2469, -1661, -1904, 1359, -666, 455, 271, 651, 1084, 568, 325, 155, 141, 210
269323834, -6141, 13482, -5569, 4234, 2469, -1661, -1904, 1359, -666, 455, 271, 651, 1084, 568, 325, 155, 141, 210
269324633, -6141, 13482, -5569, 4234, 2469, -1661, -1904, 1359, -666, 455, 271, 651, 1084, 568, 325, 155, 141, 210
269325461, -6141, 13482, -5569, 4234, 2469, -1661, -1904, 1359, -666, 455, 271, 651, 1084, 568, 325, 155, 141, 210
269326247, -6141, 13482, -5569, 4234, 2469, -1661, -1904, 1359, -666, 455, 271, 651, 1084, 568, 325, 155, 141, 210
269331307, -6141, 13482, -5569, 4234, 2469, -1661, -1904, 1359, -666, 455, 271, 651, 1084, 568, 325, 155, 141, 210
269332233, -6451, 13369, -5459, 4275, 2469, -1512, -1833, 1989, -620, 305, 271, 651, 1084, 568, 325, 155, 141, 210
269333056, -6451, 13369, -5459, 4275, 2469, -1512, -1833, 1989, -620, 305, 315, 813, 1249, 704, 309, 157, 145, 224
269333893, -6451, 13369, -5459, 4275, 2469, -1512, -1833, 1989, -620, 305, 315, 813, 1249, 704, 309, 157, 145, 224
269338948, -6451, 13369, -5459, 4275, 2469, -1512, -1833, 1989, -620, 305, 315, 813, 1249, 704, 309, 157, 145, 224
269339709, -6451, 13369, -5459, 4275, 2469, -1512, -1833, 1989, -620, 305, 315, 813, 1249, 704, 309, 157, 145, 224
269340536, -6451, 13369, -5459, 4275, 2469, -1512, -1833, 1989, -620, 305, 315, 813, 1249, 704, 309, 157, 145, 224
269341365, -6451, 13369, -5459, 4275, 2469, -1512, -1833, 1989, -620, 305, 315, 813, 1249, 704, 309, 157, 145, 224
269346306, -6451, 13369, -5459, 4275, 2469, -1512, -1833, 1989, -620, 305, 315, 813, 1249, 704, 309, 157, 145, 224
269347147, -6451, 13369, -5459, 4275, 2469, -1512, -1833, 1989, -620, 305, 315, 813, 1249, 704, 309, 157, 145, 224
269347931, -6451, 13369, -5459, 4275, 2469, -1512, -1833, 1989, -620, 305, 315, 813, 1249, 704, 309, 157, 145, 224
269348758, -6451, 13369, -5459, 4275, 2469, -1512, -1833, 1989, -620, 305, 315, 813, 1249, 704, 309, 157, 145, 224
269353857, -6451, 13369, -5459, 4275, 2469, -1512, -1833, 1989, -620, 305, 315, 813, 1249, 704, 309, 157, 145, 224
269354831, -6755, 13253, -5331, 4330, 2357, -1430, -1822, 2040, -559, 190, 315, 813, 1249, 704, 309, 157, 145, 224
269355631, -6755, 13253, -5331, 4330, 2357, -1430, -1822, 2040, -559, 190, 393, 942, 1385, 729, 324, 184, 187, 305
269356418, -6755, 13253, -5331, 4330, 2357, -1430, -1822, 2040, -559, 190, 393, 942, 1385, 729, 324, 184, 187, 305
269361415, -6755, 13253, -5331, 4330, 2357, -1430, -1822, 2040, -559, 190, 393, 942, 1385, 729, 324, 184, 187, 305
269362232, -6755, 13253, -5331, 4330, 2357, -1430, -1822, 2040, -559, 190, 393, 942, 1385, 729, 324, 184, 187, 305
269363056, -6755, 13253, -5331, 4330, 2357, -1430, -1822, 2040, -559, 190, 393, 942, 1385, 729, 324, 184, 187, 305
269363856, -6755, 13253, -5331, 4330, 2357, -1430, -1822, 2040, -559, 190, 393, 942, 1385, 729, 324, 184, 187, 305
269366630, -6755, 13253, -5331, 4330, 2357, -1430, -1822, 2040, -559, 190, 393, 942, 1385, 729, 324, 184, 187, 305
269376330, -6755, 13253, -5331, 4330, 2357, -1430, -1822, 2040, -559, 190, 393, 942, 1385, 729, 324, 184, 187, 305
269377178, -6755, 13253, -5331, 4330, 2357, -1430, -1822, 2040, -559, 190, 393, 942, 1385, 729, 324, 184, 187, 305
269377959, -6755, 13253, -5331, 4330, 2357, -1430, -1822, 2040, -559, 190, 393, 942, 1385, 729, 324, 184, 187, 305
269378805, -6755, 13253, -5331, 4330, 2357, -1430, -1822, 2040, -559, 190, 393, 942, 1385, 729, 324, 184, 187, 305
269383973, -7057, 13128, -5204, 4381, 2305, -1591, -1775, 2033, -547, 213, 393, 942, 1385, 729, 324, 184, 187, 305
269384822, -7057, 13128, -5204, 4381, 2305, -1591, -1775, 2033, -547, 213, 397, 945, 1289, 672, 323, 181, 194, 340
269385653, -7057, 13128, -5204, 4381, 2305, -1591, -1775, 2033, -547, 213, 397, 945, 1289, 672, 323, 181, 194, 340
269386432, -7057, 13128, -5204, 4381, 2305, -1591, -1775, 2033, -547, 213, 397, 945, 1289, 672, 323, 181, 194, 340
269391306, -7057, 13128, -5204, 4381, 2305, -1591, -1775, 2033, -547, 213, 397, 945, 1289, 672, 323, 181, 194, 340
269392136, -7057, 13128, -5204, 4381, 2305, -1591, -1775, 2033, -547, 213, 397, 945, 1289, 672, 323, 181, 194, 340
269392930, -7057, 13128, -5204, 4381, 2305, -1591, -1775, 2033, -547, 213, 397, 945, 1289, 672, 323, 181, 194, 340
269393797, -7057, 13128, -5204, 4381, 2305, -1591, -1775, 2033, -547, 213, 397, 945, 1289, 672, 323, 181, 194, 340
269398929, -7057, 13128, -5204, 4381, 2305, -1591, -1775, 2033, -547, 213, 397, 945, 1289, 672, 323, 181, 194, 340
269399850, -7357, 12999, -5070, 4429, 2350, -1659, -1699, 2045, -560, 210, 397, 945, 1289, 672, 323, 181, 194, 340
269400632, -7357, 12999, -5070, 4429, 2350, -1659, -1699, 2045, -560, 210, 382, 912, 1200, 638, 312, 180, 192, 339
269401458, -7357, 12999, -5070, 4429, 2350, -1659, -1699, 2045, -560, 210, 382, 912, 1200, 638, 312, 180, 192, 339
269406457, -7357, 12999, -5070, 4429, 2350, -1659, -1699, 2045, -560, 210, 382, 912, 1200, 638, 312, 180, 192, 339
269407297, -7357, 12999, -5070, 4429, 2350, -1659, -1699, 2045, -560, 210, 382, 912, 1200, 638, 312, 180, 192, 339
269408081, -7357, 12999, -5070, 4429, 2350, -1659, -1699, 2045, -560, 210, 382, 912, 1200, 638, 312, 180, 192, 339
269408923, -7357, 12999, -5070, 4429, 2350, -1659, -1699, 2045, -560, 210, 382, 912, 1200, 638, 312, 180, 192, 339
269413923, -7357, 12999, -5070, 4429, 2350, -1659, -1699, 2045, -560, 210, 382, 912, 1200, 638, 312, 180, 192, 339
269414686, -7357, 12999, -5070, 4429, 2350, -1659, -1699, 2045, -560, 210, 382, 912, 1200, 638, 312, 180, 192, 339
269415476, -7357, 12999, -5070, 4429, 2350, -1659, -1699, 2045, -560, 210, 382, 912, 1200, 638, 312, 180, 192, 339
269416309, -7357, 12999, -5070, 4429, 2350, -1659, -1699, 2045, -560, 210, 382, 912, 1200, 638, 312, 180, 192, 339
269421358, -7357, 12999, -5070, 4429, 2350, -1659, -1699, 2045, -560, 210, 382, 912, 1200, 638, 312, 180, 192, 339
269422326, -7645, 12870, -4926, 4482, 2280, -1537, -1738, 2032, -528, 131, 382, 912, 1200, 638, 312, 180, 192, 339
269423110, -7645, 12870, -4926, 4482, 2280, -1537, -1738, 2032, -528, 131, 352, 844, 1052, 598, 263, 164, 177, 306
269423909, -7645, 12870, -4926, 4482, 2280, -1537, -1738, 2032, -528, 131, 352, 844, 1052, 598, 263, 164, 177, 306
269428933, -7645, 12870, -4926, 4482, 2280, -1537, -1738, 2032, -528, 131, 352, 844, 1052, 598, 263, 164, 177, 306
269429731, -7645, 12870, -4926, 4482, 2280, -1537, -1738, 2032, -528, 131, 352, 844, 1052, 598, 263, 164, 177, 306
269430635, -7645, 12870, -4926, 4482, 2280, -1537, -1738, 2032, -528, 131, 352, 844, 1052, 598, 263, 164, 177, 306
269431346, -7645, 12870, -4926, 4482, 2280, -1537, -1738, 2032, -528, 131, 352, 844, 1052, 598, 263, 164, 177, 306
269436325, -7645, 12870, -4926, 4482, 2280, -1537, -1738, 2032, -528, 131, 352, 844, 1052, 598, 263, 164, 177, 306
269437129, -7645, 12870, -4926, 4482, 2280, -1537, -1738, 2032, -528, 131, 352, 844, 1052, 598, 263, 164, 177, 306
269437996, -7645, 12870, -4926, 4482, 2280, -1537, -1738, 2032, -528, 131, 352, 844, 1052, 598, 263, 164, 177, 306
269438757, -7645, 12870, -4926, 4482, 2280, -1537, -1738, 2032, -528, 131, 352, 844, 1052, 598, 263, 164, 177, 306
269443840, -7645, 12870, -4926, 4482, 2280, -1537, -1738, 2032, -528, 131, 352, 844, 1052, 598, 263, 164, 177, 306
269444739, -7928, 12735, -4744, 4571, 2310, -1191, -1816, 2191, -442, -116, 352, 844, 1052, 598, 263, 164, 177, 306
269445606, -7928, 12735, -4744, 4571, 2310, -1191, -1816, 2191, -442, -116, 355, 735, 1030, 498, 260, 160, 188, 358
269446359, -7928, 12735, -4744, 4571, 2310, -1191, -1816, 2191, -442, -116, 355, 735, 1030, 498, 260, 160, 188, 358
269451424, -7928, 12735, -4744, 4571, 2310, -1191, -1816, 2191, -442, -116, 355, 735, 1030, 498, 260, 160, 188, 358
269452210, -7928, 12735, -4744, 4571, 2310, -1191, -1816, 2191, -442, -116, 355, 735, 1030, 498, 260, 160, 188, 358
269453049, -7928, 12735, -4744, 4571, 2310, -1191, -1816, 2191, -442, -116, 355, 735, 1030, 498, 260, 160, 188, 358
269453857, -7928, 12735, -4744, 4571, 2310, -1191, -1816, 2191, -442, -116, 355, 735, 1030, 498, 260, 160, 188, 358
269458819, -7928, 12735, -4744, 4571, 2310, -1191, -1816, 2191, -442, -116, 355, 735, 1030, 498, 260, 160, 188, 358
269459618, -7928, 12735, -4744, 4571, 2310, -1191, -1816, 2191, -442, -116, 355, 735, 1030, 498, 260, 160, 188, 358
269460410, -7928, 12735, -4744, 4571, 2310, -1191, -1816, 2191, -442, -116, 355, 735, 1030, 498, 260, 160, 188, 358
269461206, -7928, 12735, -4744, 4571, 2310, -1191, -1816, 2191, -442, -116, 355, 735, 1030, 498, 260, 160, 188, 358
269466359, -7928, 12735, -4744, 4571, 2310, -1191, -1816, 2191, -442, -116, 355, 735, 1030, 498, 260, 160, 188, 358
269467349, -8146, 12618, -4578, 4680, 2226, -1157, -1555, 1838, -220, -235, 355, 735, 1030, 498, 260, 160, 188, 358
269468128, -8146, 12618, -4578, 4680, 2226, -1157, -1555, 1838, -220, -235, 289, 589, 881, 452, 244, 116, 152, 411
269468954, -8146, 12618, -4578, 4680, 2226, -1157, -1555, 1838, -220, -235, 289, 589, 881, 452, 244, 116, 152, 411
269473932, -8146, 12618, -4578, 4680, 2226, -1157, -1555, 1838, -220, -235, 289, 589, 881, 452, 244, 116, 152, 411
269474797, -8146, 12618, -4578, 4680, 2226, -1157, -1555, 1838, -220, -235, 289, 589, 881, 452, 244, 116, 152, 411
269475654, -8146, 12618, -4578, 4680, 2226, -1157, -1555, 1838, -220, -235, 289, 589, 881, 452, 244, 116, 152, 411
269476375, -8146, 12618, -4578, 4680, 2226, -1157, -1555, 1838, -220, -235, 289, 589, 881, 452, 244, 116, 152, 411
269481332, -8146, 12618, -4578, 4680, 2226, -1157, -1555, 1838, -220, -235, 289, 589, 881, 452, 244, 116, 152, 411
269482198, -8146, 12618, -4578, 4680, 2226, -1157, -1555, 1838, -220, -235, 289, 589, 881, 452, 244, 116, 152, 411
269482977, -8146, 12618, -4578, 4680, 2226, -1157, -1555, 1838, -220, -235, 289, 589, 881, 452, 244, 116, 152, 411
269483810, -8146, 12618, -4578, 4680, 2226, -1157, -1555, 1838, -220, -235, 289, 589, 881, 452, 244, 116, 152, 411
269488832, -8146, 12618, -4578, 4680, 2226, -1157, -1555, 1838, -220, -235, 289, 589, 881, 452, 244, 116, 152, 411
269489803, -8224, 12573, -4406, 4827, 2173, -1538, -1420, 1417, -158, 3, 289, 589, 881, 452, 244, 116, 152, 411
269490623, -8224, 12573, -4406, 4827, 2173, -1538, -1420, 1417, -158, 3, 297, 538, 926, 509, 278, 134, 159, 437
269491426, -8224, 12573, -4406, 4827, 2173, -1538, -1420, 1417, -158, 3, 297, 538, 926, 509, 278, 134, 159, 437
269496452, -8224, 12573, -4406, 4827, 2173, -1538, -1420, 1417, -158, 3, 297, 538, 926, 509, 278, 134, 159, 437
269497221, -8224, 12573, -4406, 4827, 2173, -1538, -1420, 1417, -158, 3, 297, 538, 926, 509, 278, 134, 159, 437
269498076, -8224, 12573, -4406, 4827, 2173, -1538, -1420, 1417, -158, 3, 297, 538, 926, 509, 278, 134, 159, 437
269498877, -8224, 12573, -4406, 4827, 2173, -1538, -1420, 1417, -158, 3, 297, 538, 926, 509, 278, 134, 159, 437
269503815, -8224, 12573, -4406, 4827, 2173, -1538, -1420, 1417, -158, 3, 297, 538, 926, 509, 278, 134, 159, 437
269504632, -8224, 12573, -4406, 4827, 2173, -1538, -1420, 1417, -158, 3, 297, 538, 926, 509, 278, 134, 159, 437
269505464, -8224, 12573, -4406, 4827, 2173, -1538, -1420, 1417, -158, 3, 297, 538, 926, 509, 278, 134, 159, 437
269506280, -8224, 12573, -4406, 4827, 2173, -1538, -1420, 1417, -158, 3, 297, 538, 926, 509, 278, 134, 159, 437
269511359, -8224, 12573, -4406, 4827, 2173, -1538, -1420, 1417, -158, 3, 297, 538, 926, 509, 278, 134, 159, 437
269512258, -8284, 12538, -4240, 4963, 2273, -1358, -1384, 1314, -154, 69, 297, 538, 926, 509, 278, 134, 159, 437
269513084, -8284, 12538, -4240, 4963, 2273, -1358, -1384, 1314, -154, 69, 340, 659, 924, 541, 271, 129, 158, 451
269513883, -8284, 12538, -4240, 4963, 2273, -1358, -1384, 1314, -154, 69, 340, 659, 924, 541, 271, 129, 158, 451
269518879, -8284, 12538, -4240, 4963, 2273, -1358, -1384, 1314, -154, 69, 340, 659, 924, 541, 271, 129, 158, 451
269519747, -8284, 12538, -4240, 4963, 2273, -1358, -1384, 1314, -154, 69, 340, 659, 924, 541, 271, 129, 158, 451
269520535, -8284, 12538, -4240, 4963, 2273, -1358, -1384, 1314, -154, 69, 340, 659, 924, 541, 271, 129, 158, 451
269521359, -8284, 12538, -4240, 4963, 2273, -1358, -1384, 1314, -154, 69, 340, 659, 924, 541, 271, 129, 158, 451
269526355, -8284, 12538, -4240, 4963, 2273, -1358, -1384, 1314, -154, 69, 340, 659, 924, 541, 271, 129, 158, 451
269527149, -8284, 12538, -4240, 4963, 2273, -1358, -1384, 1314, -154, 69, 340, 659, 924, 541, 271, 129, 158, 451
269527957, -8284, 12538, -4240, 4963, 2273, -1358, -1384, 1314, -154, 69, 340, 659, 924, 541, 271, 129, 158, 451
269528756, -8284, 12538, -4240, 4963, 2273, -1358, -1384, 1314, -154, 69, 340, 659, 924, 541, 271, 129, 158, 451
269533831, -8284, 12538, -4240, 4963, 2273, -1358, -1384, 1314, -154, 69, 340, 659, 924, 541, 271, 129, 158, 451
269534808, -8308, 12520, -4082, 5099, 2249, -1230, -1333, 1102, -83, 4, 340, 659, 924, 541, 271, 129, 158, 451
269535632, -8308, 12520, -4082, 5099, 2249, -1230, -1333, 1102, -83, 4, 365, 688, 961, 601, 272, 135, 171, 522
269536463, -8308, 12520, -4082, 5099, 2249, -1230, -1333, 1102, -83, 4, 365, 688, 961, 601, 272, 135, 171, 522
269541431, -8308, 12520, -4082, 5099, 2249, -1230, -1333, 1102, -83, 4, 365, 688, 961, 601, 272, 135, 171, 522
269542232, -8308, 12520, -4082, 5099, 2249, -1230, -1333, 1102, -83, 4, 365, 688, 961, 601, 272, 135, 171, 522
269543059, -8308, 12520, -4082, 5099, 2249, -1230, -1333, 1102, -83, 4, 365, 688, 961, 601, 272, 135, 171, 522
269543891, -8308, 12520, -4082, 5099, 2249, -1230, -1333, 1102, -83, 4, 365, 688, 961, 601, 272, 135, 171, 522
269548832, -8308, 12520, -4082, 5099, 2249, -1230, -1333, 1102, -83, 4, 365, 688, 961, 601, 272, 135, 171, 522
269549661, -8308, 12520, -4082, 5099, 2249, -1230, -1333, 1102, -83, 4, 365, 688, 961, 601, 272, 135, 171, 522
269550460, -8308, 12520, -4082, 5099, 2249, -1230, -1333, 1102, -83, 4, 365, 688, 961, 601, 272, 135, 171, 522
269551297, -8308, 12520, -4082, 5099, 2249, -1230, -1333, 1102, -83, 4, 365, 688, 961, 601, 272, 135, 171, 522
269556412, -8308, 12520, -4082, 5099, 2249, -1230, -1333, 1102, -83, 4, 365, 688, 961, 601, 272, 135, 171, 522
269557292, -8307, 12515, -3959, 5209, 2141, -1369, -1231, 794, -47, 78, 365, 688, 961, 601, 272, 135, 171, 522
269558096, -8307, 12515, -3959, 5209, 2141, -1369, -1231, 794, -47, 78, 432, 725, 816, 650, 284, 152, 182, 515
269558912, -8307, 12515, -3959, 5209, 2141, -1369, -1231, 794, -47, 78, 432, 725, 816, 650, 284, 152, 182, 515
269563909, -8307, 12515, -3959, 5209, 2141, -1369, -1231, 794, -47, 78, 432, 725, 816, 650, 284, 152, 182, 515
269564733, -8307, 12515, -3959, 5209, 2141, -1369, -1231, 794, -47, 78, 432, 725, 816, 650, 284, 152, 182, 515
269565526, -8307, 12515, -3959, 5209, 2141, -1369, -1231, 794, -47, 78, 432, 725, 816, 650, 284, 152, 182, 515
269566332, -8307, 12515, -3959, 5209, 2141, -1369, -1231, 794, -47, 78, 432, 725, 816, 650, 284, 152, 182, 515
269571307, -8307, 12515, -3959, 5209, 2141, -1369, -1231, 794, -47, 78, 432, 725, 816, 650, 284, 152, 182, 515
269572119, -8307, 12515, -3959, 5209, 2141, -1369, -1231, 794, -47, 78, 432, 725, 816, 650, 284, 152, 182, 515
269572930, -8307, 12515, -3959, 5209, 2141, -1369, -1231, 794, -47, 78, 432, 725, 816, 650, 284, 152, 182, 515
269573783, -8307, 12515, -3959, 5209, 2141, -1369, -1231, 794, -47, 78, 432, 725, 816, 650, 284, 152, 182, 515
269578806, -8307, 12515, -3959, 5209, 2141, -1369, -1231, 794, -47, 78, 432, 725, 816, 650, 284, 152, 182, 515
269579774, -8302, 12517, -3855, 5289, 2134, -1457, -1218, 665, -112, 201, 432, 725, 816, 650, 284, 152, 182, 515
269580631, -8302, 12517, -3855, 5289, 2134, -1457, -1218, 665, -112, 201, 416, 738, 777, 693, 285, 155, 170, 443
269581302, -8302, 12517, -3855, 5289, 2134, -1457, -1218, 665, -112, 201, 416, 738, 777, 693, 285, 155, 170, 443
269586357, -8302, 12517, -3855, 5289, 2134, -1457, -1218, 665, -112, 201, 416, 738, 777, 693, 285, 155, 170, 443
269587181, -8302, 12517, -3855, 5289, 2134, -1457, -1218, 665, -112, 201, 416, 738, 777, 693, 285, 155, 170, 443
269587981, -8302, 12517, -3855, 5289, 2134, -1457, -1218, 665, -112, 201, 416, 738, 777, 693, 285, 155, 170, 443
269588814, -8302, 12517, -3855, 5289, 2134, -1457, -1218, 665, -112, 201, 416, 738, 777, 693, 285, 155, 170, 443
269593825, -8302, 12517, -3855, 5289, 2134, -1457, -1218, 665, -112, 201, 416, 738, 777, 693, 285, 155, 170, 443
269594653, -8302, 12517, -3855, 5289, 2134, -1457, -1218, 665, -112, 201, 416, 738, 777, 693, 285, 155, 170, 443
269595459, -8302, 12517, -3855, 5289, 2134, -1457, -1218, 665, -112, 201, 416, 738, 777, 693, 285, 155, 170, 443
269596323, -8302, 12517, -3855, 5289, 2134, -1457, -1218, 665, -112, 201, 416, 738, 777, 693, 285, 155, 170, 443
269601357, -8302, 12517, -3855, 5289, 2134, -1457, -1218, 665, -112, 201, 416, 738, 777, 693, 285, 155, 170, 443
269602306, -8276, 12538, -3764, 5346, 2131, -1383, -1240, 485, -165, 254, 416, 738, 777, 693, 285, 155, 170, 443
269603108, -8236, 12564, -3684, 5401, 2108, -1356, -1271, 409, -116, 255, 416, 738, 777, 693, 285, 155, 170, 443
269603972, -8236, 12564, -3684, 5401, 2108, -1356, -1271, 409, -116, 255, 421, 771, 774, 730, 358, 170, 177, 412
269608931, -8236, 12564, -3684, 5401, 2108, -1356, -1271, 409, -116, 255, 421, 771, 774, 730, 358, 170, 177, 412
269609783, -8236, 12564, -3684, 5401, 2108, -1356, -1271, 409, -116, 255, 421, 771, 774, 730, 358, 170, 177, 412
269610632, -8236, 12564, -3684, 5401, 2108, -1356, -1271, 409, -116, 255, 421, 771, 774, 730, 358, 170, 177, 412
269611361, -8236, 12564, -3684, 5401, 2108, -1356, -1271, 409, -116, 255, 421, 771, 774, 730, 358, 170, 177, 412
269616331, -8236, 12564, -3684, 5401, 2108, -1356, -1271, 409, -116, 255, 421, 771, 774, 730, 358, 170, 177, 412
269617172, -8236, 12564, -3684, 5401, 2108, -1356, -1271, 409, -116, 255, 421, 771, 774, 730, 358, 170, 177, 412
269617956, -8236, 12564, -3684, 5401, 2108, -1356, -1271, 409, -116, 255, 421, 771, 774, 730, 358, 170, 177, 412
269618823, -8236, 12564, -3684, 5401, 2108, -1356, -1271, 409, -116, 255, 421, 771, 774, 730, 358, 170, 177, 412
269623832, -8236, 12564, -3684, 5401, 2108, -1356, -1271, 409, -116, 255, 421, 771, 774, 730, 358, 170, 177, 412
269624806, -8151, 12611, -3628, 5460, 2119, -1189, -1301, 146, -7, 251, 421, 771, 774, 730, 358, 170, 177, 412
269625633, -8151, 12611, -3628, 5460, 2119, -1189, -1301, 146, -7, 251, 409, 736, 787, 717, 398, 178, 178, 396
269626436, -8151, 12611, -3628, 5460, 2119, -1189, -1301, 146, -7, 251, 409, 736, 787, 717, 398, 178, 178, 396
269631407, -8151, 12611, -3628, 5460, 2119, -1189, -1301, 146, -7, 251, 409, 736, 787, 717, 398, 178, 178, 396
269632260, -8151, 12611, -3628, 5460, 2119, -1189, -1301, 146, -7, 251, 409, 736, 787, 717, 398, 178, 178, 396
269633059, -8151, 12611, -3628, 5460, 2119, -1189, -1301, 146, -7, 251, 409, 736, 787, 717, 398, 178, 178, 396
269633866, -8151, 12611, -3628, 5460, 2119, -1189, -1301, 146, -7, 251, 409, 736, 787, 717, 398, 178, 178, 396
269638808, -8151, 12611, -3628, 5460, 2119, -1189, -1301, 146, -7, 251, 409, 736, 787, 717, 398, 178, 178, 396
269639645, -8151, 12611, -3628, 5460, 2119, -1189, -1301, 146, -7, 251, 409, 736, 787, 717, 398, 178, 178, 396
269640435, -8151, 12611, -3628, 5460, 2119, -1189, -1301, 146, -7, 251, 409, 736, 787, 717, 398, 178, 178, 396
269641298, -8151, 12611, -3628, 5460, 2119, -1189, -1301, 146, -7, 251, 409, 736, 787, 717, 398, 178, 178, 396
269646336, -8151, 12611, -3628, 5460, 2119, -1189, -1301, 146, -7, 251, 409, 736, 787, 717, 398, 178, 178, 396
269647298, -8015, 12686, -3618, 5492, 2069, -1165, -1321, -268, 24, 358, 409, 736, 787, 717, 398, 178, 178, 396
269648103, -8015, 12686, -3618, 5492, 2069, -1165, -1321, -268, 24, 358, 384, 698, 817, 710, 398, 175, 162, 300
269648903, -8015, 12686, -3618, 5492, 2069, -1165, -1321, -268, 24, 358, 384, 698, 817, 710, 398, 175, 162, 300
269653896, -8015, 12686, -3618, 5492, 2069, -1165, -1321, -268, 24, 358, 384, 698, 817, 710, 398, 175, 162, 300
269654730, -8015, 12686, -3618, 5492, 2069, -1165, -1321, -268, 24, 358, 384, 698, 817, 710, 398, 175, 162, 300
269655509, -8015, 12686, -3618, 5492, 2069, -1165, -1321, -268, 24, 358, 384, 698, 817, 710, 398, 175, 162, 300
269656379, -8015, 12686, -3618, 5492, 2069, -1165, -1321, -268, 24, 358, 384, 698, 817, 710, 398, 175, 162, 300
269661303, -8015, 12686, -3618, 5492, 2069, -1165, -1321, -268, 24, 358, 384, 698, 817, 710, 398, 175, 162, 300
269662134, -8015, 12686, -3618, 5492, 2069, -1165, -1321, -268, 24, 358, 384, 698, 817, 710, 398, 175, 162, 300
269662906, -8015, 12686, -3618, 5492, 2069, -1165, -1321, -268, 24, 358, 384, 698, 817, 710, 398, 175, 162, 300
269663772, -8015, 12686, -3618, 5492, 2069, -1165, -1321, -268, 24, 358, 384, 698, 817, 710, 398, 175, 162, 300
269668807, -8015, 12686, -3618, 5492, 2069, -1165, -1321, -268, 24, 358, 384, 698, 817, 710, 398, 175, 162, 300
269669774, -8015, 12686, -3618, 5492, 2069, -1165, -1321, -268, 24, 358, 262, 617, 824, 667, 453, 174, 134, 244
269670534, -8015, 12686, -3618, 5492, 2069, -1165, -1321, -268, 24, 358, 262, 617, 824, 667, 453, 174, 134, 244
269671397, -8015, 12686, -3618, 5492, 2069, -1165, -1321, -268, 24, 358, 262, 617, 824, 667, 453, 174, 134, 244
269676385, -8015, 12686, -3618, 5492, 2069, -1165, -1321, -268, 24, 358, 262, 617, 824, 667, 453, 174, 134, 244
269677214, -8015, 12686, -3618, 5492, 2069, -1165, -1321, -268, 24, 358, 262, 617, 824, 667, 453, 174, 134, 244
269678033, -8015, 12686, -3618, 5492, 2069, -1165, -1321, -268, 24, 358, 262, 617, 824, 667, 453, 174, 134, 244
269678843, -8015, 12686, -3618, 5492, 2069, -1165, -1321, -268, 24, 358, 262, 617, 824, 667, 453, 174, 134, 244
269683833, -8015, 12686, -3618, 5492, 2069, -1165, -1321, -268, 24, 358, 262, 617, 824, 667, 453, 174, 134, 244
269684631, -8015, 12686, -3618, 5492, 2069, -1165, -1321, -268, 24, 358, 262, 617, 824, 667, 453, 174, 134, 244
269685476, -8015, 12686, -3618, 5492, 2069, -1165, -1321, -268, 24, 358, 262, 617, 824, 667, 453, 174, 134, 244
269686278, -8015, 12686, -3618, 5492, 2069, -1165, -1321, -268, 24, 358, 262, 617, 824, 667, 453, 174, 134, 244
269691351, -8015, 12686, -3618, 5492, 2069, -1165, -1321, -268, 24, 358, 262, 617, 824, 667, 453, 174, 134, 244
269692241, -7753, 12825, -3675, 5506, 2313, -928, -1379, -1093, 118, 521, 262, 617, 824, 667, 453, 174, 134, 244
269693049, -7753, 12825, -3675, 5506, 2313, -928, -1379, -1093, 118, 521, 259, 579, 923, 694, 538, 201, 145, 217
269693882, -7753, 12825, -3675, 5506, 2313, -928, -1379, -1093, 118, 521, 262, 617, 824, 667, 453, 174, 134, 244
269698883, -7753, 12825, -3675, 5506, 2313, -928, -1379, -1093, 118, 521, 259, 579, 923, 694, 538, 201, 145, 217
269699698, -7753, 12825, -3675, 5506, 2313, -928, -1379, -1093, 118, 521, 259, 579, 923, 694, 538, 201, 145, 217
269700510, -7753, 12825, -3675, 5506, 2313, -928, -1379, -1093, 118, 521, 259, 579, 923, 694, 538, 201, 145, 217
269701307, -7753, 12825, -3675, 5506, 2313, -928, -1379, -1093, 118, 521, 259, 579, 923, 694, 538, 201, 145, 217
269706283, -7753, 12825, -3675, 5506, 2313, -928, -1379, -1093, 118, 521, 259, 579, 923, 694, 538, 201, 145, 217
269707134, -7753, 12825, -3675, 5506, 2313, -928, -1379, -1093, 118, 521, 259, 579, 923, 694, 538, 201, 145, 217
269707906, -7753, 12825, -3675, 5506, 2313, -928, -1379, -1093, 118, 521, 259, 579, 923, 694, 538, 201, 145, 217
269708772, -7753, 12825, -3675, 5506, 2313, -928, -1379, -1093, 118, 521, 259, 579, 923, 694, 538, 201, 145, 217
269713856, -7753, 12825, -3675, 5506, 2313, -928, -1379, -1093, 118, 521, 259, 579, 923, 694, 538, 201, 145, 217
269714803, -7471, 12981, -3863, 5402, 2117, -787, -1823, -1955, 75, 592, 259, 579, 923, 694, 538, 201, 145, 217
269715633, -7471, 12981, -3863, 5402, 2117, -787, -1823, -1955, 75, 592, 218, 525, 999, 693, 523, 198, 123, 169
269716411, -7471, 12981, -3863, 5402, 2117, -787, -1823, -1955, 75, 592, 218, 525, 999, 693, 523, 198, 123, 169
269721423, -7471, 12981, -3863, 5402, 2117, -787, -1823, -1955, 75, 592, 218, 525, 999, 693, 523, 198, 123, 169
269722232, -7471, 12981, -3863, 5402, 2117, -787, -1823, -1955, 75, 592, 218, 525, 999, 693, 523, 198, 123, 169
269723031, -7471, 12981, -3863, 5402, 2117, -787, -1823, -1955, 75, 592, 218, 525, 999, 693, 523, 198, 123, 169
269723878, -7471, 12981, -3863, 5402, 2117, -787, -1823, -1955, 75, 592, 218, 525, 999, 693, 523, 198, 123, 169
269728831, -7471, 12981, -3863, 5402, 2117, -787, -1823, -1955, 75, 592, 218, 525, 999, 693, 523, 198, 123, 169
269729661, -7471, 12981, -3863, 5402, 2117, -787, -1823, -1955, 75, 592, 218, 525, 999, 693, 523, 198, 123, 169
269730460, -7471, 12981, -3863, 5402, 2117, -787, -1823, -1955, 75, 592, 218, 525, 999, 693, 523, 198, 123, 169
269731298, -7471, 12981, -3863, 5402, 2117, -787, -1823, -1955, 75, 592, 218, 525, 999, 693, 523, 198, 123, 169
269736331, -7471, 12981, -3863, 5402, 2117, -787, -1823, -1955, 75, 592, 218, 525, 999, 693, 523, 198, 123, 169
269737324, -7050, 13179, -4145, 5278, 2601, -1126, -1501, -2948, 286, 788, 218, 525, 999, 693, 523, 198, 123, 169
269738083, -7050, 13179, -4145, 5278, 2601, -1126, -1501, -2948, 286, 788, 171, 389, 1023, 807, 545, 216, 128, 157
269738908, -7050, 13179, -4145, 5278, 2601, -1126, -1501, -2948, 286, 788, 171, 389, 1023, 807, 545, 216, 128, 157
269743925, -7050, 13179, -4145, 5278, 2601, -1126, -1501, -2948, 286, 788, 171, 389, 1023, 807, 545, 216, 128, 157
269744727, -7050, 13179, -4145, 5278, 2601, -1126, -1501, -2948, 286, 788, 171, 389, 1023, 807, 545, 216, 128, 157
269745530, -7050, 13179, -4145, 5278, 2601, -1126, -1501, -2948, 286, 788, 171, 389, 1023, 807, 545, 216, 128, 157
269746384, -7050, 13179, -4145, 5278, 2601, -1126, -1501, -2948, 286, 788, 171, 389, 1023, 807, 545, 216, 128, 157
269751345, -7050, 13179, -4145, 5278, 2601, -1126, -1501, -2948, 286, 788, 171, 389, 1023, 807, 545, 216, 128, 157
269752152, -7050, 13179, -4145, 5278, 2601, -1126, -1501, -2948, 286, 788, 171, 389, 1023, 807, 545, 216, 128, 157
269752975, -7050, 13179, -4145, 5278, 2601, -1126, -1501, -2948, 286, 788, 171, 389, 1023, 807, 545, 216, 128, 157
269753780, -7050, 13179, -4145, 5278, 2601, -1126, -1501, -2948, 286, 788, 171, 389, 1023, 807, 545, 216, 128, 157
269758834, -7050, 13179, -4145, 5278, 2601, -1126, -1501, -2948, 286, 788, 171, 389, 1023, 807, 545, 216, 128, 157
269759759, -6510, 13366, -4524, 5189, 1750, -1528, -1212, -3658, 876, 815, 171, 389, 1023, 807, 545, 216, 128, 157
269760659, -6510, 13366, -4524, 5189, 1750, -1528, -1212, -3658, 876, 815, 172, 397, 990, 831, 571, 228, 127, 140
269761332, -6510, 13366, -4524, 5189, 1750, -1528, -1212, -3658, 876, 815, 172, 397, 990, 831, 571, 228, 127, 140
269766384, -6510, 13366, -4524, 5189, 1750, -1528, -1212, -3658, 876, 815, 172, 397, 990, 831, 571, 228, 127, 140
269767209, -6510, 13366, -4524, 5189, 1750, -1528, -1212, -3658, 876, 815, 172, 397, 990, 831, 571, 228, 127, 140
269767998, -6510, 13366, -4524, 5189, 1750, -1528, -1212, -3658, 876, 815, 172, 397, 990, 831, 571, 228, 127, 140
269768808, -6510, 13366, -4524, 5189, 1750, -1528, -1212, -3658, 876, 815, 172, 397, 990, 831, 571, 228, 127, 140
269771557, -6510, 13366, -4524, 5189, 1750, -1528, -1212, -3658, 876, 815, 172, 397, 990, 831, 571, 228, 127, 140
269781359, -6510, 13366, -4524, 5189, 1750, -1528, -1212, -3658, 876, 815, 172, 397, 990, 831, 571, 228, 127, 140
269782160, -6510, 13366, -4524, 5189, 1750, -1528, -1212, -3658, 876, 815, 172, 397, 990, 831, 571, 228, 127, 140
269782967, -6510, 13366, -4524, 5189, 1750, -1528, -1212, -3658, 876, 815, 172, 397, 990, 831, 571, 228, 127, 140
269783784, -6510, 13366, -4524, 5189, 1750, -1528, -1212, -3658, 876, 815, 172, 397, 990, 831, 571, 228, 127, 140
269788975, -5908, 13559, -4905, 5061, 2138, -1057, -2832, -3829, 817, 847, 172, 397, 990, 831, 571, 228, 127, 140
269789757, -5908, 13559, -4905, 5061, 2138, -1057, -2832, -3829, 817, 847, 159, 365, 1067, 854, 560, 224, 128, 131
269790606, -5908, 13559, -4905, 5061, 2138, -1057, -2832, -3829, 817, 847, 159, 365, 1067, 854, 560, 224, 128, 131
269791391, -5908, 13559, -4905, 5061, 2138, -1057, -2832, -3829, 817, 847, 159, 365, 1067, 854, 560, 224, 128, 131
269796317, -5908, 13559, -4905, 5061, 2138, -1057, -2832, -3829, 817, 847, 159, 365, 1067, 854, 560, 224, 128, 131
269797132, -5908, 13559, -4905, 5061, 2138, -1057, -2832, -3829, 817, 847, 159, 365, 1067, 854, 560, 224, 128, 131
269797939, -5908, 13559, -4905, 5061, 2138, -1057, -2832, -3829, 817, 847, 159, 365, 1067, 854, 560, 224, 128, 131
269798757, -5908, 13559, -4905, 5061, 2138, -1057, -2832, -3829, 817, 847, 159, 365, 1067, 854, 560, 224, 128, 131
269803890, -5908, 13559, -4905, 5061, 2138, -1057, -2832, -3829, 817, 847, 159, 365, 1067, 854, 560, 224, 128, 131
269804824, -5201, 13727, -5350, 4931, 1347, -2014, -1400, -4636, 1137, 876, 159, 365, 1067, 854, 560, 224, 128, 131
269805634, -4465, 13874, -5769, 4767, 2541, -1484, -2544, -4632, 952, 920, 159, 365, 1067, 854, 560, 224, 128, 131
269806461, -4465, 13874, -5769, 4767, 2541, -1484, -2544, -4632, 952, 920, 139, 337, 999, 886, 559, 212, 109, 100
269811406, -4465, 13874, -5769, 4767, 2541, -1484, -2544, -4632, 952, 920, 139, 337, 999, 886, 559, 212, 109, 100
269812232, -4465, 13874, -5769, 4767, 2541, -1484, -2544, -4632, 952, 920, 139, 337, 999, 886, 559, 212, 109, 100
269813031, -4465, 13874, -5769, 4767, 2541, -1484, -2544, -4632, 952, 920, 139, 337, 999, 886, 559, 212, 109, 100
269813886, -4465, 13874, -5769, 4767, 2541, -1484, -2544, -4632, 952, 920, 139, 337, 999, 886, 559, 212, 109, 100
269818827, -4465, 13874, -5769, 4767, 2541, -1484, -2544, -4632, 952, 920, 139, 337, 999, 886, 559, 212, 109, 100
269819661, -4465, 13874, -5769, 4767, 2541, -1484, -2544, -4632, 952, 920, 139, 337, 999, 886, 559, 212, 109, 100
269820456, -4465, 13874, -5769, 4767, 2541, -1484, -2544, -4632, 952, 920, 139, 337, 999, 886, 559, 212, 109, 100
269821254, -4465, 13874, -5769, 4767, 2541, -1484, -2544, -4632, 952, 920, 139, 337, 999, 886, 559, 212, 109, 100
269826306, -4465, 13874, -5769, 4767, 2541, -1484, -2544, -4632, 952, 920, 139, 337, 999, 886, 559, 212, 109, 100
269827260, -3716, 13984, -6170, 4582, 1272, -1787, -2561, -4708, 1011, 776, 139, 337, 999, 886, 559, 212, 109, 100
269828056, -3716, 13984, -6170, 4582, 1272, -1787, -2561, -4708, 1011, 776, 139, 305, 1100, 903, 565, 206, 112, 103
269828873, -3716, 13984, -6170, 4582, 1272, -1787, -2561, -4708, 1011, 776, 139, 305, 1100, 903, 565, 206, 112, 103
269833873, -3716, 13984, -6170, 4582, 1272, -1787, -2561, -4708, 1011, 776, 139, 305, 1100, 903, 565, 206, 112, 103
269834697, -3716, 13984, -6170, 4582, 1272, -1787, -2561, -4708, 1011, 776, 139, 305, 1100, 903, 565, 206, 112, 103
269835483, -3716, 13984, -6170, 4582, 1272, -1787, -2561, -4708, 1011, 776, 139, 305, 1100, 903, 565, 206, 112, 103
269836323, -3716, 13984, -6170, 4582, 1272, -1787, -2561, -4708, 1011, 776, 139, 305, 1100, 903, 565, 206, 112, 103
269841352, -3716, 13984, -6170, 4582, 1272, -1787, -2561, -4708, 1011, 776, 139, 305, 1100, 903, 565, 206, 112, 103
269842140, -3716, 13984, -6170, 4582, 1272, -1787, -2561, -4708, 1011, 776, 139, 305, 1100, 903, 565, 206, 112, 103
269842932, -3716, 13984, -6170, 4582, 1272, -1787, -2561, -4708, 1011, 776, 139, 305, 1100, 903, 565, 206, 112, 103
269843766, -3716, 13984, -6170, 4582, 1272, -1787, -2561, -4708, 1011, 776, 139, 305, 1100, 903, 565, 206, 112, 103
269848783, -3716, 13984, -6170, 4582, 1272, -1787, -2561, -4708, 1011, 776, 139, 305, 1100, 903, 565, 206, 112, 103
269849734, -3716, 13984, -6170, 4582, 1272, -1787, -2561, -4708, 1011, 776, 138, 374, 1272, 864, 597, 207, 104, 100
269850560, -3716, 13984, -6170, 4582, 1272, -1787, -2561, -4708, 1011, 776, 138, 374, 1272, 864, 597, 207, 104, 100
269851343, -3716, 13984, -6170, 4582, 1272, -1787, -2561, -4708, 1011, 776, 138, 374, 1272, 864, 597, 207, 104, 100
269856408, -3716, 13984, -6170, 4582, 1272, -1787, -2561, -4708, 1011, 776, 138, 374, 1272, 864, 597, 207, 104, 100
269857234, -3716, 13984, -6170, 4582, 1272, -1787, -2561, -4708, 1011, 776, 138, 374, 1272, 864, 597, 207, 104, 100
269858057, -3716, 13984, -6170, 4582, 1272, -1787, -2561, -4708, 1011, 776, 138, 374, 1272, 864, 597, 207, 104, 100
269858868, -3716, 13984, -6170, 4582, 1272, -1787, -2561, -4708, 1011, 776, 138, 374, 1272, 864, 597, 207, 104, 100
269863807, -3716, 13984, -6170, 4582, 1272, -1787, -2561, -4708, 1011, 776, 138, 374, 1272, 864, 597, 207, 104, 100
269864673, -3716, 13984, -6170, 4582, 1272, -1787, -2561, -4708, 1011, 776, 138, 374, 1272, 864, 597, 207, 104, 100
269865435, -3716, 13984, -6170, 4582, 1272, -1787, -2561, -4708, 1011, 776, 138, 374, 1272, 864, 597, 207, 104, 100
269866244, -3716, 13984, -6170, 4582, 1272, -1787, -2561, -4708, 1011, 776, 138, 374, 1272, 864, 597, 207, 104, 100
269871306, -3716, 13984, -6170, 4582, 1272, -1787, -2561, -4708, 1011, 776, 138, 374, 1272, 864, 597, 207, 104, 100
269872268, -2986, 14032, -6529, 4470, 1855, -1995, -2141, -4409, 1285, 668, 138, 374, 1272, 864, 597, 207, 104, 100
269873056, -2986, 14032, -6529, 4470, 1855, -1995, -2141, -4409, 1285, 668, 128, 365, 1256, 925, 621, 203, 102, 100
269873922, -2986, 14032, -6529, 4470, 1855, -1995, -2141, -4409, 1285, 668, 128, 365, 1256, 925, 621, 203, 102, 100
269878886, -2986, 14032, -6529, 4470, 1855, -1995, -2141, -4409, 1285, 668, 128, 365, 1256, 925, 621, 203, 102, 100
269879747, -2986, 14032, -6529, 4470, 1855, -1995, -2141, -4409, 1285, 668, 128, 365, 1256, 925, 621, 203, 102, 100
269880509, -2986, 14032, -6529, 4470, 1855, -1995, -2141, -4409, 1285, 668, 128, 365, 1256, 925, 621, 203, 102, 100
269881379, -2986, 14032, -6529, 4470, 1855, -1995, -2141, -4409, 1285, 668, 128, 365, 1256, 925, 621, 203, 102, 100
269886331, -2986, 14032, -6529, 4470, 1855, -1995, -2141, -4409, 1285, 668, 128, 365, 1256, 925, 621, 203, 102, 100
269887197, -2986, 14032, -6529, 4470, 1855, -1995, -2141, -4409, 1285, 668, 128, 365, 1256, 925, 621, 203, 102, 100
269887956, -2986, 14032, -6529, 4470, 1855, -1995, -2141, -4409, 1285, 668, 128, 365, 1256, 925, 621, 203, 102, 100
269888823, -2986, 14032, -6529, 4470, 1855, -1995, -2141, -4409, 1285, 668, 128, 365, 1256, 925, 621, 203, 102, 100
269893858, -2986, 14032, -6529, 4470, 1855, -1995, -2141, -4409, 1285, 668, 128, 365, 1256, 925, 621, 203, 102, 100
269894822, -2348, 14059, -6815, 4339, 1736, -2223, -2299, -3918, 959, 479, 128, 365, 1256, 925, 621, 203, 102, 100
269895668, -2348, 14059, -6815, 4339, 1736, -2223, -2299, -3918, 959, 479, 139, 385, 1198, 917, 611, 197, 104, 108
269896412, -2348, 14059, -6815, 4339, 1736, -2223, -2299, -3918, 959, 479, 139, 385, 1198, 917, 611, 197, 104, 108
269901418, -2348, 14059, -6815, 4339, 1736, -2223, -2299, -3918, 959, 479, 139, 385, 1198, 917, 611, 197, 104, 108
269902233, -2348, 14059, -6815, 4339, 1736, -2223, -2299, -3918, 959, 479, 139, 385, 1198, 917, 611, 197, 104, 108
269903083, -2348, 14059, -6815, 4339, 1736, -2223, -2299, -3918, 959, 479, 139, 385, 1198, 917, 611, 197, 104, 108
269903855, -2348, 14059, -6815, 4339, 1736, -2223, -2299, -3918, 959, 479, 139, 385, 1198, 917, 611, 197, 104, 108
269908828, -2348, 14059, -6815, 4339, 1736, -2223, -2299, -3918, 959, 479, 139, 385, 1198, 917, 611, 197, 104, 108
269909629, -2348, 14059, -6815, 4339, 1736, -2223, -2299, -3918, 959, 479, 139, 385, 1198, 917, 611, 197, 104, 108
269910460, -2348, 14059, -6815, 4339, 1736, -2223, -2299, -3918, 959, 479, 139, 385, 1198, 917, 611, 197, 104, 108
269911257, -2348, 14059, -6815, 4339, 1736, -2223, -2299, -3918, 959, 479, 139, 385, 1198, 917, 611, 197, 104, 108
269916328, -2348, 14059, -6815, 4339, 1736, -2223, -2299, -3918, 959, 479, 139, 385, 1198, 917, 611, 197, 104, 108
269917259, -1859, 14071, -7016, 4212, 1651, -1882, -2922, -3005, 618, 322, 139, 385, 1198, 917, 611, 197, 104, 108
269918122, -1859, 14071, -7016, 4212, 1651, -1882, -2922, -3005, 618, 322, 141, 371, 1166, 937, 650, 206, 108, 116
269918904, -1859, 14071, -7016, 4212, 1651, -1882, -2922, -3005, 618, 322, 141, 371, 1166, 937, 650, 206, 108, 116
269923917, -1859, 14071, -7016, 4212, 1651, -1882, -2922, -3005, 618, 322, 141, 371, 1166, 937, 650, 206, 108, 116
269924719, -1859, 14071, -7016, 4212, 1651, -1882, -2922, -3005, 618, 322, 141, 371, 1166, 937, 650, 206, 108, 116
269925557, -1859, 14071, -7016, 4212, 1651, -1882, -2922, -3005, 618, 322, 141, 371, 1166, 937, 650, 206, 108, 116
269926332, -1859, 14071, -7016, 4212, 1651, -1882, -2922, -3005, 618, 322, 141, 371, 1166, 937, 650, 206, 108, 116
269931309, -1859, 14071, -7016, 4212, 1651, -1882, -2922, -3005, 618, 322, 141, 371, 1166, 937, 650, 206, 108, 116
269932106, -1859, 14071, -7016, 4212, 1651, -1882, -2922, -3005, 618, 322, 141, 371, 1166, 937, 650, 206, 108, 116
269932918, -1859, 14071, -7016, 4212, 1651, -1882, -2922, -3005, 618, 322, 141, 371, 1166, 937, 650, 206, 108, 116
269933752, -1859, 14071, -7016, 4212, 1651, -1882, -2922, -3005, 618, 322, 141, 371, 1166, 937, 650, 206, 108, 116
269938819, -1859, 14071, -7016, 4212, 1651, -1882, -2922, -3005, 618, 322, 141, 371, 1166, 937, 650, 206, 108, 116
269939733, -1461, 14052, -7174, 4166, 1631, -1754, -2882, -2295, 808, 260, 141, 371, 1166, 937, 650, 206, 108, 116
269940671, -1461, 14052, -7174, 4166, 1631, -1754, -2882, -2295, 808, 260, 129, 366, 980, 930, 658, 206, 105, 118
269941311, -1461, 14052, -7174, 4166, 1631, -1754, -2882, -2295, 808, 260, 129, 366, 980, 930, 658, 206, 105, 118
269946407, -1461, 14052, -7174, 4166, 1631, -1754, -2882, -2295, 808, 260, 129, 366, 980, 930, 658, 206, 105, 118
269947185, -1461, 14052, -7174, 4166, 1631, -1754, -2882, -2295, 808, 260, 129, 366, 980, 930, 658, 206, 105, 118
269948002, -1461, 14052, -7174, 4166, 1631, -1754, -2882, -2295, 808, 260, 129, 366, 980, 930, 658, 206, 105, 118
269948799, -1461, 14052, -7174, 4166, 1631, -1754, -2882, -2295, 808, 260, 129, 366, 980, 930, 658, 206, 105, 118
269953856, -1461, 14052, -7174, 4166, 1631, -1754, -2882, -2295, 808, 260, 129, 366, 980, 930, 658, 206, 105, 118
269954631, -1461, 14052, -7174, 4166, 1631, -1754, -2882, -2295, 808, 260, 129, 366, 980, 930, 658, 206, 105, 118
269955486, -1461, 14052, -7174, 4166, 1631, -1754, -2882, -2295, 808, 260, 129, 366, 980, 930, 658, 206, 105, 118
269956286, -1461, 14052, -7174, 4166, 1631, -1754, -2882, -2295, 808, 260, 129, 366, 980, 930, 658, 206, 105, 118
269961338, -1461, 14052, -7174, 4166, 1631, -1754, -2882, -2295, 808, 260, 129, 366, 980, 930, 658, 206, 105, 118
269962325, -1144, 14034, -7280, 4144, 1583, -1524, -2981, -1761, 715, 112, 129, 366, 980, 930, 658, 206, 105, 118
269963111, -855, 14016, -7349, 4151, 1765, -1329, -3048, -1560, 608, -7, 129, 366, 980, 930, 658, 206, 105, 118
269963906, -855, 14016, -7349, 4151, 1765, -1329, -3048, -1560, 608, -7, 143, 348, 727, 974, 683, 213, 112, 119
269968931, -855, 14016, -7349, 4151, 1765, -1329, -3048, -1560, 608, -7, 143, 348, 727, 974, 683, 213, 112, 119
269969772, -855, 14016, -7349, 4151, 1765, -1329, -3048, -1560, 608, -7, 143, 348, 727, 974, 683, 213, 112, 119
269970632, -855, 14016, -7349, 4151, 1765, -1329, -3048, -1560, 608, -7, 143, 348, 727, 974, 683, 213, 112, 119
269971350, -855, 14016, -7349, 4151, 1765, -1329, -3048, -1560, 608, -7, 143, 348, 727, 974, 683, 213, 112, 119
269976328, -855, 14016, -7349, 4151, 1765, -1329, -3048, -1560, 608, -7, 143, 348, 727, 974, 683, 213, 112, 119
269977154, -855, 14016, -7349, 4151, 1765, -1329, -3048, -1560, 608, -7, 143, 348, 727, 974, 683, 213, 112, 119
269977956, -855, 14016, -7349, 4151, 1765, -1329, -3048, -1560, 608, -7, 143, 348, 727, 974, 683, 213, 112, 119
269978784, -855, 14016, -7349, 4151, 1765, -1329, -3048, -1560, 608, -7, 143, 348, 727, 974, 683, 213, 112, 119
269983831, -855, 14016, -7349, 4151, 1765, -1329, -3048, -1560, 608, -7, 143, 348, 727, 974, 683, 213, 112, 119
269984786, -855, 14016, -7349, 4151, 1765, -1329, -3048, -1560, 608, -7, 148, 379, 749, 926, 662, 202, 117, 130
269985653, -855, 14016, -7349, 4151, 1765, -1329, -3048, -1560, 608, -7, 148, 379, 749, 926, 662, 202, 117, 130
269986362, -855, 14016, -7349, 4151, 1765, -1329, -3048, -1560, 608, -7, 148, 379, 749, 926, 662, 202, 117, 130
269991382, -855, 14016, -7349, 4151, 1765, -1329, -3048, -1560, 608, -7, 148, 379, 749, 926, 662, 202, 117, 130
269992198, -855, 14016, -7349, 4151, 1765, -1329, -3048, -1560, 608, -7, 148, 379, 749, 926, 662, 202, 117, 130
269992981, -855, 14016, -7349, 4151, 1765, -1329, -3048, -1560, 608, -7, 148, 379, 749, 926, 662, 202, 117, 130
269993806, -855, 14016, -7349, 4151, 1765, -1329, -3048, -1560, 608, -7, 148, 379, 749, 926, 662, 202, 117, 130
269998780, -855, 14016, -7349, 4151, 1765, -1329, -3048, -1560, 608, -7, 148, 379, 749, 926, 662, 202, 117, 130
269999628, -855, 14016, -7349, 4151, 1765, -1329, -3048, -1560, 608, -7, 148, 379, 749, 926, 662, 202, 117, 130
270000408, -855, 14016, -7349, 4151, 1765, -1329, -3048, -1560, 608, -7, 148, 379, 749, 926, 662, 202, 117, 130
270001272, -855, 14016, -7349, 4151, 1765, -1329, -3048, -1560, 608, -7, 148, 379, 749, 926, 662, 202, 117, 130
270006378, -855, 14016, -7349, 4151, 1765, -1329, -3048, -1560, 608, -7, 148, 379, 749, 926, 662, 202, 117, 130
270007329, -607, 13987, -7422, 4164, 1777, -1499, -3134, -1469, 582, 27, 148, 379, 749, 926, 662, 202, 117, 130
270008107, -607, 13987, -7422, 4164, 1777, -1499, -3134, -1469, 582, 27, 144, 389, 736, 923, 658, 204, 115, 128
270008909, -607, 13987, -7422, 4164, 1777, -1499, -3134, -1469, 582, 27, 144, 389, 736, 923, 658, 204, 115, 128
270013934, -607, 13987, -7422, 4164, 1777, -1499, -3134, -1469, 582, 27, 144, 389, 736, 923, 658, 204, 115, 128
270014723, -607, 13987, -7422, 4164, 1777, -1499, -3134, -1469, 582, 27, 144, 389, 736, 923, 658, 204, 115, 128
270015606, -607, 13987, -7422, 4164, 1777, -1499, -3134, -1469, 582, 27, 144, 389, 736, 923, 658, 204, 115, 128
270016284, -607, 13987, -7422, 4164, 1777, -1499, -3134, -1469, 582, 27, 144, 389, 736, 923, 658, 204, 115, 128
270021299, -607, 13987, -7422, 4164, 1777, -1499, -3134, -1469, 582, 27, 144, 389, 736, 923, 658, 204, 115, 128
270022129, -607, 13987, -7422, 4164, 1777, -1499, -3134, -1469, 582, 27, 144, 389, 736, 923, 658, 204, 115, 128
270022955, -607, 13987, -7422, 4164, 1777, -1499, -3134, -1469, 582, 27, 144, 389, 736, 923, 658, 204, 115, 128
270023785, -607, 13987, -7422, 4164, 1777, -1499, -3134, -1469, 582, 27, 144, 389, 736, 923, 658, 204, 115, 128
270028831, -607, 13987, -7422, 4164, 1777, -1499, -3134, -1469, 582, 27, 144, 389, 736, 923, 658, 204, 115, 128
270029799, -418, 13960, -7479, 4176, 1625, -1530, -3187, -1200, 527, -31, 144, 389, 736, 923, 658, 204, 115, 128
270030635, -418, 13960, -7479, 4176, 1625, -1530, -3187, -1200, 527, -31, 154, 462, 809, 830, 604, 197, 125, 127
270031429, -418, 13960, -7479, 4176, 1625, -1530, -3187, -1200, 527, -31, 154, 462, 809, 830, 604, 197, 125, 127
270036435, -418, 13960, -7479, 4176, 1625, -1530, -3187, -1200, 527, -31, 154, 462, 809, 830, 604, 197, 125, 127
270037226, -418, 13960, -7479, 4176, 1625, -1530, -3187, -1200, 527, -31, 154, 462, 809, 830, 604, 197, 125, 127
270038040, -418, 13960, -7479, 4176, 1625, -1530, -3187, -1200, 527, -31, 154, 462, 809, 830, 604, 197, 125, 127
270038868, -418, 13960, -7479, 4176, 1625, -1530, -3187, -1200, 527, -31, 154, 462, 809, 830, 604, 197, 125, 127
270043821, -418, 13960, -7479, 4176, 1625, -1530, -3187, -1200, 527, -31, 154, 462, 809, 830, 604, 197, 125, 127
270044632, -418, 13960, -7479, 4176, 1625, -1530, -3187, -1200, 527, -31, 154, 462, 809, 830, 604, 197, 125, 127
270045412, -418, 13960, -7479, 4176, 1625, -1530, -3187, -1200, 527, -31, 154, 462, 809, 830, 604, 197, 125, 127
270046207, -418, 13960, -7479, 4176, 1625, -1530, -3187, -1200, 527, -31, 154, 462, 809, 830, 604, 197, 125, 127
270051348, -418, 13960, -7479, 4176, 1625, -1530, -3187, -1200, 527, -31, 154, 462, 809, 830, 604, 197, 125, 127
270052234, -281, 13943, -7501, 4205, 1678, -1372, -3236, -795, 464, -127, 154, 462, 809, 830, 604, 197, 125, 127
270053070, -281, 13943, -7501, 4205, 1678, -1372, -3236, -795, 464, -127, 172, 473, 855, 814, 555, 184, 122, 125
270053882, -281, 13943, -7501, 4205, 1678, -1372, -3236, -795, 464, -127, 172, 473, 855, 814, 555, 184, 122, 125
270058904, -281, 13943, -7501, 4205, 1678, -1372, -3236, -795, 464, -127, 172, 473, 855, 814, 555, 184, 122, 125
270059681, -281, 13943, -7501, 4205, 1678, -1372, -3236, -795, 464, -127, 172, 473, 855, 814, 555, 184, 122, 125
270060536, -281, 13943, -7501, 4205, 1678, -1372, -3236, -795, 464, -127, 172, 473, 855, 814, 555, 184, 122, 125
270061312, -281, 13943, -7501, 4205, 1678, -1372, -3236, -795, 464, -127, 172, 473, 855, 814, 555, 184, 122, 125
270066285, -281, 13943, -7501, 4205, 1678, -1372, -3236, -795, 464, -127, 172, 473, 855, 814, 555, 184, 122, 125
270067082, -281, 13943, -7501, 4205, 1678, -1372, -3236, -795, 464, -127, 172, 473, 855, 814, 555, 184, 122, 125
270067946, -281, 13943, -7501, 4205, 1678, -1372, -3236, -795, 464, -127, 172, 473, 855, 814, 555, 184, 122, 125
270068707, -281, 13943, -7501, 4205, 1678, -1372, -3236, -795, 464, -127, 172, 473, 855, 814, 555, 184, 122, 125
270073844, -281, 13943, -7501, 4205, 1678, -1372, -3236, -795, 464, -127, 172, 473, 855, 814, 555, 184, 122, 125
270074784, -169, 13926, -7514, 4244, 1754, -1309, -3310, -615, 444, -121, 172, 473, 855, 814, 555, 184, 122, 125
270075653, -169, 13926, -7514, 4244, 1754, -1309, -3310, -615, 444, -121, 165, 476, 911, 771, 507, 170, 129, 139
270076409, -169, 13926, -7514, 4244, 1754, -1309, -3310, -615, 444, -121, 165, 476, 911, 771, 507, 170, 129, 139
270081446, -169, 13926, -7514, 4244, 1754, -1309, -3310, -615, 444, -121, 165, 476, 911, 771, 507, 170, 129, 139
270082232, -169, 13926, -7514, 4244, 1754, -1309, -3310, -615, 444, -121, 165, 476, 911, 771, 507, 170, 129, 139
270083098, -169, 13926, -7514, 4244, 1754, -1309, -3310, -615, 444, -121, 165, 476, 911, 771, 507, 170, 129, 139
270083879, -169, 13926, -7514, 4244, 1754, -1309, -3310, -615, 444, -121, 165, 476, 911, 771, 507, 170, 129, 139
270088816, -169, 13926, -7514, 4244, 1754, -1309, -3310, -615, 444, -121, 165, 476, 911, 771, 507, 170, 129, 139
270089632, -169, 13926, -7514, 4244, 1754, -1309, -3310, -615, 444, -121, 165, 476, 911, 771, 507, 170, 129, 139
270090436, -169, 13926, -7514, 4244, 1754, -1309, -3310, -615, 444, -121, 165, 476, 911, 771, 507, 170, 129, 139
270091248, -169, 13926, -7514, 4244, 1754, -1309, -3310, -615, 444, -121, 165, 476, 911, 771, 507, 170, 129, 139
270096330, -169, 13926, -7514, 4244, 1754, -1309, -3310, -615, 444, -121, 165, 476, 911, 771, 507, 170, 129, 139
270097264, -76, 13909, -7533, 4267, 1752, -1339, -3348, -598, 348, -90, 165, 476, 911, 771, 507, 170, 129, 139
270098083, -76, 13909, -7533, 4267, 1752, -1339, -3348, -598, 348, -90, 163, 476, 937, 715, 493, 169, 124, 131
270098889, -76, 13909, -7533, 4267, 1752, -1339, -3348, -598, 348, -90, 163, 476, 937, 715, 493, 169, 124, 131
270103882, -76, 13909, -7533, 4267, 1752, -1339, -3348, -598, 348, -90, 163, 476, 937, 715, 493, 169, 124, 131
270104747, -76, 13909, -7533, 4267, 1752, -1339, -3348, -598, 348, -90, 163, 476, 937, 715, 493, 169, 124, 131
270105557, -76, 13909, -7533, 4267, 1752, -1339, -3348, -598, 348, -90, 163, 476, 937, 715, 493, 169, 124, 131
270106371, -76, 13909, -7533, 4267, 1752, -1339, -3348, -598, 348, -90, 163, 476, 937, 715, 493, 169, 124, 131
270111281, -76, 13909, -7533, 4267, 1752, -1339, -3348, -598, 348, -90, 163, 476, 937, 715, 493, 169, 124, 131
270112134, -76, 13909, -7533, 4267, 1752, -1339, -3348, -598, 348, -90, 163, 476, 937, 715, 493, 169, 124, 131
270112907, -76, 13909, -7533, 4267, 1752, -1339, -3348, -598, 348, -90, 163, 476, 937, 715, 493, 169, 124, 131
270113729, -76, 13909, -7533, 4267, 1752, -1339, -3348, -598, 348, -90, 163, 476, 937, 715, 493, 169, 124, 131
270118844, -76, 13909, -7533, 4267, 1752, -1339, -3348, -598, 348, -90, 163, 476, 937, 715, 493, 169, 124, 131
270119732, -3, 13892, -7557, 4281, 1716, -1345, -3412, -534, 290, -53, 163, 476, 937, 715, 493, 169, 124, 131
270120563, -3, 13892, -7557, 4281, 1716, -1345, -3412, -534, 290, -53, 177, 543, 964, 707, 500, 169, 132, 138
270121356, -3, 13892, -7557, 4281, 1716, -1345, -3412, -534, 290, -53, 177, 543, 964, 707, 500, 169, 132, 138
270126408, -3, 13892, -7557, 4281, 1716, -1345, -3412, -534, 290, -53, 177, 543, 964, 707, 500, 169, 132, 138
270127181, -3, 13892, -7557, 4281, 1716, -1345, -3412, -534, 290, -53, 177, 543, 964, 707, 500, 169, 132, 138
270128005, -3, 13892, -7557, 4281, 1716, -1345, -3412, -534, 290, -53, 177, 543, 964, 707, 500, 169, 132, 138
270128804, -3, 13892, -7557, 4281, 1716, -1345, -3412, -534, 290, -53, 177, 543, 964, 707, 500, 169, 132, 138
270133858, -3, 13892, -7557, 4281, 1716, -1345, -3412, -534, 290, -53, 177, 543, 964, 707, 500, 169, 132, 138
270134636, -3, 13892, -7557, 4281, 1716, -1345, -3412, -534, 290, -53, 177, 543, 964, 707, 500, 169, 132, 138
270135479, -3, 13892, -7557, 4281, 1716, -1345, -3412, -534, 290, -53, 177, 543, 964, 707, 500, 169, 132, 138
270136264, -3, 13892, -7557, 4281, 1716, -1345, -3412, -534, 290, -53, 177, 543, 964, 707, 500, 169, 132, 138
270141373, -3, 13892, -7557, 4281, 1716, -1345, -3412, -534, 290, -53, 177, 543, 964, 707, 500, 169, 132, 138
270142283, 45, 13877, -7576, 4296, 1722, -1268, -3431, -374, 248, -26, 177, 543, 964, 707, 500, 169, 132, 138
270143109, 45, 13877, -7576, 4296, 1722, -1268, -3431, -374, 248, -26, 180, 540, 1026, 707, 459, 151, 121, 139
270143920, 45, 13877, -7576, 4296, 1722, -1268, -3431, -374, 248, -26, 180, 540, 1026, 707, 459, 151, 121, 139
270148917, 45, 13877, -7576, 4296, 1722, -1268, -3431, -374, 248, -26, 180, 540, 1026, 707, 459, 151, 121, 139
270149731, 45, 13877, -7576, 4296, 1722, -1268, -3431, -374, 248, -26, 180, 540, 1026, 707, 459, 151, 121, 139
270150576, 45, 13877, -7576, 4296, 1722, -1268, -3431, -374, 248, -26, 180, 540, 1026, 707, 459, 151, 121, 139
270151335, 45, 13877, -7576, 4296, 1722, -1268, -3431, -374, 248, -26, 180, 540, 1026, 707, 459, 151, 121, 139
270156329, 45, 13877, -7576, 4296, 1722, -1268, -3431, -374, 248, -26, 180, 540, 1026, 707, 459, 151, 121, 139
270157118, 45, 13877, -7576, 4296, 1722, -1268, -3431, -374, 248, -26, 180, 540, 1026, 707, 459, 151, 121, 139
270157932, 45, 13877, -7576, 4296, 1722, -1268, -3431, -374, 248, -26, 180, 540, 1026, 707, 459, 151, 121, 139
270158783, 45, 13877, -7576, 4296, 1722, -1268, -3431, -374, 248, -26, 180, 540, 1026, 707, 459, 151, 121, 139
270163806, 45, 13877, -7576, 4296, 1722, -1268, -3431, -374, 248, -26, 180, 540, 1026, 707, 459, 151, 121, 139
270164799, 97, 13863, -7599, 4299, 1777, -1173, -3385, -399, 160, 0, 180, 540, 1026, 707, 459, 151, 121, 139
270165654, 97, 13863, -7599, 4299, 1777, -1173, -3385, -399, 160, 0, 169, 545, 996, 704, 493, 160, 123, 133
270166374, 97, 13863, -7599, 4299, 1777, -1173, -3385, -399, 160, 0, 169, 545, 996, 704, 493, 160, 123, 133
270171383, 97, 13863, -7599, 4299, 1777, -1173, -3385, -399, 160, 0, 169, 545, 996, 704, 493, 160, 123, 133
270172233, 97, 13863, -7599, 4299, 1777, -1173, -3385, -399, 160, 0, 169, 545, 996, 704, 493, 160, 123, 133
270173006, 97, 13863, -7599, 4299, 1777, -1173, -3385, -399, 160, 0, 169, 545, 996, 704, 493, 160, 123, 133
270173854, 97, 13863, -7599, 4299, 1777, -1173, -3385, -399, 160, 0, 169, 545, 996, 704, 493, 160, 123, 133
270178788, 97, 13863, -7599, 4299, 1777, -1173, -3385, -399, 160, 0, 169, 545, 996, 704, 493, 160, 123, 133
270179648, 97, 13863, -7599, 4299, 1777, -1173, -3385, -399, 160, 0, 169, 545, 996, 704, 493, 160, 123, 133
270180410, 97, 13863, -7599, 4299, 1777, -1173, -3385, -399, 160, 0, 169, 545, 996, 704, 493, 160, 123, 133
270181235, 97, 13863, -7599, 4299, 1777, -1173, -3385, -399, 160, 0, 169, 545, 996, 704, 493, 160, 123, 133
270186358, 97, 13863, -7599, 4299, 1777, -1173, -3385, -399, 160, 0, 169, 545, 996, 704, 493, 160, 123, 133
270187291, 124, 13856, -7627, 4270, 1756, -1304, -3417, -434, -52, 12, 169, 545, 996, 704, 493, 160, 123, 133
270188105, 124, 13856, -7627, 4270, 1756, -1304, -3417, -434, -52, 12, 163, 511, 915, 624, 412, 132, 110, 114
270188917, 124, 13856, -7627, 4270, 1756, -1304, -3417, -434, -52, 12, 163, 511, 915, 624, 412, 132, 110, 114
270193931, 124, 13856, -7627, 4270, 1756, -1304, -3417, -434, -52, 12, 163, 511, 915, 624, 412, 132, 110, 114
270194774, 124, 13856, -7627, 4270, 1756, -1304, -3417, -434, -52, 12, 163, 511, 915, 624, 412, 132, 110, 114
270195632, 124, 13856, -7627, 4270, 1756, -1304, -3417, -434, -52, 12, 163, 511, 915, 624, 412, 132, 110, 114
270196351, 124, 13856, -7627, 4270, 1756, -1304, -3417, -434, -52, 12, 163, 511, 915, 624, 412, 132, 110, 114
270201291, 124, 13856, -7627, 4270, 1756, -1304, -3417, -434, -52, 12, 163, 511, 915, 624, 412, 132, 110, 114
270202108, 124, 13856, -7627, 4270, 1756, -1304, -3417, -434, -52, 12, 163, 511, 915, 624, 412, 132, 110, 114
270202933, 124, 13856, -7627, 4270, 1756, -1304, -3417, -434, -52, 12, 163, 511, 915, 624, 412, 132, 110, 114
270203731, 124, 13856, -7627, 4270, 1756, -1304, -3417, -434, -52, 12, 163, 511, 915, 624, 412, 132, 110, 114
270208832, 124, 13856, -7627, 4270, 1756, -1304, -3417, -434, -52, 12, 163, 511, 915, 624, 412, 132, 110, 114
270209785, 105, 13849, -7655, 4244, 1748, -1366, -3493, -234, -142, 59, 163, 511, 915, 624, 412, 132, 110, 114
270210632, 105, 13849, -7655, 4244, 1748, -1366, -3493, -234, -142, 59, 156, 519, 869, 588, 400, 130, 116, 117
270211382, 105, 13849, -7655, 4244, 1748, -1366, -3493, -234, -142, 59, 156, 519, 869, 588, 400, 130, 116, 117
270216407, 105, 13849, -7655, 4244, 1748, -1366, -3493, -234, -142, 59, 156, 519, 869, 588, 400, 130, 116, 117
270217236, 105, 13849, -7655, 4244, 1748, -1366, -3493, -234, -142, 59, 156, 519, 869, 588, 400, 130, 116, 117
270218054, 105, 13849, -7655, 4244, 1748, -1366, -3493, -234, -142, 59, 156, 519, 869, 588, 400, 130, 116, 117
270218879, 105, 13849, -7655, 4244, 1748, -1366, -3493, -234, -142, 59, 156, 519, 869, 588, 400, 130, 116, 117
270223784, 105, 13849, -7655, 4244, 1748, -1366, -3493, -234, -142, 59, 156, 519, 869, 588, 400, 130, 116, 117
270224663, 105, 13849, -7655, 4244, 1748, -1366, -3493, -234, -142, 59, 156, 519, 869, 588, 400, 130, 116, 117
270225434, 105, 13849, -7655, 4244, 1748, -1366, -3493, -234, -142, 59, 156, 519, 869, 588, 400, 130, 116, 117
270226273, 105, 13849, -7655, 4244, 1748, -1366, -3493, -234, -142, 59, 156, 519, 869, 588, 400, 130, 116, 117
270231306, 105, 13849, -7655, 4244, 1748, -1366, -3493, -234, -142, 59, 156, 519, 869, 588, 400, 130, 116, 117
270232259, 57, 13840, -7671, 4247, 1734, -1320, -3452, 27, -89, 77, 156, 519, 869, 588, 400, 130, 116, 117
270233080, 57, 13840, -7671, 4247, 1734, -1320, -3452, 27, -89, 77, 135, 433, 776, 576, 398, 135, 116, 103
270233921, 57, 13840, -7671, 4247, 1734, -1320, -3452, 27, -89, 77, 135, 433, 776, 576, 398, 135, 116, 103
270238882, 57, 13840, -7671, 4247, 1734, -1320, -3452, 27, -89, 77, 135, 433, 776, 576, 398, 135, 116, 103
270239709, 57, 13840, -7671, 4247, 1734, -1320, -3452, 27, -89, 77, 135, 433, 776, 576, 398, 135, 116, 103
270240510, 57, 13840, -7671, 4247, 1734, -1320, -3452, 27, -89, 77, 135, 433, 776, 576, 398, 135, 116, 103
270241353, 57, 13840, -7671, 4247, 1734, -1320, -3452, 27, -89, 77, 135, 433, 776, 576, 398, 135, 116, 103
270246301, 57, 13840, -7671, 4247, 1734, -1320, -3452, 27, -89, 77, 135, 433, 776, 576, 398, 135, 116, 103
270247110, 57, 13840, -7671, 4247, 1734, -1320, -3452, 27, -89, 77, 135, 433, 776, 576, 398, 135, 116, 103
270247931, 57, 13840, -7671, 4247, 1734, -1320, -3452, 27, -89, 77, 135, 433, 776, 576, 398, 135, 116, 103
270248746, 57, 13840, -7671, 4247, 1734, -1320, -3452, 27, -89, 77, 135, 433, 776, 576, 398, 135, 116, 103
270253854, 57, 13840, -7671, 4247, 1734, -1320, -3452, 27, -89, 77, 135, 433, 776, 576, 398, 135, 116, 103
270254811, 8, 13828, -7682, 4265, 1738, -1247, -3392, 123, -32, 83, 135, 433, 776, 576, 398, 135, 116, 103
270255631, 8, 13828, -7682, 4265, 1738, -1247, -3392, 123, -32, 83, 144, 368, 616, 596, 385, 139, 126, 92
270256451, 8, 13828, -7682, 4265, 1738, -1247, -3392, 123, -32, 83, 144, 368, 616, 596, 385, 139, 126, 92
270261407, 8, 13828, -7682, 4265, 1738, -1247, -3392, 123, -32, 83, 144, 368, 616, 596, 385, 139, 126, 92
270262260, 8, 13828, -7682, 4265, 1738, -1247, -3392, 123, -32, 83, 144, 368, 616, 596, 385, 139, 126, 92
270263037, 8, 13828, -7682, 4265, 1738, -1247, -3392, 123, -32, 83, 144, 368, 616, 596, 385, 139, 126, 92
270263848, 8, 13828, -7682, 4265, 1738, -1247, -3392, 123, -32, 83, 144, 368, 616, 596, 385, 139, 126, 92
270268807, 8, 13828, -7682, 4265, 1738, -1247, -3392, 123, -32, 83, 144, 368, 616, 596, 385, 139, 126, 92
270269671, 8, 13828, -7682, 4265, 1738, -1247, -3392, 123, -32, 83, 144, 368, 616, 596, 385, 139, 126, 92
270270456, 8, 13828, -7682, 4265, 1738, -1247, -3392, 123, -32, 83, 144, 368, 616, 596, 385, 139, 126, 92
270271280, 8, 13828, -7682, 4265, 1738, -1247, -3392, 123, -32, 83, 144, 368, 616, 596, 385, 139, 126, 92
270276333, 8, 13828, -7682, 4265, 1738, -1247, -3392, 123, -32, 83, 144, 368, 616, 596, 385, 139, 126, 92
270277298, -23, 13820, -7686, 4283, 1821, -1197, -3334, 68, -47, 40, 144, 368, 616, 596, 385, 139, 126, 92
270278082, -23, 13820, -7686, 4283, 1821, -1197, -3334, 68, -47, 40, 139, 335, 546, 531, 326, 127, 121, 91
270278908, -23, 13820, -7686, 4283, 1821, -1197, -3334, 68, -47, 40, 139, 335, 546, 531, 326, 127, 121, 91
270283881, -23, 13820, -7686, 4283, 1821, -1197, -3334, 68, -47, 40, 139, 335, 546, 531, 326, 127, 121, 91
270284721, -23, 13820, -7686, 4283, 1821, -1197, -3334, 68, -47, 40, 139, 335, 546, 531, 326, 127, 121, 91
270285493, -23, 13820, -7686, 4283, 1821, -1197, -3334, 68, -47, 40, 139, 335, 546, 531, 326, 127, 121, 91
270286313, -23, 13820, -7686, 4283, 1821, -1197, -3334, 68, -47, 40, 139, 335, 546, 531, 326, 127, 121, 91
270291284, -23, 13820, -7686, 4283, 1821, -1197, -3334, 68, -47, 40, 139, 335, 546, 531, 326, 127, 121, 91
270292146, -23, 13820, -7686, 4283, 1821, -1197, -3334, 68, -47, 40, 139, 335, 546, 531, 326, 127, 121, 91
270292906, -23, 13820, -7686, 4283, 1821, -1197, -3334, 68, -47, 40, 139, 335, 546, 531, 326, 127, 121, 91
270293772, -23, 13820, -7686, 4283, 1821, -1197, -3334, 68, -47, 40, 139, 335, 546, 531, 326, 127, 121, 91
270298807, -23, 13820, -7686, 4283, 1821, -1197, -3334, 68, -47, 40, 139, 335, 546, 531, 326, 127, 121, 91
270299773, -47, 13812, -7689, 4305, 1832, -1193, -3296, 54, -17, 32, 139, 335, 546, 531, 326, 127, 121, 91
270300538, -47, 13812, -7689, 4305, 1832, -1193, -3296, 54, -17, 32, 132, 319, 565, 521, 326, 127, 115, 85
270301386, -47, 13812, -7689, 4305, 1832, -1193, -3296, 54, -17, 32, 132, 319, 565, 521, 326, 127, 115, 85
270306405, -47, 13812, -7689, 4305, 1832, -1193, -3296, 54, -17, 32, 132, 319, 565, 521, 326, 127, 115, 85
270307222, -47, 13812, -7689, 4305, 1832, -1193, -3296, 54, -17, 32, 132, 319, 565, 521, 326, 127, 115, 85
270308007, -47, 13812, -7689, 4305, 1832, -1193, -3296, 54, -17, 32, 132, 319, 565, 521, 326, 127, 115, 85
270308848, -47, 13812, -7689, 4305, 1832, -1193, -3296, 54, -17, 32, 132, 319, 565, 521, 326, 127, 115, 85
270313832, -47, 13812, -7689, 4305, 1832, -1193, -3296, 54, -17, 32, 132, 319, 565, 521, 326, 127, 115, 85
270314672, -47, 13812, -7689, 4305, 1832, -1193, -3296, 54, -17, 32, 132, 319, 565, 521, 326, 127, 115, 85
270315461, -47, 13812, -7689, 4305, 1832, -1193, -3296, 54, -17, 32, 132, 319, 565, 521, 326, 127, 115, 85
270316283, -47, 13812, -7689, 4305, 1832, -1193, -3296, 54, -17, 32, 132, 319, 565, 521, 326, 127, 115, 85
270321331, -47, 13812, -7689, 4305, 1832, -1193, -3296, 54, -17, 32, 132, 319, 565, 521, 326, 127, 115, 85
270322270, -85, 13804, -7687, 4334, 1833, -1228, -3279, 138, -24, 25, 132, 319, 565, 521, 326, 127, 115, 85
270323081, -85, 13804, -7687, 4334, 1833, -1228, -3279, 138, -24, 25, 135, 277, 648, 509, 299, 118, 107, 74
270323947, -85, 13804, -7687, 4334, 1833, -1228, -3279, 138, -24, 25, 135, 277, 648, 509, 299, 118, 107, 74
270328907, -85, 13804, -7687, 4334, 1833, -1228, -3279, 138, -24, 25, 135, 277, 648, 509, 299, 118, 107, 74
270329749, -85, 13804, -7687, 4334, 1833, -1228, -3279, 138, -24, 25, 135, 277, 648, 509, 299, 118, 107, 74
270330534, -85, 13804, -7687, 4334, 1833, -1228, -3279, 138, -24, 25, 135, 277, 648, 509, 299, 118, 107, 74
270331356, -85, 13804, -7687, 4334, 1833, -1228, -3279, 138, -24, 25, 135, 277, 648, 509, 299, 118, 107, 74
270336306, -85, 13804, -7687, 4334, 1833, -1228, -3279, 138, -24, 25, 135, 277, 648, 509, 299, 118, 107, 74
270337133, -85, 13804, -7687, 4334, 1833, -1228, -3279, 138, -24, 25, 135, 277, 648, 509, 299, 118, 107, 74
270337931, -85, 13804, -7687, 4334, 1833, -1228, -3279, 138, -24, 25, 135, 277, 648, 509, 299, 118, 107, 74
270338745, -85, 13804, -7687, 4334, 1833, -1228, -3279, 138, -24, 25, 135, 277, 648, 509, 299, 118, 107, 74
270343806, -85, 13804, -7687, 4334, 1833, -1228, -3279, 138, -24, 25, 135, 277, 648, 509, 299, 118, 107, 74
270344757, -162, 13800, -7667, 4378, 1795, -1297, -3277, 378, -46, -23, 135, 277, 648, 509, 299, 118, 107, 74
270345631, -162, 13800, -7667, 4378, 1795, -1297, -3277, 378, -46, -23, 133, 247, 626, 467, 265, 101, 93, 69
270346338, -162, 13800, -7667, 4378, 1795, -1297, -3277, 378, -46, -23, 133, 247, 626, 467, 265, 101, 93, 69
270351413, -162, 13800, -7667, 4378, 1795, -1297, -3277, 378, -46, -23, 133, 247, 626, 467, 265, 101, 93, 69
270352252, -162, 13800, -7667, 4378, 1795, -1297, -3277, 378, -46, -23, 133, 247, 626, 467, 265, 101, 93, 69
270353028, -162, 13800, -7667, 4378, 1795, -1297, -3277, 378, -46, -23, 133, 247, 626, 467, 265, 101, 93, 69
270353881, -162, 13800, -7667, 4378, 1795, -1297, -3277, 378, -46, -23, 133, 247, 626, 467, 265, 101, 93, 69
270358823, -162, 13800, -7667, 4378, 1795, -1297, -3277, 378, -46, -23, 133, 247, 626, 467, 265, 101, 93, 69
270359634, -162, 13800, -7667, 4378, 1795, -1297, -3277, 378, -46, -23, 133, 247, 626, 467, 265, 101, 93, 69
270360412, -162, 13800, -7667, 4378, 1795, -1297, -3277, 378, -46, -23, 133, 247, 626, 467, 265, 101, 93, 69
270361233, -162, 13800, -7667, 4378, 1795, -1297, -3277, 378, -46, -23, 133, 247, 626, 467, 265, 101, 93, 69
270366279, -162, 13800, -7667, 4378, 1795, -1297, -3277, 378, -46, -23, 133, 247, 626, 467, 265, 101, 93, 69
270367274, -275, 13806, -7621, 4435, 1827, -1286, -3302, 653, -96, -97, 133, 247, 626, 467, 265, 101, 93, 69
270368031, -275, 13806, -7621, 4435, 1827, -1286, -3302, 653, -96, -97, 119, 240, 609, 350, 228, 86, 78, 82
270368882, -275, 13806, -7621, 4435, 1827, -1286, -3302, 653, -96, -97, 119, 240, 609, 350, 228, 86, 78, 82
270373856, -275, 13806, -7621, 4435, 1827, -1286, -3302, 653, -96, -97, 119, 240, 609, 350, 228, 86, 78, 82
270374709, -275, 13806, -7621, 4435, 1827, -1286, -3302, 653, -96, -97, 119, 240, 609, 350, 228, 86, 78, 82
270375484, -275, 13806, -7621, 4435, 1827, -1286, -3302, 653, -96, -97, 119, 240, 609, 350, 228, 86, 78, 82
270376326, -275, 13806, -7621, 4435, 1827, -1286, -3302, 653, -96, -97, 119, 240, 609, 350, 228, 86, 78, 82
270381312, -275, 13806, -7621, 4435, 1827, -1286, -3302, 653, -96, -97, 119, 240, 609, 350, 228, 86, 78, 82
270382172, -275, 13806, -7621, 4435, 1827, -1286, -3302, 653, -96, -97, 119, 240, 609, 350, 228, 86, 78, 82
270382932, -275, 13806, -7621, 4435, 1827, -1286, -3302, 653, -96, -97, 119, 240, 609, 350, 228, 86, 78, 82
270383797, -275, 13806, -7621, 4435, 1827, -1286, -3302, 653, -96, -97, 119, 240, 609, 350, 228, 86, 78, 82
270388853, -275, 13806, -7621, 4435, 1827, -1286, -3302, 653, -96, -97, 119, 240, 609, 350, 228, 86, 78, 82
270389799, -384, 13819, -7559, 4492, 1860, -1080, -3332, 787, -104, -130, 119, 240, 609, 350, 228, 86, 78, 82
270390658, -384, 13819, -7559, 4492, 1860, -1080, -3332, 787, -104, -130, 128, 308, 685, 302, 203, 74, 80, 129
270391401, -384, 13819, -7559, 4492, 1860, -1080, -3332, 787, -104, -130, 119, 240, 609, 350, 228, 86, 78, 82
270396406, -384, 13819, -7559, 4492, 1860, -1080, -3332, 787, -104, -130, 128, 308, 685, 302, 203, 74, 80, 129
270397235, -384, 13819, -7559, 4492, 1860, -1080, -3332, 787, -104, -130, 128, 308, 685, 302, 203, 74, 80, 129
270398035, -384, 13819, -7559, 4492, 1860, -1080, -3332, 787, -104, -130, 128, 308, 685, 302, 203, 74, 80, 129
270398823, -384, 13819, -7559, 4492, 1860, -1080, -3332, 787, -104, -130, 128, 308, 685, 302, 203, 74, 80, 129
270403782, -384, 13819, -7559, 4492, 1860, -1080, -3332, 787, -104, -130, 128, 308, 685, 302, 203, 74, 80, 129
270404660, -384, 13819, -7559, 4492, 1860, -1080, -3332, 787, -104, -130, 128, 308, 685, 302, 203, 74, 80, 129
270405411, -384, 13819, -7559, 4492, 1860, -1080, -3332, 787, -104, -130, 128, 308, 685, 302, 203, 74, 80, 129
270406234, -384, 13819, -7559, 4492, 1860, -1080, -3332, 787, -104, -130, 128, 308, 685, 302, 203, 74, 80, 129
270411308, -384, 13819, -7559, 4492, 1860, -1080, -3332, 787, -104, -130, 128, 308, 685, 302, 203, 74, 80, 129
270412231, -517, 13826, -7499, 4557, 1841, -1198, -3230, 874, -125, -81, 128, 308, 685, 302, 203, 74, 80, 129
270413055, -517, 13826, -7499, 4557, 1841, -1198, -3230, 874, -125, -81, 153, 314, 654, 278, 211, 85, 124, 286
270413883, -517, 13826, -7499, 4557, 1841, -1198, -3230, 874, -125, -81, 153, 314, 654, 278, 211, 85, 124, 286
270418892, -517, 13826, -7499, 4557, 1841, -1198, -3230, 874, -125, -81, 153, 314, 654, 278, 211, 85, 124, 286
270419720, -517, 13826, -7499, 4557, 1841, -1198, -3230, 874, -125, -81, 153, 314, 654, 278, 211, 85, 124, 286
270420532, -517, 13826, -7499, 4557, 1841, -1198, -3230, 874, -125, -81, 153, 314, 654, 278, 211, 85, 124, 286
270421353, -517, 13826, -7499, 4557, 1841, -1198, -3230, 874, -125, -81, 153, 314, 654, 278, 211, 85, 124, 286
270426256, -517, 13826, -7499, 4557, 1841, -1198, -3230, 874, -125, -81, 153, 314, 654, 278, 211, 85, 124, 286
270427110, -517, 13826, -7499, 4557, 1841, -1198, -3230, 874, -125, -81, 153, 314, 654, 278, 211, 85, 124, 286
270427906, -517, 13826, -7499, 4557, 1841, -1198, -3230, 874, -125, -81, 153, 314, 654, 278, 211, 85, 124, 286
270428747, -517, 13826, -7499, 4557, 1841, -1198, -3230, 874, -125, -81, 153, 314, 654, 278, 211, 85, 124, 286
270433835, -517, 13826, -7499, 4557, 1841, -1198, -3230, 874, -125, -81, 153, 314, 654, 278, 211, 85, 124, 286
270434825, -741, 13828, -7429, 4635, 1662, -1722, -3162, 1149, -227, -117, 153, 314, 654, 278, 211, 85, 124, 286
270435644, -741, 13828, -7429, 4635, 1662, -1722, -3162, 1149, -227, -117, 167, 311, 914, 278, 197, 92, 137, 322
270436406, -741, 13828, -7429, 4635, 1662, -1722, -3162, 1149, -227, -117, 167, 311, 914, 278, 197, 92, 137, 322
270441409, -741, 13828, -7429, 4635, 1662, -1722, -3162, 1149, -227, -117, 167, 311, 914, 278, 197, 92, 137, 322
270442253, -741, 13828, -7429, 4635, 1662, -1722, -3162, 1149, -227, -117, 167, 311, 914, 278, 197, 92, 137, 322
270443033, -741, 13828, -7429, 4635, 1662, -1722, -3162, 1149, -227, -117, 167, 311, 914, 278, 197, 92, 137, 322
270443874, -741, 13828, -7429, 4635, 1662, -1722, -3162, 1149, -227, -117, 167, 311, 914, 278, 197, 92, 137, 322
270448814, -741, 13828, -7429, 4635, 1662, -1722, -3162, 1149, -227, -117, 167, 311, 914, 278, 197, 92, 137, 322
270449631, -741, 13828, -7429, 4635, 1662, -1722, -3162, 1149, -227, -117, 167, 311, 914, 278, 197, 92, 137, 322
270450440, -741, 13828, -7429, 4635, 1662, -1722, -3162, 1149, -227, -117, 167, 311, 914, 278, 197, 92, 137, 322
270451285, -741, 13828, -7429, 4635, 1662, -1722, -3162, 1149, -227, -117, 167, 311, 914, 278, 197, 92, 137, 322
270456313, -741, 13828, -7429, 4635, 1662, -1722, -3162, 1149, -227, -117, 167, 311, 914, 278, 197, 92, 137, 322
270457258, -1032, 13851, -7295, 4721, 1568, -1804, -3150, 1750, -392, -282, 167, 311, 914, 278, 197, 92, 137, 322
270458085, -1032, 13851, -7295, 4721, 1568, -1804, -3150, 1750, -392, -282, 193, 351, 1014, 452, 193, 93, 136, 345
270458882, -1032, 13851, -7295, 4721, 1568, -1804, -3150, 1750, -392, -282, 193, 351, 1014, 452, 193, 93, 136, 345
270463911, -1032, 13851, -7295, 4721, 1568, -1804, -3150, 1750, -392, -282, 193, 351, 1014, 452, 193, 93, 136, 345
270464729, -1032, 13851, -7295, 4721, 1568, -1804, -3150, 1750, -392, -282, 193, 351, 1014, 452, 193, 93, 136, 345
270465538, -1032, 13851, -7295, 4721, 1568, -1804, -3150, 1750, -392, -282, 193, 351, 1014, 452, 193, 93, 136, 345
270466350, -1032, 13851, -7295, 4721, 1568, -1804, -3150, 1750, -392, -282, 193, 351, 1014, 452, 193, 93, 136, 345
270471323, -1032, 13851, -7295, 4721, 1568, -1804, -3150, 1750, -392, -282, 193, 351, 1014, 452, 193, 93, 136, 345
270472129, -1032, 13851, -7295, 4721, 1568, -1804, -3150, 1750, -392, -282, 193, 351, 1014, 452, 193, 93, 136, 345
270472936, -1032, 13851, -7295, 4721, 1568, -1804, -3150, 1750, -392, -282, 193, 351, 1014, 452, 193, 93, 136, 345
270473753, -1032, 13851, -7295, 4721, 1568, -1804, -3150, 1750, -392, -282, 193, 351, 1014, 452, 193, 93, 136, 345
270478828, -1032, 13851, -7295, 4721, 1568, -1804, -3150, 1750, -392, -282, 193, 351, 1014, 452, 193, 93, 136, 345
270479734, -1388, 13880, -7107, 4831, 1708, -1637, -3179, 2245, -489, -424, 193, 351, 1014, 452, 193, 93, 136, 345
270480565, -1388, 13880, -7107, 4831, 1708, -1637, -3179, 2245, -489, -424, 227, 350, 1019, 546, 195, 104, 161, 423
270481357, -1388, 13880, -7107, 4831, 1708, -1637, -3179, 2245, -489, -424, 227, 350, 1019, 546, 195, 104, 161, 423
270486364, -1388, 13880, -7107, 4831, 1708, -1637, -3179, 2245, -489, -424, 227, 350, 1019, 546, 195, 104, 161, 423
270487218, -1388, 13880, -7107, 4831, 1708, -1637, -3179, 2245, -489, -424, 227, 350, 1019, 546, 195, 104, 161, 423
270488008, -1388, 13880, -7107, 4831, 1708, -1637, -3179, 2245, -489, -424, 227, 350, 1019, 546, 195, 104, 161, 423
270488818, -1388, 13880, -7107, 4831, 1708, -1637, -3179, 2245, -489, -424, 227, 350, 1019, 546, 195, 104, 161, 423
270493781, -1388, 13880, -7107, 4831, 1708, -1637, -3179, 2245, -489, -424, 227, 350, 1019, 546, 195, 104, 161, 423
270494631, -1388, 13880, -7107, 4831, 1708, -1637, -3179, 2245, -489, -424, 227, 350, 1019, 546, 195, 104, 161, 423
270495384, -1388, 13880, -7107, 4831, 1708, -1637, -3179, 2245, -489, -424, 227, 350, 1019, 546, 195, 104, 161, 423
270496214, -1388, 13880, -7107, 4831, 1708, -1637, -3179, 2245, -489, -424, 227, 350, 1019, 546, 195, 104, 161, 423
270501348, -1388, 13880, -7107, 4831, 1708, -1637, -3179, 2245, -489, -424, 227, 350, 1019, 546, 195, 104, 161, 423
270502282, -1762, 13900, -6903, 4945, 1820, -1410, -3118, 2409, -516, -425, 227, 350, 1019, 546, 195, 104, 161, 423
270503088, -1762, 13900, -6903, 4945, 1820, -1410, -3118, 2409, -516, -425, 254, 391, 1036, 589, 220, 114, 174, 482
270503898, -1762, 13900, -6903, 4945, 1820, -1410, -3118, 2409, -516, -425, 254, 391, 1036, 589, 220, 114, 174, 482
270508931, -1762, 13900, -6903, 4945, 1820, -1410, -3118, 2409, -516, -425, 254, 391, 1036, 589, 220, 114, 174, 482
270509741, -1762, 13900, -6903, 4945, 1820, -1410, -3118, 2409, -516, -425, 254, 391, 1036, 589, 220, 114, 174, 482
270510531, -1762, 13900, -6903, 4945, 1820, -1410, -3118, 2409, -516, -425, 254, 391, 1036, 589, 220, 114, 174, 482
270511371, -1762, 13900, -6903, 4945, 1820, -1410, -3118, 2409, -516, -425, 254, 391, 1036, 589, 220, 114, 174, 482
