Timestamp, Orientation x, Orientation y, Orientation z, Orientation w, Acceleration x, Acceleration y, Acceleration z, Rotation x, Rotation y, Rotation z, EMG 0, EMG 1, EMG 2, EMG 3, EMG 4, EMG 5, EMG 6, EMG 7
279462119, 10472, 5691, -9594, 5860, 3114, -56, -3632, -4, 6, -46, 0, 0, 0, 0, 0, 0, 0, 0
279462915, 10477, 5693, -9591, 5853, 3127, -46, -3637, -21, 9, -48, 0, 0, 0, 0, 0, 0, 0, 0
279476461, 10481, 5696, -9590, 5845, 3131, -38, -3629, -20, -3, -48, 0, 0, 0, 0, 0, 0, 0, 0
279498937, 10485, 5698, -9591, 5833, 3139, -54, -3625, -42, -20, -53, 0, 0, 0, 0, 0, 0, 0, 0
279513952, 10486, 5703, -9594, 5822, 3135, -69, -3592, -22, -39, -56, 0, 0, 0, 0, 0, 0, 0, 0
279529564, 10486, 5703, -9594, 5822, 3135, -69, -3592, -22, -39, -56, 53, 87, 62, 66, 98, 87, 57, 47
279530358, 10486, 5703, -9594, 5822, 3135, -69, -3592, -22, -39, -56, 53, 87, 62, 66, 98, 87, 57, 47
279536553, 10482, 5717, -9593, 5818, 3158, -69, -3625, 42, -46, -53, 53, 87, 62, 66, 98, 87, 57, 47
279552044, 10482, 5717, -9593, 5818, 3158, -69, -3625, 42, -46, -53, 57, 88, 66, 76, 105, 92, 62, 54
279552857, 10482, 5717, -9593, 5818, 3158, -69, -3625, 42, -46, -53, 57, 88, 66, 76, 105, 92, 62, 54
279559026, 10475, 5732, -9594, 5815, 3160, -52, -3681, 56, -64, -46, 57, 88, 66, 76, 105, 92, 62, 54
279575302, 10475, 5732, -9594, 5815, 3160, -52, -3681, 56, -64, -46, 59, 89, 68, 76, 105, 100, 80, 62
279576085, 10475, 5732, -9594, 5815, 3160, -52, -3681, 56, -64, -46, 59, 89, 68, 76, 105, 100, 80, 62
279577009, 10470, 5747, -9592, 5811, 3156, -41, -3704, 55, -46, -56, 59, 89, 68, 76, 105, 100, 80, 62
279590148, 10470, 5747, -9592, 5811, 3156, -41, -3704, 55, -46, -56, 83, 132, 106, 101, 126, 109, 86, 76
279590924, 10470, 5747, -9592, 5811, 3156, -41, -3704, 55, -46, -56, 83, 132, 106, 101, 126, 109, 86, 76
279596525, 10470, 5758, -9589, 5805, 3143, -31, -3722, 24, -23, -69, 83, 132, 106, 101, 126, 109, 86, 76
279612054, 10470, 5758, -9589, 5805, 3143, -31, -3722, 24, -23, -69, 83, 132, 108, 110, 157, 130, 95, 79
279612856, 10470, 5758, -9589, 5805, 3143, -31, -3722, 24, -23, -69, 83, 132, 108, 110, 157, 130, 95, 79
279619013, 10470, 5768, -9583, 5804, 3134, 3, -3741, 42, -1, -44, 83, 132, 108, 110, 157, 130, 95, 79
279635236, 10470, 5768, -9583, 5804, 3134, 3, -3741, 42, -1, -44, 76, 127, 103, 109, 163, 126, 90, 77
279636079, 10470, 5768, -9583, 5804, 3134, 3, -3741, 42, -1, -44, 76, 127, 103, 109, 163, 126, 90, 77
279637000, 10472, 5769, -9576, 5812, 3129, -20, -3723, 41, 47, 7, 76, 127, 103, 109, 163, 126, 90, 77
279649581, 10472, 5769, -9576, 5812, 3129, -20, -3723, 41, 47, 7, 76, 135, 110, 117, 164, 125, 88, 75
279650395, 10472, 5769, -9576, 5812, 3129, -20, -3723, 41, 47, 7, 76, 135, 110, 117, 164, 125, 88, 75
279656551, 10476, 5761, -9571, 5821, 3111, -56, -3638, 3, 63, 36, 76, 135, 110, 117, 164, 125, 88, 75
279672073, 10476, 5761, -9571, 5821, 3111, -56, -3638, 3, 63, 36, 95, 152, 117, 121, 170, 126, 77, 79
279672884, 10476, 5761, -9571, 5821, 3111, -56, -3638, 3, 63, 36, 95, 152, 117, 121, 170, 126, 77, 79
279679032, 10480, 5759, -9562, 5831, 3113, -69, -3622, 31, 65, 20, 95, 152, 117, 121, 170, 126, 77, 79
279695234, 10480, 5759, -9562, 5831, 3113, -69, -3622, 31, 65, 20, 78, 123, 88, 108, 161, 123, 72, 64
279696032, 10480, 5759, -9562, 5831, 3113, -69, -3622, 31, 65, 20, 78, 123, 88, 108, 161, 123, 72, 64
279696987, 10484, 5755, -9555, 5839, 3104, -61, -3619, 19, 66, 18, 78, 123, 88, 108, 161, 123, 72, 64
279709532, 10484, 5755, -9555, 5839, 3104, -61, -3619, 19, 66, 18, 109, 122, 88, 96, 129, 118, 92, 115
279710397, 10484, 5755, -9555, 5839, 3104, -61, -3619, 19, 66, 18, 109, 122, 88, 96, 129, 118, 92, 115
279716514, 10487, 5752, -9547, 5850, 3118, -77, -3650, 37, 62, 28, 109, 122, 88, 96, 129, 118, 92, 115
279732055, 10487, 5752, -9547, 5850, 3118, -77, -3650, 37, 62, 28, 155, 140, 97, 95, 123, 164, 161, 197
279732856, 10487, 5752, -9547, 5850, 3118, -77, -3650, 37, 62, 28, 155, 140, 97, 95, 123, 164, 161, 197
279739024, 10493, 5744, -9544, 5852, 3111, -124, -3627, -28, 54, 13, 155, 140, 97, 95, 123, 164, 161, 197
279755244, 10493, 5744, -9544, 5852, 3111, -124, -3627, -28, 54, 13, 192, 137, 85, 85, 128, 176, 200, 260
279756037, 10493, 5744, -9544, 5852, 3111, -124, -3627, -28, 54, 13, 192, 137, 85, 85, 128, 176, 200, 260
279756959, 10496, 5729, -9552, 5847, 3094, 154, -3550, -95, -1, 43, 192, 137, 85, 85, 128, 176, 200, 260
279769508, 10496, 5729, -9552, 5847, 3094, 154, -3550, -95, -1, 43, 218, 140, 90, 103, 149, 193, 227, 306
279770371, 10496, 5729, -9552, 5847, 3094, 154, -3550, -95, -1, 43, 218, 140, 90, 103, 149, 193, 227, 306
279776540, 10488, 5722, -9554, 5866, 3212, 194, -3759, 50, 17, 104, 218, 140, 90, 103, 149, 193, 227, 306
279792068, 10488, 5722, -9554, 5866, 3212, 194, -3759, 50, 17, 104, 226, 138, 94, 98, 152, 196, 236, 319
279792909, 10488, 5722, -9554, 5866, 3212, 194, -3759, 50, 17, 104, 226, 138, 94, 98, 152, 196, 236, 319
279799061, 10511, 5708, -9539, 5863, 3258, -293, -3849, -74, 151, -35, 226, 138, 94, 98, 152, 196, 236, 319
279815207, 10511, 5708, -9539, 5863, 3258, -293, -3849, -74, 151, -35, 222, 154, 105, 116, 190, 199, 232, 310
279816059, 10511, 5708, -9539, 5863, 3258, -293, -3849, -74, 151, -35, 222, 154, 105, 116, 190, 199, 232, 310
279816959, 10553, 5675, -9551, 5799, 3009, -307, -3402, -435, 34, -188, 222, 154, 105, 116, 190, 199, 232, 310
279829559, 10553, 5675, -9551, 5799, 3009, -307, -3402, -435, 34, -188, 206, 149, 119, 150, 240, 221, 211, 276
279830362, 10553, 5675, -9551, 5799, 3009, -307, -3402, -435, 34, -188, 206, 149, 119, 150, 240, 221, 211, 276
279836548, 10545, 5675, -9573, 5777, 2909, 1, -3407, -98, -150, -19, 206, 149, 119, 150, 240, 221, 211, 276
279852062, 10545, 5675, -9573, 5777, 2909, 1, -3407, -98, -150, -19, 197, 190, 171, 189, 289, 286, 197, 243
279852858, 10545, 5675, -9573, 5777, 2909, 1, -3407, -98, -150, -19, 197, 190, 171, 189, 289, 286, 197, 243
279859019, 10460, 5756, -9559, 5873, 3164, -11, -3741, 795, -200, 219, 197, 190, 171, 189, 289, 286, 197, 243
279875274, 10460, 5756, -9559, 5873, 3164, -11, -3741, 795, -200, 219, 167, 182, 173, 210, 314, 361, 258, 211
279876079, 10460, 5756, -9559, 5873, 3164, -11, -3741, 795, -200, 219, 167, 182, 173, 210, 314, 361, 258, 211
279876983, 10430, 5769, -9569, 5897, 3228, 117, -3887, 163, -114, 124, 167, 182, 173, 210, 314, 361, 258, 211
279889513, 10430, 5769, -9569, 5897, 3228, 117, -3887, 163, -114, 124, 159, 185, 176, 220, 324, 385, 279, 204
279890350, 10430, 5769, -9569, 5897, 3228, 117, -3887, 163, -114, 124, 159, 185, 176, 220, 324, 385, 279, 204
279896484, 10431, 5745, -9605, 5861, 3117, 86, -3610, -274, -146, 17, 159, 185, 176, 220, 324, 385, 279, 204
279912089, 10431, 5745, -9605, 5861, 3117, 86, -3610, -274, -146, 17, 155, 180, 180, 222, 323, 398, 300, 206
279912882, 10431, 5745, -9605, 5861, 3117, 86, -3610, -274, -146, 17, 155, 180, 180, 222, 323, 398, 300, 206
279919057, 10436, 5739, -9614, 5844, 3119, -246, -3643, -109, -41, -31, 155, 180, 180, 222, 323, 398, 300, 206
279935251, 10436, 5739, -9614, 5844, 3119, -246, -3643, -109, -41, -31, 158, 211, 180, 205, 289, 384, 295, 206
279936059, 10436, 5739, -9614, 5844, 3119, -246, -3643, -109, -41, -31, 158, 211, 180, 205, 289, 384, 295, 206
279936958, 10448, 5755, -9594, 5840, 3160, -374, -3682, 63, 71, -133, 158, 211, 180, 205, 289, 384, 295, 206
279949559, 10448, 5755, -9594, 5840, 3160, -374, -3682, 63, 71, -133, 125, 177, 142, 182, 250, 340, 285, 180
279950357, 10448, 5755, -9594, 5840, 3160, -374, -3682, 63, 71, -133, 125, 177, 142, 182, 250, 340, 285, 180
279956537, 10460, 5770, -9579, 5828, 3150, -42, -3645, 18, 39, -146, 125, 177, 142, 182, 250, 340, 285, 180
279980265, 10460, 5770, -9579, 5828, 3150, -42, -3645, 18, 39, -146, 127, 179, 142, 154, 207, 274, 225, 156
279981054, 10460, 5770, -9579, 5828, 3150, -42, -3645, 18, 39, -146, 127, 179, 142, 154, 207, 274, 225, 156
279981985, 10454, 5770, -9582, 5833, 3079, 228, -3637, 23, -17, 33, 127, 179, 142, 154, 207, 274, 225, 156
279995213, 10454, 5770, -9582, 5833, 3079, 228, -3637, 23, -17, 33, 183, 314, 202, 172, 211, 246, 196, 150
279996018, 10454, 5770, -9582, 5833, 3079, 228, -3637, 23, -17, 33, 183, 314, 202, 172, 211, 246, 196, 150
279996960, 10450, 5744, -9607, 5825, 3109, 115, -3670, -163, -66, 119, 183, 314, 202, 172, 211, 246, 196, 150
280009563, 10450, 5744, -9607, 5825, 3109, 115, -3670, -163, -66, 119, 188, 327, 223, 190, 198, 220, 171, 153
280010378, 10450, 5744, -9607, 5825, 3109, 115, -3670, -163, -66, 119, 188, 327, 223, 190, 198, 220, 171, 153
280016527, 10464, 5713, -9623, 5806, 3185, -153, -3789, -232, 11, 37, 188, 327, 223, 190, 198, 220, 171, 153
280032031, 10464, 5713, -9623, 5806, 3185, -153, -3789, -232, 11, 37, 173, 301, 212, 185, 197, 199, 156, 133
280032896, 10464, 5713, -9623, 5806, 3185, -153, -3789, -232, 11, 37, 173, 301, 212, 185, 197, 199, 156, 133
280039031, 10480, 5698, -9628, 5782, 3077, -192, -3639, -176, 15, -61, 173, 301, 212, 185, 197, 199, 156, 133
280055263, 10480, 5698, -9628, 5782, 3077, -192, -3639, -176, 15, -61, 172, 299, 206, 176, 192, 216, 159, 130
280056034, 10480, 5698, -9628, 5782, 3077, -192, -3639, -176, 15, -61, 172, 299, 206, 176, 192, 216, 159, 130
280056984, 10477, 5714, -9615, 5792, 3078, -78, -3605, 121, 25, -38, 172, 299, 206, 176, 192, 216, 159, 130
280069548, 10477, 5714, -9615, 5792, 3078, -78, -3605, 121, 25, -38, 167, 302, 204, 174, 201, 191, 137, 120
280070332, 10477, 5714, -9615, 5792, 3078, -78, -3605, 121, 25, -38, 167, 302, 204, 174, 201, 191, 137, 120
280076526, 10469, 5734, -9592, 5825, 3137, -5, -3735, 241, 82, 25, 167, 302, 204, 174, 201, 191, 137, 120
280092012, 10469, 5734, -9592, 5825, 3137, -5, -3735, 241, 82, 25, 101, 160, 143, 142, 174, 186, 130, 110
280092858, 10469, 5734, -9592, 5825, 3137, -5, -3735, 241, 82, 25, 101, 160, 143, 142, 174, 186, 130, 110
280106511, 10469, 5733, -9582, 5843, 3091, -17, -3656, 74, 72, 46, 101, 160, 143, 142, 174, 186, 130, 110
280115234, 10469, 5733, -9582, 5843, 3091, -17, -3656, 74, 72, 46, 75, 118, 99, 110, 176, 197, 121, 88
280116097, 10469, 5733, -9582, 5843, 3091, -17, -3656, 74, 72, 46, 75, 118, 99, 110, 176, 197, 121, 88
280116984, 10470, 5741, -9573, 5848, 3105, -115, -3571, 65, 27, -25, 75, 118, 99, 110, 176, 197, 121, 88
280128879, 10470, 5741, -9573, 5848, 3105, -115, -3571, 65, 27, -25, 78, 125, 103, 110, 175, 197, 129, 89
280137081, 10470, 5741, -9573, 5848, 3105, -115, -3571, 65, 27, -25, 78, 125, 103, 110, 175, 197, 129, 89
280138032, 10468, 5753, -9567, 5850, 3152, -30, -3684, 64, -2, -44, 78, 125, 103, 110, 175, 197, 129, 89
280151999, 10468, 5753, -9567, 5850, 3152, -30, -3684, 64, -2, -44, 76, 119, 100, 107, 177, 181, 119, 90
280152834, 10468, 5753, -9567, 5850, 3152, -30, -3684, 64, -2, -44, 76, 119, 100, 107, 177, 181, 119, 90
280158934, 10465, 5756, -9562, 5860, 3127, 22, -3651, 55, 19, 25, 76, 119, 100, 107, 177, 181, 119, 90
280182714, 10465, 5756, -9562, 5860, 3127, 22, -3651, 55, 19, 25, 65, 92, 92, 104, 166, 169, 108, 86
280183507, 10465, 5756, -9562, 5860, 3127, 22, -3651, 55, 19, 25, 65, 92, 92, 104, 166, 169, 108, 86
280184448, 10463, 5748, -9567, 5863, 3083, 21, -3638, -20, -5, 48, 65, 92, 92, 104, 166, 169, 108, 86
280188953, 10463, 5748, -9567, 5863, 3083, 21, -3638, -20, -5, 48, 62, 86, 96, 118, 178, 176, 105, 86
280197735, 10463, 5748, -9567, 5863, 3083, 21, -3638, -20, -5, 48, 62, 86, 96, 118, 178, 176, 105, 86
280198513, 10463, 5748, -9567, 5863, 3083, 21, -3638, -20, -5, 48, 62, 86, 96, 118, 178, 176, 105, 86
280199486, 10465, 5743, -9573, 5854, 3080, -86, -3623, -69, -20, -7, 62, 86, 96, 118, 178, 176, 105, 86
280212063, 10465, 5743, -9573, 5854, 3080, -86, -3623, -69, -20, -7, 59, 83, 89, 110, 161, 153, 93, 83
280212854, 10465, 5743, -9573, 5854, 3080, -86, -3623, -69, -20, -7, 59, 83, 89, 110, 161, 153, 93, 83
