Timestamp, Orientation x, Orientation y, Orientation z, Orientation w, Acceleration x, Acceleration y, Acceleration z, Rotation x, Rotation y, Rotation z, EMG 0, EMG 1, EMG 2, EMG 3, EMG 4, EMG 5, EMG 6, EMG 7
136973610, 3523, 6071, -14751, 1260, 582, -591, -3524, -158, 2241, -1056, 0, 0, 0, 0, 0, 0, 0, 0
136981079, 3865, 6194, -14600, 1406, 775, -540, -3577, 158, 2298, -941, 0, 0, 0, 0, 0, 0, 0, 0
137003569, 4186, 6315, -14437, 1610, 871, -688, -3666, 484, 2351, -883, 0, 0, 0, 0, 0, 0, 0, 0
137018577, 4478, 6457, -14256, 1861, 822, -641, -3744, 834, 2359, -941, 0, 0, 0, 0, 0, 0, 0, 0
137042406, 4766, 6583, -14064, 2144, 899, -483, -3867, 1000, 2463, -821, 0, 0, 0, 0, 0, 0, 0, 0
137043243, 4766, 6583, -14064, 2144, 899, -483, -3867, 1000, 2463, -821, 86, 67, 64, 59, 153, 256, 194, 145
137044075, 4766, 6583, -14064, 2144, 899, -483, -3867, 1000, 2463, -821, 86, 67, 64, 59, 153, 256, 194, 145
137064901, 5083, 6673, -13860, 2444, 988, -369, -4075, 988, 2721, -667, 86, 67, 64, 59, 153, 256, 194, 145
137065711, 5083, 6673, -13860, 2444, 988, -369, -4075, 988, 2721, -667, 90, 70, 71, 67, 189, 288, 206, 139
137066543, 5083, 6673, -13860, 2444, 988, -369, -4075, 988, 2721, -667, 90, 70, 71, 67, 189, 288, 206, 139
137078559, 5439, 6745, -13630, 2753, 1213, -455, -4265, 926, 3011, -663, 90, 70, 71, 67, 189, 288, 206, 139
137086739, 5439, 6745, -13630, 2753, 1213, -455, -4265, 926, 3011, -663, 91, 78, 71, 84, 243, 316, 225, 142
137087538, 5439, 6745, -13630, 2753, 1213, -455, -4265, 926, 3011, -663, 91, 78, 71, 84, 243, 316, 225, 142
137102460, 5794, 6796, -13390, 3064, 1340, -671, -4090, 895, 3055, -606, 91, 78, 71, 84, 243, 316, 225, 142
137103241, 5794, 6796, -13390, 3064, 1340, -671, -4090, 895, 3055, -606, 99, 73, 82, 117, 285, 419, 324, 155
137104056, 5794, 6796, -13390, 3064, 1340, -671, -4090, 895, 3055, -606, 99, 73, 82, 117, 285, 419, 324, 155
137124921, 6117, 6818, -13155, 3387, 1456, -675, -3617, 969, 2922, -407, 99, 73, 82, 117, 285, 419, 324, 155
137125717, 6117, 6818, -13155, 3387, 1456, -675, -3617, 969, 2922, -407, 105, 81, 91, 130, 345, 495, 396, 160
137126545, 6117, 6818, -13155, 3387, 1456, -675, -3617, 969, 2922, -407, 105, 81, 91, 130, 345, 495, 396, 160
137138559, 6381, 6857, -12904, 3769, 1679, -939, -3374, 1412, 2788, -359, 105, 81, 91, 130, 345, 495, 396, 160
137146704, 6381, 6857, -12904, 3769, 1679, -939, -3374, 1412, 2788, -359, 104, 74, 90, 146, 376, 630, 508, 186
137147482, 6381, 6857, -12904, 3769, 1679, -939, -3374, 1412, 2788, -359, 104, 74, 90, 146, 376, 630, 508, 186
137162401, 6595, 6961, -12603, 4203, 1853, -1156, -3417, 1962, 2737, -605, 104, 74, 90, 146, 376, 630, 508, 186
137163169, 6595, 6961, -12603, 4203, 1853, -1156, -3417, 1962, 2737, -605, 106, 75, 89, 154, 435, 788, 636, 229
137163984, 6595, 6961, -12603, 4203, 1853, -1156, -3417, 1962, 2737, -605, 106, 75, 89, 154, 435, 788, 636, 229
137184914, 6782, 7089, -12276, 4633, 2024, -1031, -3620, 2130, 2674, -723, 106, 75, 89, 154, 435, 788, 636, 229
137185753, 6782, 7089, -12276, 4633, 2024, -1031, -3620, 2130, 2674, -723, 108, 71, 89, 156, 426, 806, 663, 233
137186538, 6782, 7089, -12276, 4633, 2024, -1031, -3620, 2130, 2674, -723, 108, 71, 89, 156, 426, 806, 663, 233
137198612, 6943, 7208, -11958, 5027, 1950, -867, -3491, 2025, 2481, -693, 108, 71, 89, 156, 426, 806, 663, 233
137206717, 6943, 7208, -11958, 5027, 1950, -867, -3491, 2025, 2481, -693, 108, 78, 76, 156, 463, 883, 701, 235
137207510, 6943, 7208, -11958, 5027, 1950, -867, -3491, 2025, 2481, -693, 108, 78, 76, 156, 463, 883, 701, 235
137222415, 7073, 7310, -11651, 5406, 2050, -680, -3305, 1991, 2312, -550, 108, 78, 76, 156, 463, 883, 701, 235
137223200, 7073, 7310, -11651, 5406, 2050, -680, -3305, 1991, 2312, -550, 106, 72, 70, 171, 437, 863, 674, 229
137224032, 7073, 7310, -11651, 5406, 2050, -680, -3305, 1991, 2312, -550, 106, 72, 70, 171, 437, 863, 674, 229
137244933, 7192, 7374, -11372, 5743, 2308, -652, -3053, 1723, 2139, -406, 106, 72, 70, 171, 437, 863, 674, 229
137245723, 7192, 7374, -11372, 5743, 2308, -652, -3053, 1723, 2139, -406, 114, 80, 86, 182, 453, 818, 602, 211
137246514, 7192, 7374, -11372, 5743, 2308, -652, -3053, 1723, 2139, -406, 114, 80, 86, 182, 453, 818, 602, 211
137258601, 7299, 7391, -11137, 6040, 2609, -378, -2771, 1407, 1946, -148, 114, 80, 86, 182, 453, 818, 602, 211
137266696, 7299, 7391, -11137, 6040, 2609, -378, -2771, 1407, 1946, -148, 113, 83, 90, 180, 423, 720, 507, 168
137267520, 7299, 7391, -11137, 6040, 2609, -378, -2771, 1407, 1946, -148, 113, 83, 90, 180, 423, 720, 507, 168
137282410, 7413, 7349, -10970, 6255, 2880, -389, -2653, 790, 1704, 31, 113, 83, 90, 180, 423, 720, 507, 168
137283234, 7413, 7349, -10970, 6255, 2880, -389, -2653, 790, 1704, 31, 127, 95, 105, 186, 431, 751, 493, 171
137284032, 7413, 7349, -10970, 6255, 2880, -389, -2653, 790, 1704, 31, 127, 95, 105, 186, 431, 751, 493, 171
137304962, 7449, 7286, -10944, 6331, 2910, -856, -2577, 109, 1426, 15, 127, 95, 105, 186, 431, 751, 493, 171
137305737, 7449, 7286, -10944, 6331, 2910, -856, -2577, 109, 1426, 15, 122, 93, 113, 172, 374, 660, 389, 142
137306586, 7449, 7286, -10944, 6331, 2910, -856, -2577, 109, 1426, 15, 122, 93, 113, 172, 374, 660, 389, 142
137318536, 7449, 7206, -10962, 6391, 2927, -1396, -2528, -72, 1164, -54, 122, 93, 113, 172, 374, 660, 389, 142
137326734, 7449, 7206, -10962, 6391, 2927, -1396, -2528, -72, 1164, -54, 120, 93, 116, 161, 369, 635, 362, 138
137327535, 7449, 7206, -10962, 6391, 2927, -1396, -2528, -72, 1164, -54, 120, 93, 116, 161, 369, 635, 362, 138
137342439, 7391, 7157, -10979, 6483, 3007, -1650, -2431, 246, 901, -60, 120, 93, 116, 161, 369, 635, 362, 138
137343259, 7391, 7157, -10979, 6483, 3007, -1650, -2431, 246, 901, -60, 115, 90, 115, 142, 329, 626, 373, 131
137344031, 7391, 7157, -10979, 6483, 3007, -1650, -2431, 246, 901, -60, 115, 90, 115, 142, 329, 626, 373, 131
137364913, 7263, 7162, -10976, 6626, 3188, -1623, -2446, 818, 674, 38, 115, 90, 115, 142, 329, 626, 373, 131
137365699, 7263, 7162, -10976, 6626, 3188, -1623, -2446, 818, 674, 38, 122, 98, 125, 162, 327, 634, 353, 141
137366534, 7263, 7162, -10976, 6626, 3188, -1623, -2446, 818, 674, 38, 122, 98, 125, 162, 327, 634, 353, 141
137378558, 7086, 7197, -10968, 6792, 3322, -1662, -2489, 1140, 481, 112, 122, 98, 125, 162, 327, 634, 353, 141
137386734, 7086, 7197, -10968, 6792, 3322, -1662, -2489, 1140, 481, 112, 120, 103, 130, 165, 318, 628, 360, 139
137387519, 7086, 7197, -10968, 6792, 3322, -1662, -2489, 1140, 481, 112, 120, 103, 130, 165, 318, 628, 360, 139
137402434, 6869, 7272, -10953, 6957, 3383, -1688, -2568, 1373, 278, 79, 120, 103, 130, 165, 318, 628, 360, 139
137403271, 6869, 7272, -10953, 6957, 3383, -1688, -2568, 1373, 278, 79, 129, 105, 130, 184, 314, 580, 366, 161
137404078, 6869, 7272, -10953, 6957, 3383, -1688, -2568, 1373, 278, 79, 129, 105, 130, 184, 314, 580, 366, 161
137424906, 6616, 7384, -10939, 7104, 3375, -1624, -2789, 1536, 90, 62, 129, 105, 130, 184, 314, 580, 366, 161
137425712, 6616, 7384, -10939, 7104, 3375, -1624, -2789, 1536, 90, 62, 130, 106, 132, 176, 338, 653, 372, 153
137426553, 6616, 7384, -10939, 7104, 3375, -1624, -2789, 1536, 90, 62, 130, 106, 132, 176, 338, 653, 372, 153
137438603, 6365, 7508, -10944, 7194, 3373, -1479, -2870, 1351, -121, 42, 130, 106, 132, 176, 338, 653, 372, 153
137446665, 6365, 7508, -10944, 7194, 3373, -1479, -2870, 1351, -121, 42, 121, 104, 123, 177, 331, 592, 378, 149
137447481, 6365, 7508, -10944, 7194, 3373, -1479, -2870, 1351, -121, 42, 121, 104, 123, 177, 331, 592, 378, 149
137462416, 6125, 7614, -10990, 7222, 3337, -1591, -2730, 921, -401, 22, 121, 104, 123, 177, 331, 592, 378, 149
137463214, 6125, 7614, -10990, 7222, 3337, -1591, -2730, 921, -401, 22, 113, 104, 148, 189, 315, 546, 352, 138
137463993, 6125, 7614, -10990, 7222, 3337, -1591, -2730, 921, -401, 22, 113, 104, 148, 189, 315, 546, 352, 138
137484938, 5848, 7733, -11069, 7206, 3313, -1711, -2541, 738, -919, 28, 113, 104, 148, 189, 315, 546, 352, 138
137485698, 5848, 7733, -11069, 7206, 3313, -1711, -2541, 738, -919, 28, 102, 96, 141, 197, 331, 587, 344, 145
137486508, 5848, 7733, -11069, 7206, 3313, -1711, -2541, 738, -919, 28, 102, 96, 141, 197, 331, 587, 344, 145
137498585, 5464, 7895, -11180, 7159, 3360, -1616, -2796, 963, -1559, 258, 102, 96, 141, 197, 331, 587, 344, 145
137506723, 5464, 7895, -11180, 7159, 3360, -1616, -2796, 963, -1559, 258, 103, 98, 149, 197, 359, 646, 343, 143
137507483, 5464, 7895, -11180, 7159, 3360, -1616, -2796, 963, -1559, 258, 103, 98, 149, 197, 359, 646, 343, 143
137522425, 5019, 8076, -11302, 7091, 2700, -1420, -2973, 1014, -2371, 552, 103, 98, 149, 197, 359, 646, 343, 143
137523283, 5019, 8076, -11302, 7091, 2700, -1420, -2973, 1014, -2371, 552, 110, 104, 161, 216, 364, 657, 398, 172
137524015, 5019, 8076, -11302, 7091, 2700, -1420, -2973, 1014, -2371, 552, 110, 104, 161, 216, 364, 657, 398, 172
137544937, 4462, 8292, -11472, 6940, 2101, -1369, -3510, 974, -3136, 670, 110, 104, 161, 216, 364, 657, 398, 172
137545737, 4462, 8292, -11472, 6940, 2101, -1369, -3510, 974, -3136, 670, 113, 106, 160, 226, 401, 755, 445, 172
137546578, 4462, 8292, -11472, 6940, 2101, -1369, -3510, 974, -3136, 670, 113, 106, 160, 226, 401, 755, 445, 172
137558596, 3842, 8521, -11684, 6673, 1423, -1272, -3891, 638, -3763, 704, 113, 106, 160, 226, 401, 755, 445, 172
137566686, 3842, 8521, -11684, 6673, 1423, -1272, -3891, 638, -3763, 704, 114, 102, 132, 212, 453, 812, 467, 169
137567506, 3842, 8521, -11684, 6673, 1423, -1272, -3891, 638, -3763, 704, 114, 102, 132, 212, 453, 812, 467, 169
137582388, 3195, 8729, -11987, 6192, 494, -915, -3594, -367, -4565, 839, 114, 102, 132, 212, 453, 812, 467, 169
137583209, 3195, 8729, -11987, 6192, 494, -915, -3594, -367, -4565, 839, 115, 108, 149, 215, 444, 785, 520, 169
137584044, 3195, 8729, -11987, 6192, 494, -915, -3594, -367, -4565, 839, 115, 108, 149, 215, 444, 785, 520, 169
137604876, 2629, 8870, -12308, 5599, -791, -669, -3632, -1269, -4741, 930, 115, 108, 149, 215, 444, 785, 520, 169
137605687, 2629, 8870, -12308, 5599, -791, -669, -3632, -1269, -4741, 930, 111, 119, 168, 221, 448, 798, 573, 171
137606547, 2629, 8870, -12308, 5599, -791, -669, -3632, -1269, -4741, 930, 111, 119, 168, 221, 448, 798, 573, 171
137618535, 2162, 8945, -12653, 4863, -335, -657, -3226, -2206, -4390, 894, 111, 119, 168, 221, 448, 798, 573, 171
137626704, 2162, 8945, -12653, 4863, -335, -657, -3226, -2206, -4390, 894, 111, 117, 169, 229, 428, 747, 557, 173
137627504, 2162, 8945, -12653, 4863, -335, -657, -3226, -2206, -4390, 894, 111, 117, 169, 229, 428, 747, 557, 173
137641760, 1869, 8998, -12893, 4213, 381, -952, -2930, -2272, -3380, 461, 111, 117, 169, 229, 428, 747, 557, 173
137642584, 1869, 8998, -12893, 4213, 381, -952, -2930, -2272, -3380, 461, 114, 149, 225, 252, 434, 710, 513, 176
137648562, 1869, 8998, -12893, 4213, 381, -952, -2930, -2272, -3380, 461, 114, 149, 225, 252, 434, 710, 513, 176
137664908, 1763, 9038, -13033, 3713, 1508, -1124, -2688, -2096, -2177, 73, 114, 149, 225, 252, 434, 710, 513, 176
137665711, 1763, 9038, -13033, 3713, 1508, -1124, -2688, -2096, -2177, 73, 120, 150, 237, 256, 393, 658, 532, 199
137666548, 1763, 9038, -13033, 3713, 1508, -1124, -2688, -2096, -2177, 73, 120, 150, 237, 256, 393, 658, 532, 199
137678591, 1815, 9037, -13064, 3577, 2232, -1354, -2616, -1144, -697, -75, 120, 150, 237, 256, 393, 658, 532, 199
137686662, 1815, 9037, -13064, 3577, 2232, -1354, -2616, -1144, -697, -75, 127, 143, 225, 252, 400, 651, 520, 211
137687494, 1815, 9037, -13064, 3577, 2232, -1354, -2616, -1144, -697, -75, 127, 143, 225, 252, 400, 651, 520, 211
137701718, 1906, 9008, -13053, 3643, 2060, -1619, -2651, -446, 281, -103, 127, 143, 225, 252, 400, 651, 520, 211
137702545, 1906, 9008, -13053, 3643, 2060, -1619, -2651, -446, 281, -103, 122, 140, 211, 237, 380, 604, 455, 197
137708556, 1906, 9008, -13053, 3643, 2060, -1619, -2651, -446, 281, -103, 122, 140, 211, 237, 380, 604, 455, 197
137724888, 1918, 8967, -13032, 3811, 1430, -1655, -2697, 272, 606, 2, 122, 140, 211, 237, 380, 604, 455, 197
137725708, 1918, 8967, -13032, 3811, 1430, -1655, -2697, 272, 606, 2, 113, 136, 204, 224, 369, 590, 437, 181
137726536, 1918, 8967, -13032, 3811, 1430, -1655, -2697, 272, 606, 2, 113, 136, 204, 224, 369, 590, 437, 181
137738534, 1856, 8923, -13013, 4003, 1120, -1273, -2636, 824, 506, 198, 113, 136, 204, 224, 369, 590, 437, 181
137746729, 1856, 8923, -13013, 4003, 1120, -1273, -2636, 824, 506, 198, 109, 110, 155, 197, 322, 557, 437, 184
137747513, 1856, 8923, -13013, 4003, 1120, -1273, -2636, 824, 506, 198, 109, 110, 155, 197, 322, 557, 437, 184
137761112, 1793, 8894, -12988, 4176, 1339, -990, -2642, 931, 333, 212, 109, 110, 155, 197, 322, 557, 437, 184
137769200, 1793, 8894, -12988, 4176, 1339, -990, -2642, 931, 333, 212, 105, 104, 134, 192, 299, 527, 426, 180
137770028, 1793, 8894, -12988, 4176, 1339, -990, -2642, 931, 333, 212, 105, 104, 134, 192, 299, 527, 426, 180
137784928, 1753, 8887, -12952, 4317, 1500, -913, -2632, 805, 249, 80, 105, 104, 134, 192, 299, 527, 426, 180
137785749, 1753, 8887, -12952, 4317, 1500, -913, -2632, 805, 249, 80, 102, 104, 139, 196, 329, 511, 349, 166
137786538, 1753, 8887, -12952, 4317, 1500, -913, -2632, 805, 249, 80, 102, 104, 139, 196, 329, 511, 349, 166
137798581, 1708, 8886, -12925, 4415, 1339, -1078, -2768, 592, 196, 12, 102, 104, 139, 196, 329, 511, 349, 166
137806682, 1708, 8886, -12925, 4415, 1339, -1078, -2768, 592, 196, 12, 95, 91, 143, 216, 326, 482, 356, 167
137807508, 1708, 8886, -12925, 4415, 1339, -1078, -2768, 592, 196, 12, 95, 91, 143, 216, 326, 482, 356, 167
137821058, 1659, 8873, -12924, 4464, 1342, -1191, -2909, 323, 70, 88, 95, 91, 143, 216, 326, 482, 356, 167
137829162, 1659, 8873, -12924, 4464, 1342, -1191, -2909, 323, 70, 88, 93, 91, 146, 208, 322, 469, 336, 158
137829981, 1659, 8873, -12924, 4464, 1342, -1191, -2909, 323, 70, 88, 93, 91, 146, 208, 322, 469, 336, 158
137844886, 1656, 8853, -12937, 4465, 1705, -1192, -3012, -28, -14, 140, 93, 91, 146, 208, 322, 469, 336, 158
137845686, 1656, 8853, -12937, 4465, 1705, -1192, -3012, -28, -14, 140, 83, 69, 140, 201, 310, 424, 300, 146
137846548, 1656, 8853, -12937, 4465, 1705, -1192, -3012, -28, -14, 140, 83, 69, 140, 201, 310, 424, 300, 146
137858581, 1696, 8832, -12957, 4435, 1831, -1225, -3015, -333, 24, 84, 83, 69, 140, 201, 310, 424, 300, 146
137866723, 1696, 8832, -12957, 4435, 1831, -1225, -3015, -333, 24, 84, 70, 68, 143, 201, 302, 399, 228, 117
137867535, 1696, 8832, -12957, 4435, 1831, -1225, -3015, -333, 24, 84, 70, 68, 143, 201, 302, 399, 228, 117
137881046, 1731, 8808, -12977, 4410, 1729, -1430, -2949, -412, 46, 42, 70, 68, 143, 201, 302, 399, 228, 117
137889205, 1731, 8808, -12977, 4410, 1729, -1430, -2949, -412, 46, 42, 44, 61, 132, 182, 250, 376, 216, 89
137890016, 1731, 8808, -12977, 4410, 1729, -1430, -2949, -412, 46, 42, 44, 61, 132, 182, 250, 376, 216, 89
137904952, 1731, 8781, -12992, 4420, 1623, -1517, -2892, -195, 46, 63, 44, 61, 132, 182, 250, 376, 216, 89
137905739, 1731, 8781, -12992, 4420, 1623, -1517, -2892, -195, 46, 63, 48, 57, 118, 149, 216, 347, 197, 78
137906537, 1731, 8781, -12992, 4420, 1623, -1517, -2892, -195, 46, 63, 48, 57, 118, 149, 216, 347, 197, 78
137918571, 1715, 8763, -12995, 4453, 1575, -1381, -2855, 52, 51, 66, 48, 57, 118, 149, 216, 347, 197, 78
137926683, 1715, 8763, -12995, 4453, 1575, -1381, -2855, 52, 51, 66, 44, 58, 105, 135, 206, 337, 200, 73
137927508, 1715, 8763, -12995, 4453, 1575, -1381, -2855, 52, 51, 66, 44, 58, 105, 135, 206, 337, 200, 73
137941060, 1715, 8747, -12992, 4493, 1588, -1162, -2867, 149, 147, 70, 44, 58, 105, 135, 206, 337, 200, 73
137949182, 1715, 8747, -12992, 4493, 1588, -1162, -2867, 149, 147, 70, 53, 55, 90, 120, 204, 325, 194, 72
137949981, 1715, 8747, -12992, 4493, 1588, -1162, -2867, 149, 147, 70, 53, 55, 90, 120, 204, 325, 194, 72
137963575, 1741, 8725, -12988, 4539, 1579, -1104, -2738, 109, 267, 76, 53, 55, 90, 120, 204, 325, 194, 72
137971680, 1741, 8725, -12988, 4539, 1579, -1104, -2738, 109, 267, 76, 54, 46, 72, 87, 168, 310, 185, 70
137972478, 1741, 8725, -12988, 4539, 1579, -1104, -2738, 109, 267, 76, 54, 46, 72, 87, 168, 310, 185, 70
137978610, 1795, 8691, -12974, 4619, 1636, -1107, -2608, 173, 485, 81, 54, 46, 72, 87, 168, 310, 185, 70
137986658, 1795, 8691, -12974, 4619, 1636, -1107, -2608, 173, 485, 81, 51, 41, 69, 67, 124, 241, 180, 67
137987571, 1795, 8691, -12974, 4619, 1636, -1107, -2608, 173, 485, 81, 51, 41, 69, 67, 124, 241, 180, 67
138001097, 1886, 8637, -12948, 4758, 1613, -1015, -2499, 370, 873, 130, 51, 41, 69, 67, 124, 241, 180, 67
138009239, 1886, 8637, -12948, 4758, 1613, -1015, -2499, 370, 873, 130, 52, 38, 57, 57, 112, 199, 139, 68
138009974, 1886, 8637, -12948, 4758, 1613, -1015, -2499, 370, 873, 130, 52, 38, 57, 57, 112, 199, 139, 68
138023535, 1994, 8552, -12911, 4962, 1461, -868, -2607, 715, 1334, 264, 52, 38, 57, 57, 112, 199, 139, 68
138031639, 1994, 8552, -12911, 4962, 1461, -868, -2607, 715, 1334, 264, 50, 36, 47, 48, 104, 164, 113, 66
138032480, 1994, 8552, -12911, 4962, 1461, -868, -2607, 715, 1334, 264, 50, 36, 47, 48, 104, 164, 113, 66
138038659, 2126, 8411, -12867, 5255, 1226, -838, -2703, 937, 1776, 465, 50, 36, 47, 48, 104, 164, 113, 66
138046696, 2126, 8411, -12867, 5255, 1226, -838, -2703, 937, 1776, 465, 39, 39, 41, 46, 72, 109, 83, 55
138047482, 2126, 8411, -12867, 5255, 1226, -838, -2703, 937, 1776, 465, 39, 39, 41, 46, 72, 109, 83, 55
138061075, 2263, 8225, -12825, 5584, 915, -726, -2682, 1060, 2025, 682, 39, 39, 41, 46, 72, 109, 83, 55
138069139, 2263, 8225, -12825, 5584, 915, -726, -2682, 1060, 2025, 682, 38, 36, 46, 47, 75, 86, 75, 51
138069967, 2263, 8225, -12825, 5584, 915, -726, -2682, 1060, 2025, 682, 38, 36, 46, 47, 75, 86, 75, 51
138083534, 2384, 7998, -12794, 5924, 597, -525, -2713, 1140, 2099, 932, 38, 36, 46, 47, 75, 86, 75, 51
138091684, 2384, 7998, -12794, 5924, 597, -525, -2713, 1140, 2099, 932, 51, 43, 58, 45, 61, 58, 53, 50
138092506, 2384, 7998, -12794, 5924, 597, -525, -2713, 1140, 2099, 932, 51, 43, 58, 45, 61, 58, 53, 50
138098671, 2479, 7729, -12799, 6224, 524, -262, -2794, 963, 1958, 1251, 51, 43, 58, 45, 61, 58, 53, 50
138114181, 2479, 7729, -12799, 6224, 524, -262, -2794, 963, 1958, 1251, 47, 43, 56, 40, 57, 51, 48, 50
138115046, 2479, 7729, -12799, 6224, 524, -262, -2794, 963, 1958, 1251, 47, 43, 56, 40, 57, 51, 48, 50
138121159, 2546, 7386, -12880, 6443, 757, -177, -2732, 481, 1689, 1791, 47, 43, 56, 40, 57, 51, 48, 50
138129210, 2546, 7386, -12880, 6443, 757, -177, -2732, 481, 1689, 1791, 48, 44, 64, 46, 55, 52, 32, 47
138130020, 2546, 7386, -12880, 6443, 757, -177, -2732, 481, 1689, 1791, 48, 44, 64, 46, 55, 52, 32, 47
138143561, 2550, 6965, -13045, 6577, 575, -201, -2590, 2, 1301, 2394, 48, 44, 64, 46, 55, 52, 32, 47
138151686, 2550, 6965, -13045, 6577, 575, -201, -2590, 2, 1301, 2394, 59, 54, 73, 46, 53, 46, 40, 51
138152493, 2550, 6965, -13045, 6577, 575, -201, -2590, 2, 1301, 2394, 59, 54, 73, 46, 53, 46, 40, 51
138158653, 2467, 6491, -13274, 6634, 468, -298, -2691, -310, 798, 2904, 59, 54, 73, 46, 53, 46, 40, 51
138165986, 2467, 6491, -13274, 6634, 468, -298, -2691, -310, 798, 2904, 59, 60, 71, 59, 48, 44, 43, 57
138173505, 2467, 6491, -13274, 6634, 468, -298, -2691, -310, 798, 2904, 59, 60, 71, 59, 48, 44, 43, 57
138181160, 2281, 5995, -13556, 6598, 507, -681, -2793, -659, 128, 3257, 59, 60, 71, 59, 48, 44, 43, 57
138189143, 2281, 5995, -13556, 6598, 507, -681, -2793, -659, 128, 3257, 58, 58, 61, 57, 50, 44, 52, 62
138189956, 2281, 5995, -13556, 6598, 507, -681, -2793, -659, 128, 3257, 58, 58, 61, 57, 50, 44, 52, 62
138203576, 1962, 5502, -13856, 6505, 542, -1102, -2875, -715, -656, 3517, 58, 58, 61, 57, 50, 44, 52, 62
138211733, 1962, 5502, -13856, 6505, 542, -1102, -2875, -715, -656, 3517, 58, 60, 65, 58, 51, 41, 52, 59
138212524, 1962, 5502, -13856, 6505, 542, -1102, -2875, -715, -656, 3517, 58, 60, 65, 58, 51, 41, 52, 59
138218668, 1518, 5008, -14144, 6403, 602, -1224, -3135, -471, -1269, 3789, 58, 60, 65, 58, 51, 41, 52, 59
138234209, 1518, 5008, -14144, 6403, 602, -1224, -3135, -471, -1269, 3789, 68, 58, 57, 55, 61, 42, 52, 78
138235045, 1518, 5008, -14144, 6403, 602, -1224, -3135, -471, -1269, 3789, 68, 58, 57, 55, 61, 42, 52, 78
138241176, 1025, 4504, -14417, 6264, 652, -1488, -3436, -534, -1567, 3905, 68, 58, 57, 55, 61, 42, 52, 78
138249174, 1025, 4504, -14417, 6264, 652, -1488, -3436, -534, -1567, 3905, 60, 47, 45, 57, 63, 42, 45, 80
138249982, 1025, 4504, -14417, 6264, 652, -1488, -3436, -534, -1567, 3905, 60, 47, 45, 57, 63, 42, 45, 80
138263567, 522, 4050, -14637, 6126, 722, -1842, -3436, -414, -1747, 3606, 60, 47, 45, 57, 63, 42, 45, 80
138271694, 522, 4050, -14637, 6126, 722, -1842, -3436, -414, -1747, 3606, 66, 42, 54, 44, 60, 44, 52, 80
138272548, 522, 4050, -14637, 6126, 722, -1842, -3436, -414, -1747, 3606, 66, 42, 54, 44, 60, 44, 52, 80
138278661, 8, 3680, -14788, 6018, 592, -1410, -3243, -59, -1957, 3143, 66, 42, 54, 44, 60, 44, 52, 80
138294199, 8, 3680, -14788, 6018, 592, -1410, -3243, -59, -1957, 3143, 57, 43, 58, 51, 68, 67, 45, 78
138294982, 8, 3680, -14788, 6018, 592, -1410, -3243, -59, -1957, 3143, 57, 43, 58, 51, 68, 67, 45, 78
138301125, -515, 3366, -14929, 5829, 243, -758, -3348, -371, -2215, 2856, 57, 43, 58, 51, 68, 67, 45, 78
138309181, -515, 3366, -14929, 5829, 243, -758, -3348, -371, -2215, 2856, 58, 41, 57, 49, 71, 74, 45, 77
138310032, -515, 3366, -14929, 5829, 243, -758, -3348, -371, -2215, 2856, 58, 41, 57, 49, 71, 74, 45, 77
138323508, -1056, 3101, -15090, 5476, -53, -615, -3676, -1195, -2590, 2681, 58, 41, 57, 49, 71, 74, 45, 77
138331723, -1056, 3101, -15090, 5476, -53, -615, -3676, -1195, -2590, 2681, 45, 40, 59, 50, 64, 71, 52, 61
138332482, -1056, 3101, -15090, 5476, -53, -615, -3676, -1195, -2590, 2681, 45, 40, 59, 50, 64, 71, 52, 61
138338639, -1593, 2869, -15272, 4943, 82, -999, -3506, -2262, -2877, 2612, 45, 40, 59, 50, 64, 71, 52, 61
138354184, -1593, 2869, -15272, 4943, 82, -999, -3506, -2262, -2877, 2612, 48, 49, 72, 47, 67, 72, 55, 52
138354996, -1593, 2869, -15272, 4943, 82, -999, -3506, -2262, -2877, 2612, 48, 49, 72, 47, 67, 72, 55, 52
138361138, -2082, 2656, -15423, 4380, -142, -967, -3183, -2476, -2713, 2407, 48, 49, 72, 47, 67, 72, 55, 52
138369198, -2082, 2656, -15423, 4380, -142, -967, -3183, -2476, -2713, 2407, 38, 46, 70, 45, 69, 76, 48, 44
138370005, -2082, 2656, -15423, 4380, -142, -967, -3183, -2476, -2713, 2407, 38, 46, 70, 45, 69, 76, 48, 44
138383520, -2545, 2467, -15517, 3885, -261, -955, -3301, -2080, -2609, 2140, 38, 46, 70, 45, 69, 76, 48, 44
138391681, -2545, 2467, -15517, 3885, -261, -955, -3301, -2080, -2609, 2140, 42, 40, 67, 39, 62, 56, 51, 41
138392511, -2545, 2467, -15517, 3885, -261, -955, -3301, -2080, -2609, 2140, 42, 40, 67, 39, 62, 56, 51, 41
138398657, -3000, 2324, -15567, 3423, -235, -721, -3524, -1877, -2676, 1829, 42, 40, 67, 39, 62, 56, 51, 41
138414169, -3000, 2324, -15567, 3423, -235, -721, -3524, -1877, -2676, 1829, 38, 41, 66, 42, 62, 45, 52, 41
138414981, -3000, 2324, -15567, 3423, -235, -721, -3524, -1877, -2676, 1829, 38, 41, 66, 42, 62, 45, 52, 41
138421145, -3426, 2253, -15595, 2906, -239, -393, -3654, -2218, -2707, 1440, 38, 41, 66, 42, 62, 45, 52, 41
138429156, -3426, 2253, -15595, 2906, -239, -393, -3654, -2218, -2707, 1440, 38, 41, 62, 39, 60, 42, 43, 40
138430020, -3426, 2253, -15595, 2906, -239, -393, -3654, -2218, -2707, 1440, 38, 41, 62, 39, 60, 42, 43, 40
138443558, -3790, 2253, -15612, 2296, -189, -148, -3645, -2842, -2568, 1100, 38, 41, 62, 39, 60, 42, 43, 40
138451686, -3790, 2253, -15612, 2296, -189, -148, -3645, -2842, -2568, 1100, 33, 29, 45, 45, 55, 42, 43, 40
138452482, -3790, 2253, -15612, 2296, -189, -148, -3645, -2842, -2568, 1100, 33, 29, 45, 45, 55, 42, 43, 40
138458658, -4057, 2313, -15621, 1617, -113, -187, -3600, -3395, -2187, 790, 33, 29, 45, 45, 55, 42, 43, 40
138474172, -4057, 2313, -15621, 1617, -113, -187, -3600, -3395, -2187, 790, 41, 31, 35, 50, 45, 34, 41, 40
138474946, -4057, 2313, -15621, 1617, -113, -187, -3600, -3395, -2187, 790, 41, 31, 35, 50, 45, 34, 41, 40
138481148, -4214, 2484, -15616, 819, -155, -270, -3223, -4328, -1760, 300, 41, 31, 35, 50, 45, 34, 41, 40
138489181, -4214, 2484, -15616, 819, -155, -270, -3223, -4328, -1760, 300, 40, 35, 38, 50, 43, 36, 36, 38
138490003, -4214, 2484, -15616, 819, -155, -270, -3223, -4328, -1760, 300, 40, 35, 38, 50, 43, 36, 36, 38
138503562, -4181, 2826, -15588, -22, 193, -683, -3114, -5051, -899, -590, 40, 35, 38, 50, 43, 36, 36, 38
138511657, -4181, 2826, -15588, -22, 193, -683, -3114, -5051, -899, -590, 49, 33, 38, 55, 36, 39, 38, 35
138512498, -4181, 2826, -15588, -22, 193, -683, -3114, -5051, -899, -590, 49, 33, 38, 55, 36, 39, 38, 35
138518626, -3970, 3392, -15487, -1157, 292, -1655, -3910, -7296, -392, -1361, 49, 33, 38, 55, 36, 39, 38, 35
138534154, -3970, 3392, -15487, -1157, 292, -1655, -3910, -7296, -392, -1361, 53, 42, 41, 57, 36, 42, 37, 27
138534957, -3970, 3392, -15487, -1157, 292, -1655, -3910, -7296, -392, -1361, 53, 42, 41, 57, 36, 42, 37, 27
138541150, -3744, 3898, -15303, -2250, 12, -2066, -3142, -7132, -323, -1174, 53, 42, 41, 57, 36, 42, 37, 27
138549162, -3744, 3898, -15303, -2250, 12, -2066, -3142, -7132, -323, -1174, 58, 44, 49, 53, 42, 45, 34, 28
138549998, -3744, 3898, -15303, -2250, 12, -2066, -3142, -7132, -323, -1174, 58, 44, 49, 53, 42, 45, 34, 28
138563561, -3531, 4271, -15105, -3096, -13, -1706, -2534, -5619, -139, -842, 58, 44, 49, 53, 42, 45, 34, 28
138571659, -3531, 4271, -15105, -3096, -13, -1706, -2534, -5619, -139, -842, 55, 45, 60, 50, 49, 44, 31, 27
138572457, -3531, 4271, -15105, -3096, -13, -1706, -2534, -5619, -139, -842, 55, 45, 60, 50, 49, 44, 31, 27
138578649, -3340, 4541, -14950, -3628, 63, -1188, -2758, -3754, 124, -695, 55, 45, 60, 50, 49, 44, 31, 27
138594154, -3340, 4541, -14950, -3628, 63, -1188, -2758, -3754, 124, -695, 55, 45, 66, 50, 52, 42, 30, 21
138594968, -3340, 4541, -14950, -3628, 63, -1188, -2758, -3754, 124, -695, 55, 45, 66, 50, 52, 42, 30, 21
138601110, -3165, 4734, -14865, -3882, 253, -840, -2905, -2114, 424, -558, 55, 45, 66, 50, 52, 42, 30, 21
138609177, -3165, 4734, -14865, -3882, 253, -840, -2905, -2114, 424, -558, 47, 44, 64, 44, 52, 38, 25, 22
138609977, -3165, 4734, -14865, -3882, 253, -840, -2905, -2114, 424, -558, 47, 44, 64, 44, 52, 38, 25, 22
138623534, -2964, 4882, -14885, -3778, 248, -590, -2910, -704, 548, -446, 47, 44, 64, 44, 52, 38, 25, 22
138631657, -2964, 4882, -14885, -3778, 248, -590, -2910, -704, 548, -446, 43, 33, 62, 38, 51, 36, 27, 26
138632457, -2964, 4882, -14885, -3778, 248, -590, -2910, -704, 548, -446, 43, 33, 62, 38, 51, 36, 27, 26
138638640, -2804, 4959, -14955, -3513, 245, -364, -2900, 463, 610, -286, 43, 33, 62, 38, 51, 36, 27, 26
