Timestamp, Orientation x, Orientation y, Orientation z, Orientation w, Acceleration x, Acceleration y, Acceleration z, Rotation x, Rotation y, Rotation z, EMG 0, EMG 1, EMG 2, EMG 3, EMG 4, EMG 5, EMG 6, EMG 7
22200424, 3528, 13525, -2875, 8049, 3977, 913, -1831, -78, -88, -4, 0, 0, 0, 0, 0, 0, 0, 0
22201241, 3555, 13526, -2882, 8032, 3984, 947, -1827, -128, -104, -8, 0, 0, 0, 0, 0, 0, 0, 0
22222246, 3600, 13525, -2899, 8007, 3978, 952, -1854, -249, -120, -31, 0, 0, 0, 0, 0, 0, 0, 0
22237248, 3672, 13525, -2925, 7966, 3971, 963, -1840, -414, -191, -83, 0, 0, 0, 0, 0, 0, 0, 0
22259772, 3791, 13523, -2979, 7894, 3964, 939, -1823, -758, -331, -160, 0, 0, 0, 0, 0, 0, 0, 0
22267856, 3791, 13523, -2979, 7894, 3964, 939, -1823, -758, -331, -160, 89, 53, 38, 24, 36, 48, 267, 385
22268687, 3791, 13523, -2979, 7894, 3964, 939, -1823, -758, -331, -160, 89, 53, 38, 24, 36, 48, 267, 385
22282265, 3953, 13524, -3052, 7784, 4003, 961, -1899, -1062, -481, -272, 89, 53, 38, 24, 36, 48, 267, 385
22290387, 3953, 13524, -3052, 7784, 4003, 961, -1899, -1062, -481, -272, 107, 55, 39, 27, 38, 48, 261, 455
22291165, 3953, 13524, -3052, 7784, 4003, 961, -1899, -1062, -481, -272, 107, 55, 39, 27, 38, 48, 261, 455
22297387, 4191, 13522, -3151, 7620, 4060, 1064, -2062, -1556, -633, -429, 107, 55, 39, 27, 38, 48, 261, 455
22312862, 4191, 13522, -3151, 7620, 4060, 1064, -2062, -1556, -633, -429, 124, 64, 41, 32, 40, 49, 240, 517
22313663, 4191, 13522, -3151, 7620, 4060, 1064, -2062, -1556, -633, -429, 124, 64, 41, 32, 40, 49, 240, 517
22319809, 4591, 13498, -3291, 7370, 4220, 1098, -2183, -2538, -862, -763, 124, 64, 41, 32, 40, 49, 240, 517
22327861, 4591, 13498, -3291, 7370, 4220, 1098, -2183, -2538, -862, -763, 179, 66, 41, 30, 39, 44, 143, 526
22328702, 4591, 13498, -3291, 7370, 4220, 1098, -2183, -2538, -862, -763, 179, 66, 41, 30, 39, 44, 143, 526
22342260, 5210, 13443, -3470, 6965, 4401, 1127, -2399, -3845, -1316, -1306, 179, 66, 41, 30, 39, 44, 143, 526
22350383, 5210, 13443, -3470, 6965, 4401, 1127, -2399, -3845, -1316, -1306, 202, 77, 54, 33, 44, 50, 140, 644
22351162, 5210, 13443, -3470, 6965, 4401, 1127, -2399, -3845, -1316, -1306, 202, 77, 54, 33, 44, 50, 140, 644
22357315, 6019, 13320, -3661, 6431, 4590, 1076, -3004, -5031, -1543, -1861, 202, 77, 54, 33, 44, 50, 140, 644
22372915, 6019, 13320, -3661, 6431, 4590, 1076, -3004, -5031, -1543, -1861, 275, 80, 55, 36, 46, 52, 171, 702
22373707, 6019, 13320, -3661, 6431, 4590, 1076, -3004, -5031, -1543, -1861, 275, 80, 55, 36, 46, 52, 171, 702
22379868, 6848, 13162, -3776, 5832, 4380, 972, -2989, -5108, -1579, -2333, 275, 80, 55, 36, 46, 52, 171, 702
22387858, 6848, 13162, -3776, 5832, 4380, 972, -2989, -5108, -1579, -2333, 309, 103, 69, 46, 57, 86, 388, 851
22388651, 6848, 13162, -3776, 5832, 4380, 972, -2989, -5108, -1579, -2333, 309, 103, 69, 46, 57, 86, 388, 851
22402262, 7526, 13046, -3808, 5203, 3951, 1194, -2648, -4346, -1750, -2735, 309, 103, 69, 46, 57, 86, 388, 851
22410374, 7526, 13046, -3808, 5203, 3951, 1194, -2648, -4346, -1750, -2735, 339, 118, 82, 51, 63, 102, 399, 920
22411149, 7526, 13046, -3808, 5203, 3951, 1194, -2648, -4346, -1750, -2735, 339, 118, 82, 51, 63, 102, 399, 920
22417392, 8002, 13029, -3740, 4543, 3462, 1652, -2558, -3045, -2063, -2990, 339, 118, 82, 51, 63, 102, 399, 920
22432894, 8002, 13029, -3740, 4543, 3462, 1652, -2558, -3045, -2063, -2990, 370, 146, 103, 61, 76, 115, 511, 962
22433718, 8002, 13029, -3740, 4543, 3462, 1652, -2558, -3045, -2063, -2990, 370, 146, 103, 61, 76, 115, 511, 962
22439870, 8252, 13123, -3610, 3883, 3403, 2339, -2585, -1620, -2377, -3032, 370, 146, 103, 61, 76, 115, 511, 962
22447839, 8252, 13123, -3610, 3883, 3403, 2339, -2585, -1620, -2377, -3032, 386, 158, 112, 69, 77, 116, 529, 999
22448662, 8252, 13123, -3610, 3883, 3403, 2339, -2585, -1620, -2377, -3032, 386, 158, 112, 69, 77, 116, 529, 999
22462240, 8428, 13226, -3475, 3222, 3366, 2735, -2501, -1243, -2499, -2978, 386, 158, 112, 69, 77, 116, 529, 999
22470414, 8428, 13226, -3475, 3222, 3366, 2735, -2501, -1243, -2499, -2978, 354, 168, 121, 76, 83, 122, 536, 999
22471227, 8428, 13226, -3475, 3222, 3366, 2735, -2501, -1243, -2499, -2978, 354, 168, 121, 76, 83, 122, 536, 999
22477394, 8744, 13204, -3345, 2532, 3518, 2777, -2599, -2169, -2347, -2899, 354, 168, 121, 76, 83, 122, 536, 999
22492887, 8744, 13204, -3345, 2532, 3518, 2777, -2599, -2169, -2347, -2899, 353, 170, 169, 117, 88, 108, 500, 949
22493713, 8744, 13204, -3345, 2532, 3518, 2777, -2599, -2169, -2347, -2899, 353, 170, 169, 117, 88, 108, 500, 949
22499865, 9172, 13064, -3214, 1812, 3640, 2367, -2720, -3059, -2247, -2953, 353, 170, 169, 117, 88, 108, 500, 949
22507952, 9172, 13064, -3214, 1812, 3640, 2367, -2720, -3059, -2247, -2953, 337, 165, 176, 148, 98, 104, 530, 920
22508710, 9172, 13064, -3214, 1812, 3640, 2367, -2720, -3059, -2247, -2953, 337, 165, 176, 148, 98, 104, 530, 920
22522235, 9621, 12849, -3096, 1085, 3755, 1723, -2168, -3407, -2255, -2851, 337, 165, 176, 148, 98, 104, 530, 920
22530385, 9621, 12849, -3096, 1085, 3755, 1723, -2168, -3407, -2255, -2851, 309, 145, 171, 206, 92, 100, 441, 973
22531218, 9621, 12849, -3096, 1085, 3755, 1723, -2168, -3407, -2255, -2851, 309, 145, 171, 206, 92, 100, 441, 973
22537384, 9960, 12654, -2989, 412, 3874, 1261, -1680, -2805, -2172, -2605, 309, 145, 171, 206, 92, 100, 441, 973
22552891, 9960, 12654, -2989, 412, 3874, 1261, -1680, -2805, -2172, -2605, 282, 135, 169, 213, 93, 99, 439, 914
22553689, 9960, 12654, -2989, 412, 3874, 1261, -1680, -2805, -2172, -2605, 282, 135, 169, 213, 93, 99, 439, 914
22559844, 10128, 12543, -2915, -147, 3830, 1220, -907, -1666, -1977, -2135, 282, 135, 169, 213, 93, 99, 439, 914
22567883, 10128, 12543, -2915, -147, 3830, 1220, -907, -1666, -1977, -2135, 280, 139, 173, 212, 91, 100, 444, 885
22568704, 10128, 12543, -2915, -147, 3830, 1220, -907, -1666, -1977, -2135, 280, 139, 173, 212, 91, 100, 444, 885
22582221, 10267, 12428, -2852, -637, 3524, 1487, -16, -1484, -1749, -1843, 280, 139, 173, 212, 91, 100, 444, 885
22590401, 10267, 12428, -2852, -637, 3524, 1487, -16, -1484, -1749, -1843, 349, 165, 296, 209, 83, 95, 349, 910
22591332, 10267, 12428, -2852, -637, 3524, 1487, -16, -1484, -1749, -1843, 349, 165, 296, 209, 83, 95, 349, 910
22597391, 10509, 12213, -2745, -1133, 3445, 1747, 743, -2292, -1547, -1933, 349, 165, 296, 209, 83, 95, 349, 910
22612891, 10509, 12213, -2745, -1133, 3445, 1747, 743, -2292, -1547, -1933, 363, 259, 456, 414, 170, 89, 408, 923
22613692, 10509, 12213, -2745, -1133, 3445, 1747, 743, -2292, -1547, -1933, 363, 259, 456, 414, 170, 89, 408, 923
22619841, 10951, 11824, -2485, -1579, 4056, 1190, 692, -3762, -661, -2157, 363, 259, 456, 414, 170, 89, 408, 923
22627891, 10951, 11824, -2485, -1579, 4056, 1190, 692, -3762, -661, -2157, 527, 566, 680, 763, 258, 164, 429, 832
22628718, 10951, 11824, -2485, -1579, 4056, 1190, 692, -3762, -661, -2157, 527, 566, 680, 763, 258, 164, 429, 832
22642274, 11429, 11419, -2012, -1830, 5246, -99, 650, -3919, 944, -2246, 527, 566, 680, 763, 258, 164, 429, 832
22650386, 11429, 11419, -2012, -1830, 5246, -99, 650, -3919, 944, -2246, 828, 776, 1010, 963, 412, 295, 460, 892
22651203, 11429, 11419, -2012, -1830, 5246, -99, 650, -3919, 944, -2246, 828, 776, 1010, 963, 412, 295, 460, 892
22657388, 11608, 11365, -1394, -1600, 6280, -834, -519, -1135, 3401, -1368, 828, 776, 1010, 963, 412, 295, 460, 892
22672861, 11608, 11365, -1394, -1600, 6280, -834, -519, -1135, 3401, -1368, 1029, 983, 1195, 1100, 742, 578, 523, 944
22673685, 11608, 11365, -1394, -1600, 6280, -834, -519, -1135, 3401, -1368, 1029, 983, 1195, 1100, 742, 578, 523, 944
22679839, 11296, 11822, -733, -725, 6400, 39, -1233, 3083, 6135, 518, 1029, 983, 1195, 1100, 742, 578, 523, 944
22687870, 11296, 11822, -733, -725, 6400, 39, -1233, 3083, 6135, 518, 1081, 1163, 1387, 1259, 940, 672, 589, 878
22688683, 11296, 11822, -733, -725, 6400, 39, -1233, 3083, 6135, 518, 1081, 1163, 1387, 1259, 940, 672, 589, 878
22702260, 10445, 12609, 117, 565, 5128, 3375, -2730, 6629, 8529, 1144, 1081, 1163, 1387, 1259, 940, 672, 589, 878
22710381, 10445, 12609, 117, 565, 5128, 3375, -2730, 6629, 8529, 1144, 1129, 1208, 1355, 1330, 1016, 712, 579, 824
22711193, 10445, 12609, 117, 565, 5128, 3375, -2730, 6629, 8529, 1144, 1129, 1208, 1355, 1330, 1016, 712, 579, 824
22717388, 9349, 13209, 1402, 2136, 3425, 4663, -4067, 7120, 11392, 310, 1129, 1208, 1355, 1330, 1016, 712, 579, 824
22732863, 9349, 13209, 1402, 2136, 3425, 4663, -4067, 7120, 11392, 310, 1148, 1257, 1297, 1285, 1091, 743, 720, 919
22733690, 9349, 13209, 1402, 2136, 3425, 4663, -4067, 7120, 11392, 310, 1148, 1257, 1297, 1285, 1091, 743, 720, 919
22739845, 7872, 13463, 3020, 4008, 1187, 3772, -4398, 7882, 14358, -124, 1148, 1257, 1297, 1285, 1091, 743, 720, 919
22747868, 7872, 13463, 3020, 4008, 1187, 3772, -4398, 7882, 14358, -124, 1068, 1231, 1112, 1209, 1097, 848, 864, 874
22748689, 7872, 13463, 3020, 4008, 1187, 3772, -4398, 7882, 14358, -124, 1068, 1231, 1112, 1209, 1097, 848, 864, 874
22762263, 6014, 13265, 4690, 5854, 555, 1071, -4741, 8547, 15444, -385, 1068, 1231, 1112, 1209, 1097, 848, 864, 874
22770384, 6014, 13265, 4690, 5854, 555, 1071, -4741, 8547, 15444, -385, 933, 1099, 941, 1243, 984, 828, 920, 921
22771169, 6014, 13265, 4690, 5854, 555, 1071, -4741, 8547, 15444, -385, 933, 1099, 941, 1243, 984, 828, 920, 921
22777394, 4569, 12683, 5754, 7318, 870, 2105, -2889, 5032, 12567, 225, 933, 1099, 941, 1243, 984, 828, 920, 921
22792879, 4569, 12683, 5754, 7318, 870, 2105, -2889, 5032, 12567, 225, 896, 911, 754, 1176, 916, 850, 1081, 1025
22793657, 4569, 12683, 5754, 7318, 870, 2105, -2889, 5032, 12567, 225, 896, 911, 754, 1176, 916, 850, 1081, 1025
22799812, 3789, 12153, 6305, 8161, 1503, 647, -559, 2246, 7362, -260, 896, 911, 754, 1176, 916, 850, 1081, 1025
22807926, 3789, 12153, 6305, 8161, 1503, 647, -559, 2246, 7362, -260, 849, 846, 921, 1125, 852, 1038, 1185, 1069
22808695, 3789, 12153, 6305, 8161, 1503, 647, -559, 2246, 7362, -260, 849, 846, 921, 1125, 852, 1038, 1185, 1069
22822267, 3680, 11830, 6320, 8659, 3541, -707, -1135, -996, 3219, 190, 849, 846, 921, 1125, 852, 1038, 1185, 1069
22830391, 3680, 11830, 6320, 8659, 3541, -707, -1135, -996, 3219, 190, 752, 624, 993, 1102, 779, 1105, 1129, 1115
22831180, 3680, 11830, 6320, 8659, 3541, -707, -1135, -996, 3219, 190, 752, 624, 993, 1102, 779, 1105, 1129, 1115
22844840, 3733, 11805, 6263, 8711, 3941, 791, -2394, -523, 99, 85, 752, 624, 993, 1102, 779, 1105, 1129, 1115
22852861, 3733, 11805, 6263, 8711, 3941, 791, -2394, -523, 99, 85, 609, 426, 962, 1267, 752, 1194, 1033, 1065
22853681, 3733, 11805, 6263, 8711, 3941, 791, -2394, -523, 99, 85, 609, 426, 962, 1267, 752, 1194, 1033, 1065
22859833, 3947, 11861, 6170, 8607, 3985, 3377, -2686, -848, -1160, -274, 609, 426, 962, 1267, 752, 1194, 1033, 1065
22867211, 3947, 11861, 6170, 8607, 3985, 3377, -2686, -848, -1160, -274, 532, 352, 953, 1218, 667, 1151, 961, 953
22874718, 3947, 11861, 6170, 8607, 3985, 3377, -2686, -848, -1160, -274, 532, 352, 953, 1218, 667, 1151, 961, 953
22882385, 4182, 11876, 6009, 8589, 3693, 2836, -2466, -1370, -830, -34, 532, 352, 953, 1218, 667, 1151, 961, 953
22890381, 4182, 11876, 6009, 8589, 3693, 2836, -2466, -1370, -830, -34, 504, 339, 822, 1172, 512, 1135, 741, 799
22891297, 4182, 11876, 6009, 8589, 3693, 2836, -2466, -1370, -830, -34, 504, 339, 822, 1172, 512, 1135, 741, 799
22897394, 4138, 11915, 5892, 8637, 3423, 2424, -1938, -587, 25, 108, 504, 339, 822, 1172, 512, 1135, 741, 799
22912885, 4138, 11915, 5892, 8637, 3423, 2424, -1938, -587, 25, 108, 466, 283, 614, 1144, 459, 948, 497, 724
22913680, 4138, 11915, 5892, 8637, 3423, 2424, -1938, -587, 25, 108, 466, 283, 614, 1144, 459, 948, 497, 724
22919840, 3981, 11893, 5871, 8755, 2993, 2427, -1590, 65, 845, 251, 466, 283, 614, 1144, 459, 948, 497, 724
22935381, 3981, 11893, 5871, 8755, 2993, 2427, -1590, 65, 845, 251, 462, 204, 384, 1071, 372, 834, 417, 505
22936197, 3981, 11893, 5871, 8755, 2993, 2427, -1590, 65, 845, 251, 462, 204, 384, 1071, 372, 834, 417, 505
22942388, 3833, 11868, 5872, 8853, 2430, 2217, -1880, -13, 1001, 304, 462, 204, 384, 1071, 372, 834, 417, 505
22950403, 3833, 11868, 5872, 8853, 2430, 2217, -1880, -13, 1001, 304, 423, 205, 370, 892, 301, 518, 337, 498
22951214, 3833, 11868, 5872, 8853, 2430, 2217, -1880, -13, 1001, 304, 423, 205, 370, 892, 301, 518, 337, 498
22957405, 3713, 11874, 5869, 8899, 2289, 2038, -1700, 58, 604, 242, 423, 205, 370, 892, 301, 518, 337, 498
22972882, 3713, 11874, 5869, 8899, 2289, 2038, -1700, 58, 604, 242, 401, 205, 343, 775, 271, 396, 264, 473
22973684, 3713, 11874, 5869, 8899, 2289, 2038, -1700, 58, 604, 242, 401, 205, 343, 775, 271, 396, 264, 473
22979836, 3617, 11890, 5867, 8917, 2356, 2178, -1610, 104, 377, 187, 401, 205, 343, 775, 271, 396, 264, 473
22995400, 3617, 11890, 5867, 8917, 2356, 2178, -1610, 104, 377, 187, 302, 187, 351, 726, 237, 199, 206, 429
22996191, 3617, 11890, 5867, 8917, 2356, 2178, -1610, 104, 377, 187, 302, 187, 351, 726, 237, 199, 206, 429
23002378, 3583, 11908, 5855, 8915, 2407, 2309, -1666, -130, 159, 54, 302, 187, 351, 726, 237, 199, 206, 429
23010405, 3583, 11908, 5855, 8915, 2407, 2309, -1666, -130, 159, 54, 295, 188, 342, 638, 224, 141, 197, 411
23011176, 3583, 11908, 5855, 8915, 2407, 2309, -1666, -130, 159, 54, 295, 188, 342, 638, 224, 141, 197, 411
23017412, 3578, 11929, 5808, 8920, 2592, 2206, -1724, -404, 69, 19, 295, 188, 342, 638, 224, 141, 197, 411
23032870, 3578, 11929, 5808, 8920, 2592, 2206, -1724, -404, 69, 19, 192, 171, 341, 603, 221, 118, 168, 320
23033690, 3578, 11929, 5808, 8920, 2592, 2206, -1724, -404, 69, 19, 192, 171, 341, 603, 221, 118, 168, 320
23039850, 3558, 11962, 5771, 8907, 2632, 2163, -1807, -295, 29, 4, 192, 171, 341, 603, 221, 118, 168, 320
23055388, 3558, 11962, 5771, 8907, 2632, 2163, -1807, -295, 29, 4, 174, 156, 278, 457, 182, 113, 153, 230
23056173, 3558, 11962, 5771, 8907, 2632, 2163, -1807, -295, 29, 4, 174, 156, 278, 457, 182, 113, 153, 230
23062405, 3524, 12002, 5757, 8876, 2656, 2266, -1895, -127, 4, -24, 174, 156, 278, 457, 182, 113, 153, 230
23070387, 3524, 12002, 5757, 8876, 2656, 2266, -1895, -127, 4, -24, 150, 147, 233, 417, 228, 117, 183, 266
23071188, 3524, 12002, 5757, 8876, 2656, 2266, -1895, -127, 4, -24, 150, 147, 233, 417, 228, 117, 183, 266
23077395, 3477, 12041, 5763, 8839, 2672, 2416, -1929, 24, 37, -11, 150, 147, 233, 417, 228, 117, 183, 266
23092858, 3477, 12041, 5763, 8839, 2672, 2416, -1929, 24, 37, -11, 126, 146, 173, 386, 236, 104, 178, 276
23093684, 3477, 12041, 5763, 8839, 2672, 2416, -1929, 24, 37, -11, 126, 146, 173, 386, 236, 104, 178, 276
23099835, 3422, 12070, 5775, 8812, 2577, 2378, -1932, 49, 143, 9, 126, 146, 173, 386, 236, 104, 178, 276
23115373, 3422, 12070, 5775, 8812, 2577, 2378, -1932, 49, 143, 9, 110, 137, 151, 379, 230, 100, 160, 239
23116142, 3422, 12070, 5775, 8812, 2577, 2378, -1932, 49, 143, 9, 110, 137, 151, 379, 230, 100, 160, 239
23122304, 3365, 12095, 5782, 8796, 2566, 2317, -1922, 19, 192, 32, 110, 137, 151, 379, 230, 100, 160, 239