Timestamp, Orientation x, Orientation y, Orientation z, Orientation w, Acceleration x, Acceleration y, Acceleration z, Rotation x, Rotation y, Rotation z, EMG 0, EMG 1, EMG 2, EMG 3, EMG 4, EMG 5, EMG 6, EMG 7
15922300, 4740, 13599, -1776, 7607, 3854, 1249, -1779, 71, -29, -398, 0, 0, 0, 0, 0, 0, 0, 0
15929746, 4716, 13612, -1739, 7607, 3846, 1256, -1788, 130, -23, -359, 0, 0, 0, 0, 0, 0, 0, 0
15944752, 4683, 13626, -1703, 7611, 3867, 1241, -1808, 167, -14, -324, 0, 0, 0, 0, 0, 0, 0, 0
15959744, 4647, 13637, -1671, 7620, 3842, 1251, -1816, 175, 14, -281, 0, 0, 0, 0, 0, 0, 0, 0
15982280, 4608, 13646, -1646, 7632, 3838, 1260, -1822, 176, 24, -223, 0, 0, 0, 0, 0, 0, 0, 0
15990417, 4608, 13646, -1646, 7632, 3838, 1260, -1822, 176, 24, -223, 42, 46, 28, 22, 24, 28, 31, 36
15991204, 4608, 13646, -1646, 7632, 3838, 1260, -1822, 176, 24, -223, 42, 46, 28, 22, 24, 28, 31, 36
16004827, 4571, 13654, -1626, 7646, 3814, 1280, -1821, 152, 30, -177, 42, 46, 28, 22, 24, 28, 31, 36
16012885, 4571, 13654, -1626, 7646, 3814, 1280, -1821, 152, 30, -177, 39, 36, 26, 20, 25, 28, 31, 32
16013697, 4571, 13654, -1626, 7646, 3814, 1280, -1821, 152, 30, -177, 39, 36, 26, 20, 25, 28, 31, 32
16019899, 4539, 13657, -1615, 7660, 3809, 1306, -1804, 114, 29, -131, 39, 36, 26, 20, 25, 28, 31, 32
16035434, 4539, 13657, -1615, 7660, 3809, 1306, -1804, 114, 29, -131, 45, 38, 30, 19, 23, 29, 44, 32
16036228, 4539, 13657, -1615, 7660, 3809, 1306, -1804, 114, 29, -131, 45, 38, 30, 19, 23, 29, 44, 32
16042384, 4514, 13657, -1614, 7675, 3800, 1302, -1788, 58, 20, -90, 45, 38, 30, 19, 23, 29, 44, 32
16050384, 4514, 13657, -1614, 7675, 3800, 1302, -1788, 58, 20, -90, 47, 40, 30, 19, 23, 29, 47, 30
16051168, 4514, 13657, -1614, 7675, 3800, 1302, -1788, 58, 20, -90, 47, 40, 30, 19, 23, 29, 47, 30
16064858, 4493, 13655, -1622, 7691, 3804, 1278, -1785, 11, 22, -62, 47, 40, 30, 19, 23, 29, 47, 30
16072916, 4493, 13655, -1622, 7691, 3804, 1278, -1785, 11, 22, -62, 47, 42, 32, 21, 28, 29, 48, 29
16073722, 4493, 13655, -1622, 7691, 3804, 1278, -1785, 11, 22, -62, 47, 42, 32, 21, 28, 29, 48, 29
16079926, 4469, 13653, -1630, 7706, 3804, 1281, -1811, 21, 31, -48, 47, 42, 32, 21, 28, 29, 48, 29
16095437, 4469, 13653, -1630, 7706, 3804, 1281, -1811, 21, 31, -48, 47, 38, 32, 20, 29, 26, 47, 27
16096238, 4469, 13653, -1630, 7706, 3804, 1281, -1811, 21, 31, -48, 47, 38, 32, 20, 29, 26, 47, 27
16102381, 4449, 13652, -1638, 7718, 3804, 1334, -1844, 12, 30, -27, 47, 38, 32, 20, 29, 26, 47, 27
16110408, 4449, 13652, -1638, 7718, 3804, 1334, -1844, 12, 30, -27, 47, 45, 38, 24, 28, 25, 48, 27
16111235, 4449, 13652, -1638, 7718, 3804, 1334, -1844, 12, 30, -27, 47, 45, 38, 24, 28, 25, 48, 27
16124814, 4442, 13647, -1649, 7728, 3817, 1394, -1837, -45, 30, -21, 47, 45, 38, 24, 28, 25, 48, 27
16132927, 4442, 13647, -1649, 7728, 3817, 1394, -1837, -45, 30, -21, 47, 45, 33, 25, 28, 26, 34, 28
16133744, 4442, 13647, -1649, 7728, 3817, 1394, -1837, -45, 30, -21, 47, 45, 33, 25, 28, 26, 34, 28
16139894, 4453, 13639, -1662, 7734, 3857, 1395, -1849, -149, 25, -72, 47, 45, 33, 25, 28, 26, 34, 28
16155405, 4453, 13639, -1662, 7734, 3857, 1395, -1849, -149, 25, -72, 52, 45, 38, 31, 27, 26, 31, 26
16156232, 4453, 13639, -1662, 7734, 3857, 1395, -1849, -149, 25, -72, 52, 45, 38, 31, 27, 26, 31, 26
16162399, 4482, 13627, -1668, 7736, 3886, 1364, -1855, -233, 44, -179, 52, 45, 38, 31, 27, 26, 31, 26
16170419, 4482, 13627, -1668, 7736, 3886, 1364, -1855, -233, 44, -179, 74, 41, 43, 31, 25, 25, 30, 41
16171231, 4482, 13627, -1668, 7736, 3886, 1364, -1855, -233, 44, -179, 74, 41, 43, 31, 25, 25, 30, 41
16184757, 4527, 13609, -1662, 7742, 3907, 1359, -1838, -292, 97, -282, 74, 41, 43, 31, 25, 25, 30, 41
16192912, 4527, 13609, -1662, 7742, 3907, 1359, -1838, -292, 97, -282, 80, 87, 74, 41, 25, 26, 68, 81
16193751, 4527, 13609, -1662, 7742, 3907, 1359, -1838, -292, 97, -282, 80, 87, 74, 41, 25, 26, 68, 81
16199890, 4584, 13591, -1640, 7745, 3934, 1368, -1861, -310, 129, -412, 80, 87, 74, 41, 25, 26, 68, 81
16215387, 4584, 13591, -1640, 7745, 3934, 1368, -1861, -310, 129, -412, 86, 120, 103, 41, 26, 25, 67, 88
16216203, 4584, 13591, -1640, 7745, 3934, 1368, -1861, -310, 129, -412, 86, 120, 103, 41, 26, 25, 67, 88
16222379, 4664, 13570, -1590, 7745, 3960, 1443, -1833, -349, 169, -598, 86, 120, 103, 41, 26, 25, 67, 88
16230417, 4664, 13570, -1590, 7745, 3960, 1443, -1833, -349, 169, -598, 108, 181, 134, 43, 30, 25, 73, 231
16231215, 4664, 13570, -1590, 7745, 3960, 1443, -1833, -349, 169, -598, 108, 181, 134, 43, 30, 25, 73, 231
16244787, 4792, 13538, -1513, 7738, 3965, 1592, -1787, -503, 227, -827, 108, 181, 134, 43, 30, 25, 73, 231
16252880, 4792, 13538, -1513, 7738, 3965, 1592, -1787, -503, 227, -827, 176, 301, 175, 51, 60, 30, 103, 336
16253707, 4792, 13538, -1513, 7738, 3965, 1592, -1787, -503, 227, -827, 176, 301, 175, 51, 60, 30, 103, 336
16259954, 4968, 13490, -1411, 7731, 4003, 1641, -1713, -690, 320, -1103, 176, 301, 175, 51, 60, 30, 103, 336
16275384, 4968, 13490, -1411, 7731, 4003, 1641, -1713, -690, 320, -1103, 197, 402, 213, 59, 82, 73, 222, 382
16276192, 4968, 13490, -1411, 7731, 4003, 1641, -1713, -690, 320, -1103, 197, 402, 213, 59, 82, 73, 222, 382
16282386, 5186, 13430, -1253, 7719, 4043, 1773, -1666, -762, 431, -1493, 197, 402, 213, 59, 82, 73, 222, 382
16290384, 5186, 13430, -1253, 7719, 4043, 1773, -1666, -762, 431, -1493, 202, 427, 210, 85, 106, 76, 244, 417
16291203, 5186, 13430, -1253, 7719, 4043, 1773, -1666, -762, 431, -1493, 202, 427, 210, 85, 106, 76, 244, 417
16304786, 5466, 13357, -1030, 7686, 3959, 1864, -1497, -855, 540, -1848, 202, 427, 210, 85, 106, 76, 244, 417
16312889, 5466, 13357, -1030, 7686, 3959, 1864, -1497, -855, 540, -1848, 208, 468, 218, 106, 143, 88, 424, 442
16313699, 5466, 13357, -1030, 7686, 3959, 1864, -1497, -855, 540, -1848, 208, 468, 218, 106, 143, 88, 424, 442
16319844, 5812, 13245, -776, 7654, 3808, 2212, -1390, -1140, 733, -2122, 208, 468, 218, 106, 143, 88, 424, 442
16335396, 5812, 13245, -776, 7654, 3808, 2212, -1390, -1140, 733, -2122, 214, 453, 209, 107, 157, 114, 453, 487
16336195, 5812, 13245, -776, 7654, 3808, 2212, -1390, -1140, 733, -2122, 214, 453, 209, 107, 157, 114, 453, 487
16342380, 6233, 13087, -506, 7618, 3668, 2354, -1386, -1538, 901, -2400, 214, 453, 209, 107, 157, 114, 453, 487
16350398, 6233, 13087, -506, 7618, 3668, 2354, -1386, -1538, 901, -2400, 184, 392, 181, 109, 169, 138, 466, 469
16351265, 6233, 13087, -506, 7618, 3668, 2354, -1386, -1538, 901, -2400, 184, 392, 181, 109, 169, 138, 466, 469
16364806, 6643, 12919, -193, 7572, 3476, 2120, -1258, -1425, 984, -2619, 184, 392, 181, 109, 169, 138, 466, 469
16372898, 6643, 12919, -193, 7572, 3476, 2120, -1258, -1425, 984, -2619, 160, 303, 138, 113, 167, 128, 437, 477
16373698, 6643, 12919, -193, 7572, 3476, 2120, -1258, -1425, 984, -2619, 160, 303, 138, 113, 167, 128, 437, 477
16379863, 7028, 12735, 155, 7537, 3258, 1970, -1253, -1282, 1163, -2708, 160, 303, 138, 113, 167, 128, 437, 477
16395396, 7028, 12735, 155, 7537, 3258, 1970, -1253, -1282, 1163, -2708, 159, 271, 143, 92, 156, 132, 509, 465
16396211, 7028, 12735, 155, 7537, 3258, 1970, -1253, -1282, 1163, -2708, 159, 271, 143, 92, 156, 132, 509, 465
16402409, 7399, 12530, 501, 7511, 3020, 2048, -1326, -1298, 1277, -2646, 159, 271, 143, 92, 156, 132, 509, 465
16410386, 7399, 12530, 501, 7511, 3020, 2048, -1326, -1298, 1277, -2646, 160, 186, 115, 71, 126, 136, 462, 495
16411197, 7399, 12530, 501, 7511, 3020, 2048, -1326, -1298, 1277, -2646, 160, 186, 115, 71, 126, 136, 462, 495
16424862, 7733, 12331, 840, 7474, 2830, 1762, -1380, -1165, 1221, -2570, 160, 186, 115, 71, 126, 136, 462, 495
16432862, 7733, 12331, 840, 7474, 2830, 1762, -1380, -1165, 1221, -2570, 148, 189, 111, 87, 106, 123, 451, 436
16433680, 7733, 12331, 840, 7474, 2830, 1762, -1380, -1165, 1221, -2570, 148, 189, 111, 87, 106, 123, 451, 436
16439848, 7982, 12175, 1167, 7422, 2719, 1503, -1424, -739, 1049, -2367, 148, 189, 111, 87, 106, 123, 451, 436
16455384, 7982, 12175, 1167, 7422, 2719, 1503, -1424, -739, 1049, -2367, 141, 247, 110, 89, 72, 155, 437, 419
16456166, 7982, 12175, 1167, 7422, 2719, 1503, -1424, -739, 1049, -2367, 141, 247, 110, 89, 72, 155, 437, 419
16462392, 8141, 12060, 1485, 7382, 2698, 1558, -1358, -281, 997, -2056, 141, 247, 110, 89, 72, 155, 437, 419
16470380, 8141, 12060, 1485, 7382, 2698, 1558, -1358, -281, 997, -2056, 138, 351, 113, 86, 65, 254, 434, 442
16471179, 8141, 12060, 1485, 7382, 2698, 1558, -1358, -281, 997, -2056, 138, 351, 113, 86, 65, 254, 434, 442
16484782, 8253, 11957, 1779, 7360, 2669, 1714, -1355, -131, 999, -1780, 138, 351, 113, 86, 65, 254, 434, 442
16492862, 8253, 11957, 1779, 7360, 2669, 1714, -1355, -131, 999, -1780, 148, 473, 103, 117, 61, 300, 332, 445
16493677, 8253, 11957, 1779, 7360, 2669, 1714, -1355, -131, 999, -1780, 148, 473, 103, 117, 61, 300, 332, 445
16507446, 8253, 11930, 1981, 7352, 2568, 1768, -1304, -88, 873, -1539, 148, 473, 103, 117, 61, 300, 332, 445
16515410, 8253, 11930, 1981, 7352, 2568, 1768, -1304, -88, 873, -1539, 138, 488, 93, 128, 63, 539, 200, 476
16516189, 8253, 11930, 1981, 7352, 2568, 1768, -1304, -88, 873, -1539, 138, 488, 93, 128, 63, 539, 200, 476
16522402, 8229, 11924, 2131, 7346, 2607, 1689, -1292, -63, 670, -1309, 138, 488, 93, 128, 63, 539, 200, 476
16537874, 8229, 11924, 2131, 7346, 2607, 1689, -1292, -63, 670, -1309, 135, 489, 87, 121, 64, 676, 169, 486
16538684, 8229, 11924, 2131, 7346, 2607, 1689, -1292, -63, 670, -1309, 135, 489, 87, 121, 64, 676, 169, 486
16544833, 8177, 11938, 2244, 7348, 2544, 1739, -1244, 39, 555, -1013, 135, 489, 87, 121, 64, 676, 169, 486
16552876, 8177, 11938, 2244, 7348, 2544, 1739, -1244, 39, 555, -1013, 128, 461, 80, 117, 66, 793, 169, 548
16553675, 8177, 11938, 2244, 7348, 2544, 1739, -1244, 39, 555, -1013, 128, 461, 80, 117, 66, 793, 169, 548
16559835, 8098, 11969, 2311, 7364, 2604, 1893, -1193, 111, 423, -696, 128, 461, 80, 117, 66, 793, 169, 548
16575382, 8098, 11969, 2311, 7364, 2604, 1893, -1193, 111, 423, -696, 137, 380, 72, 124, 57, 870, 152, 593
16576180, 8098, 11969, 2311, 7364, 2604, 1893, -1193, 111, 423, -696, 137, 380, 72, 124, 57, 870, 152, 593
16582388, 8028, 11992, 2342, 7394, 2678, 1984, -1146, -13, 374, -533, 137, 380, 72, 124, 57, 870, 152, 593
16589709, 8028, 11992, 2342, 7394, 2678, 1984, -1146, -13, 374, -533, 150, 198, 69, 97, 57, 931, 149, 649
16597249, 8028, 11992, 2342, 7394, 2678, 1984, -1146, -13, 374, -533, 150, 198, 69, 97, 57, 931, 149, 649
16604857, 7977, 12007, 2359, 7419, 2535, 1990, -1085, -109, 306, -475, 150, 198, 69, 97, 57, 931, 149, 649
16612897, 7977, 12007, 2359, 7419, 2535, 1990, -1085, -109, 306, -475, 161, 144, 68, 87, 54, 933, 148, 629
16613720, 7977, 12007, 2359, 7419, 2535, 1990, -1085, -109, 306, -475, 161, 144, 68, 87, 54, 933, 148, 629
16619861, 7922, 12033, 2351, 7438, 2422, 1903, -1081, -122, 191, -329, 161, 144, 68, 87, 54, 933, 148, 629
16635432, 7922, 12033, 2351, 7438, 2422, 1903, -1081, -122, 191, -329, 160, 129, 70, 86, 55, 856, 138, 612
16636198, 7922, 12033, 2351, 7438, 2422, 1903, -1081, -122, 191, -329, 160, 129, 70, 86, 55, 856, 138, 612
16642392, 7851, 12068, 2324, 7465, 2530, 1960, -1062, -62, 143, -199, 160, 129, 70, 86, 55, 856, 138, 612
16649744, 7851, 12068, 2324, 7465, 2530, 1960, -1062, -62, 143, -199, 227, 132, 78, 87, 56, 746, 135, 552
16657240, 7851, 12068, 2324, 7465, 2530, 1960, -1062, -62, 143, -199, 227, 132, 78, 87, 56, 746, 135, 552
16664872, 7787, 12082, 2299, 7516, 2509, 2127, -974, -105, 278, -102, 227, 132, 78, 87, 56, 746, 135, 552
16672914, 7787, 12082, 2299, 7516, 2509, 2127, -974, -105, 278, -102, 417, 422, 99, 144, 135, 740, 174, 464
16673713, 7787, 12082, 2299, 7516, 2509, 2127, -974, -105, 278, -102, 417, 422, 99, 144, 135, 740, 174, 464
16679868, 7721, 12086, 2283, 7583, 2384, 1978, -1042, -150, 426, -75, 417, 422, 99, 144, 135, 740, 174, 464
16695390, 7721, 12086, 2283, 7583, 2384, 1978, -1042, -150, 426, -75, 467, 588, 123, 272, 156, 713, 537, 449
16696206, 7721, 12086, 2283, 7583, 2384, 1978, -1042, -150, 426, -75, 467, 588, 123, 272, 156, 713, 537, 449
16702395, 7703, 12116, 2292, 7552, 2080, 2079, -1147, -170, 32, -365, 467, 588, 123, 272, 156, 713, 537, 449
16717895, 7703, 12116, 2292, 7552, 2080, 2079, -1147, -170, 32, -365, 475, 615, 167, 303, 203, 737, 749, 441
16718718, 7703, 12116, 2292, 7552, 2080, 2079, -1147, -170, 32, -365, 475, 615, 167, 303, 203, 737, 749, 441
16724853, 7626, 12237, 2178, 7467, 2697, 1981, -1337, -30, -720, -77, 475, 615, 167, 303, 203, 737, 749, 441
16732890, 7626, 12237, 2178, 7467, 2697, 1981, -1337, -30, -720, -77, 483, 629, 178, 323, 236, 948, 808, 513
16733716, 7626, 12237, 2178, 7467, 2697, 1981, -1337, -30, -720, -77, 483, 629, 178, 323, 236, 948, 808, 513
16739867, 7595, 12223, 2032, 7563, 2645, 2112, -576, -439, 49, 415, 483, 629, 178, 323, 236, 948, 808, 513
16755392, 7595, 12223, 2032, 7563, 2645, 2112, -576, -439, 49, 415, 491, 654, 193, 348, 267, 996, 810, 719
16756204, 7595, 12223, 2032, 7563, 2645, 2112, -576, -439, 49, 415, 491, 654, 193, 348, 267, 996, 810, 719
16769869, 7458, 12326, 2031, 7533, 2453, 2127, -1198, 516, -133, -54, 491, 654, 193, 348, 267, 996, 810, 719
16777893, 7458, 12326, 2031, 7533, 2453, 2127, -1198, 516, -133, -54, 352, 520, 185, 352, 335, 952, 805, 826
16778722, 7458, 12326, 2031, 7533, 2453, 2127, -1198, 516, -133, -54, 352, 520, 185, 352, 335, 952, 805, 826
16793686, 7323, 12408, 2005, 7538, 2455, 2123, -954, 497, -89, 137, 352, 520, 185, 352, 335, 952, 805, 826
16794479, 7323, 12408, 2005, 7538, 2455, 2123, -954, 497, -89, 137, 278, 344, 217, 302, 437, 967, 632, 840
16795317, 7323, 12408, 2005, 7538, 2455, 2123, -954, 497, -89, 137, 278, 344, 217, 302, 437, 967, 632, 840
16799874, 7204, 12479, 1987, 7538, 2448, 2345, -993, 449, -78, 139, 278, 344, 217, 302, 437, 967, 632, 840
16815406, 7204, 12479, 1987, 7538, 2448, 2345, -993, 449, -78, 139, 268, 307, 196, 288, 483, 857, 389, 907
16816221, 7204, 12479, 1987, 7538, 2448, 2345, -993, 449, -78, 139, 268, 307, 196, 288, 483, 857, 389, 907
16822383, 7075, 12567, 1999, 7512, 2368, 2206, -1037, 619, -145, -8, 268, 307, 196, 288, 483, 857, 389, 907
16837899, 7075, 12567, 1999, 7512, 2368, 2206, -1037, 619, -145, -8, 269, 290, 190, 273, 476, 593, 250, 922
16838702, 7075, 12567, 1999, 7512, 2368, 2206, -1037, 619, -145, -8, 269, 290, 190, 273, 476, 593, 250, 922
16844870, 6972, 12639, 1988, 7491, 2419, 2208, -1201, 356, -124, 11, 269, 290, 190, 273, 476, 593, 250, 922
16852913, 6972, 12639, 1988, 7491, 2419, 2208, -1201, 356, -124, 11, 202, 221, 178, 242, 472, 500, 241, 784
16853711, 6972, 12639, 1988, 7491, 2419, 2208, -1201, 356, -124, 11, 202, 221, 178, 242, 472, 500, 241, 784
16859866, 6925, 12693, 1944, 7454, 2412, 2187, -1220, 7, -263, -31, 202, 221, 178, 242, 472, 500, 241, 784
16875397, 6925, 12693, 1944, 7454, 2412, 2187, -1220, 7, -263, -31, 202, 211, 174, 202, 414, 424, 227, 672
16876205, 6925, 12693, 1944, 7454, 2412, 2187, -1220, 7, -263, -31, 202, 211, 174, 202, 414, 424, 227, 672
16882397, 6920, 12722, 1857, 7430, 2450, 2151, -1186, -339, -298, 42, 202, 211, 174, 202, 414, 424, 227, 672
16897890, 6920, 12722, 1857, 7430, 2450, 2151, -1186, -339, -298, 42, 203, 164, 111, 146, 314, 243, 203, 642
16898689, 6920, 12722, 1857, 7430, 2450, 2151, -1186, -339, -298, 42, 203, 164, 111, 146, 314, 243, 203, 642
16904870, 6922, 12737, 1806, 7417, 2404, 2215, -1010, -233, -187, -65, 203, 164, 111, 146, 314, 243, 203, 642
16921095, 6922, 12737, 1806, 7417, 2404, 2215, -1010, -233, -187, -65, 205, 134, 93, 107, 221, 136, 129, 515
16921907, 6922, 12737, 1806, 7417, 2404, 2215, -1010, -233, -187, -65, 205, 134, 93, 107, 221, 136, 129, 515
16922837, 6887, 12770, 1767, 7401, 2415, 2014, -1191, -93, -142, -85, 205, 134, 93, 107, 221, 136, 129, 515
16935388, 6887, 12770, 1767, 7401, 2415, 2014, -1191, -93, -142, -85, 183, 109, 82, 82, 211, 122, 116, 418
16936177, 6887, 12770, 1767, 7401, 2415, 2014, -1191, -93, -142, -85, 183, 109, 82, 82, 211, 122, 116, 418
16942392, 6847, 12801, 1728, 7395, 2488, 2111, -1080, -15, -135, -37, 183, 109, 82, 82, 211, 122, 116, 418
16957912, 6847, 12801, 1728, 7395, 2488, 2111, -1080, -15, -135, -37, 198, 97, 69, 80, 188, 115, 112, 390
16958736, 6847, 12801, 1728, 7395, 2488, 2111, -1080, -15, -135, -37, 198, 97, 69, 80, 188, 115, 112, 390
16964894, 6821, 12821, 1692, 7392, 2425, 2152, -1169, -117, -62, -42, 198, 97, 69, 80, 188, 115, 112, 390
16981055, 6821, 12821, 1692, 7392, 2425, 2152, -1169, -117, -62, -42, 231, 114, 108, 273, 272, 102, 150, 382
16981892, 6821, 12821, 1692, 7392, 2425, 2152, -1169, -117, -62, -42, 231, 114, 108, 273, 272, 102, 150, 382
16982818, 6796, 12824, 1657, 7418, 2447, 2069, -1077, -151, 79, -13, 231, 114, 108, 273, 272, 102, 150, 382
16995383, 6796, 12824, 1657, 7418, 2447, 2069, -1077, -151, 79, -13, 245, 137, 133, 317, 255, 82, 181, 317
16996225, 6796, 12824, 1657, 7418, 2447, 2069, -1077, -151, 79, -13, 245, 137, 133, 317, 255, 82, 181, 317
17002384, 6758, 12820, 1638, 7464, 2491, 2173, -1041, -48, 216, 25, 245, 137, 133, 317, 255, 82, 181, 317
17017901, 6758, 12820, 1638, 7464, 2491, 2173, -1041, -48, 216, 25, 240, 138, 133, 325, 240, 88, 228, 396
17018712, 6758, 12820, 1638, 7464, 2491, 2173, -1041, -48, 216, 25, 240, 138, 133, 325, 240, 88, 228, 396
17024892, 6731, 12828, 1625, 7476, 2443, 1965, -1133, -101, 80, -148, 240, 138, 133, 325, 240, 88, 228, 396
17048581, 6731, 12828, 1625, 7476, 2443, 1965, -1133, -101, 80, -148, 262, 142, 137, 360, 308, 123, 419, 512
17049376, 6731, 12828, 1625, 7476, 2443, 1965, -1133, -101, 80, -148, 262, 142, 137, 360, 308, 123, 419, 512
17050378, 6704, 12857, 1611, 7455, 2305, 2268, -1099, 29, -120, -43, 262, 142, 137, 360, 308, 123, 419, 512
17055485, 6704, 12857, 1611, 7455, 2305, 2268, -1099, 29, -120, -43, 268, 161, 152, 370, 349, 193, 505, 588
17056283, 6704, 12857, 1611, 7455, 2305, 2268, -1099, 29, -120, -43, 268, 161, 152, 370, 349, 193, 505, 588
17071072, 6704, 12857, 1611, 7455, 2305, 2268, -1099, 29, -120, -43, 268, 161, 152, 370, 349, 193, 505, 588
17071899, 6704, 12857, 1611, 7455, 2305, 2268, -1099, 29, -120, -43, 268, 161, 152, 370, 349, 193, 505, 588
17072820, 6674, 12869, 1513, 7480, 2564, 1928, -1045, -255, -115, 226, 268, 161, 152, 370, 349, 193, 505, 588
17079947, 6674, 12869, 1513, 7480, 2564, 1928, -1045, -255, -115, 226, 248, 161, 137, 299, 323, 228, 558, 706
17080765, 6674, 12869, 1513, 7480, 2564, 1928, -1045, -255, -115, 226, 248, 161, 137, 299, 323, 228, 558, 706
17081591, 6674, 12869, 1513, 7480, 2564, 1928, -1045, -255, -115, 226, 248, 161, 137, 299, 323, 228, 558, 706
17082404, 6674, 12869, 1513, 7480, 2564, 1928, -1045, -255, -115, 226, 248, 161, 137, 299, 323, 228, 558, 706
17087402, 6674, 12869, 1513, 7480, 2564, 1928, -1045, -255, -115, 226, 248, 161, 137, 299, 323, 228, 558, 706
17088220, 6674, 12869, 1513, 7480, 2564, 1928, -1045, -255, -115, 226, 248, 161, 137, 299, 323, 228, 558, 706
17089019, 6674, 12869, 1513, 7480, 2564, 1928, -1045, -255, -115, 226, 248, 161, 137, 299, 323, 228, 558, 706
17092942, 6674, 12869, 1513, 7480, 2564, 1928, -1045, -255, -115, 226, 248, 161, 137, 299, 323, 228, 558, 706
17093895, 6599, 12903, 1503, 7491, 2464, 2160, -999, 286, -16, 68, 248, 161, 137, 299, 323, 228, 558, 706
17102496, 6599, 12903, 1503, 7491, 2464, 2160, -999, 286, -16, 68, 320, 160, 129, 254, 366, 278, 561, 846
17103308, 6599, 12903, 1503, 7491, 2464, 2160, -999, 286, -16, 68, 320, 160, 129, 254, 366, 278, 561, 846
17104116, 6599, 12903, 1503, 7491, 2464, 2160, -999, 286, -16, 68, 320, 160, 129, 254, 366, 278, 561, 846
17104919, 6599, 12903, 1503, 7491, 2464, 2160, -999, 286, -16, 68, 320, 160, 129, 254, 366, 278, 561, 846
17109937, 6599, 12903, 1503, 7491, 2464, 2160, -999, 286, -16, 68, 320, 160, 129, 254, 366, 278, 561, 846
17110732, 6599, 12903, 1503, 7491, 2464, 2160, -999, 286, -16, 68, 320, 160, 129, 254, 366, 278, 561, 846
17111560, 6599, 12903, 1503, 7491, 2464, 2160, -999, 286, -16, 68, 320, 160, 129, 254, 366, 278, 561, 846
17112388, 6599, 12903, 1503, 7491, 2464, 2160, -999, 286, -16, 68, 320, 160, 129, 254, 366, 278, 561, 846
17115537, 6502, 12950, 1516, 7492, 2552, 2213, -989, 505, -58, 0, 320, 160, 129, 254, 366, 278, 561, 846
17116381, 6502, 12950, 1516, 7492, 2552, 2213, -989, 505, -58, 0, 335, 167, 172, 271, 436, 334, 548, 866
17124256, 6502, 12950, 1516, 7492, 2552, 2213, -989, 505, -58, 0, 335, 167, 172, 271, 436, 334, 548, 866
17125060, 6502, 12950, 1516, 7492, 2552, 2213, -989, 505, -58, 0, 335, 167, 172, 271, 436, 334, 548, 866
17125892, 6502, 12950, 1516, 7492, 2552, 2213, -989, 505, -58, 0, 335, 167, 172, 271, 436, 334, 548, 866
17126815, 6395, 12999, 1557, 7490, 2410, 2231, -1120, 589, 49, -22, 335, 167, 172, 271, 436, 334, 548, 866
17137915, 6395, 12999, 1557, 7490, 2410, 2231, -1120, 589, 49, -22, 342, 176, 189, 279, 416, 337, 430, 851
17138744, 6395, 12999, 1557, 7490, 2410, 2231, -1120, 589, 49, -22, 342, 176, 189, 279, 416, 337, 430, 851
17144887, 6351, 13032, 1521, 7478, 2377, 2211, -1323, 12, -87, 136, 342, 176, 189, 279, 416, 337, 430, 851
17161063, 6351, 13032, 1521, 7478, 2377, 2211, -1323, 12, -87, 136, 342, 164, 183, 277, 411, 307, 328, 831
17161885, 6351, 13032, 1521, 7478, 2377, 2211, -1323, 12, -87, 136, 342, 164, 183, 277, 411, 307, 328, 831
17162816, 6345, 13060, 1442, 7450, 2421, 2076, -1214, -246, -305, 138, 342, 164, 183, 277, 411, 307, 328, 831
17183596, 6345, 13060, 1442, 7450, 2421, 2076, -1214, -246, -305, 138, 349, 151, 181, 240, 384, 284, 199, 749
17184409, 6345, 13060, 1442, 7450, 2421, 2076, -1214, -246, -305, 138, 349, 151, 181, 240, 384, 284, 199, 749
17185384, 6420, 13029, 1375, 7452, 2527, 2437, -1023, -590, -115, 7, 349, 151, 181, 240, 384, 284, 199, 749
17197860, 6420, 13029, 1375, 7452, 2527, 2437, -1023, -590, -115, 7, 270, 124, 168, 241, 342, 236, 159, 594
17198681, 6420, 13029, 1375, 7452, 2527, 2437, -1023, -590, -115, 7, 270, 124, 168, 241, 342, 236, 159, 594
17204849, 6419, 13032, 1348, 7454, 2470, 1946, -1067, -171, -54, -120, 270, 124, 168, 241, 342, 236, 159, 594
17221100, 6419, 13032, 1348, 7454, 2470, 1946, -1067, -171, -54, -120, 248, 118, 124, 210, 247, 146, 157, 509
17221921, 6419, 13032, 1348, 7454, 2470, 1946, -1067, -171, -54, -120, 248, 118, 124, 210, 247, 146, 157, 509
17222833, 6381, 13054, 1320, 7453, 2398, 1959, -1135, 18, -62, 20, 248, 118, 124, 210, 247, 146, 157, 509
17243570, 6381, 13054, 1320, 7453, 2398, 1959, -1135, 18, -62, 20, 219, 94, 89, 125, 198, 110, 128, 410
17244390, 6381, 13054, 1320, 7453, 2398, 1959, -1135, 18, -62, 20, 219, 94, 89, 125, 198, 110, 128, 410
17245387, 6355, 13068, 1299, 7453, 2568, 2243, -1107, 19, -66, 7, 219, 94, 89, 125, 198, 110, 128, 410
17257888, 6355, 13068, 1299, 7453, 2568, 2243, -1107, 19, -66, 7, 194, 86, 77, 94, 126, 96, 115, 364
17258778, 6355, 13068, 1299, 7453, 2568, 2243, -1107, 19, -66, 7, 194, 86, 77, 94, 126, 96, 115, 364
17264864, 6342, 13077, 1279, 7453, 2529, 2181, -1127, -59, -49, -39, 194, 86, 77, 94, 126, 96, 115, 364
17281092, 6342, 13077, 1279, 7453, 2529, 2181, -1127, -59, -49, -39, 148, 87, 68, 71, 106, 83, 110, 336
17281917, 6342, 13077, 1279, 7453, 2529, 2181, -1127, -59, -49, -39, 148, 87, 68, 71, 106, 83, 110, 336
17282841, 6330, 13078, 1270, 7463, 2573, 2157, -1052, -32, 12, -92, 148, 87, 68, 71, 106, 83, 110, 336
17303595, 6330, 13078, 1270, 7463, 2573, 2157, -1052, -32, 12, -92, 132, 81, 67, 67, 108, 83, 103, 304
17304412, 6330, 13078, 1270, 7463, 2573, 2157, -1052, -32, 12, -92, 132, 81, 67, 67, 108, 83, 103, 304
17305387, 6306, 13080, 1278, 7479, 2471, 2169, -1112, 46, 109, -75, 132, 81, 67, 67, 108, 83, 103, 304
17317913, 6306, 13080, 1278, 7479, 2471, 2169, -1112, 46, 109, -75, 133, 69, 60, 74, 105, 97, 69, 300
17318738, 6306, 13080, 1278, 7479, 2471, 2169, -1112, 46, 109, -75, 133, 69, 60, 74, 105, 97, 69, 300
17324879, 6292, 13081, 1292, 7485, 2332, 2176, -1150, 6, 117, -91, 133, 69, 60, 74, 105, 97, 69, 300
17341063, 6292, 13081, 1292, 7485, 2332, 2176, -1150, 6, 117, -91, 212, 80, 90, 152, 135, 93, 76, 293
17341894, 6292, 13081, 1292, 7485, 2332, 2176, -1150, 6, 117, -91, 212, 80, 90, 152, 135, 93, 76, 293
17342824, 6275, 13068, 1278, 7525, 2390, 1951, -1144, -133, 238, 8, 212, 80, 90, 152, 135, 93, 76, 293
17363596, 6275, 13068, 1278, 7525, 2390, 1951, -1144, -133, 238, 8, 286, 125, 124, 235, 191, 99, 157, 249
17364422, 6275, 13068, 1278, 7525, 2390, 1951, -1144, -133, 238, 8, 286, 125, 124, 235, 191, 99, 157, 249
17365392, 6217, 13058, 1252, 7595, 2347, 1864, -1195, -14, 390, 233, 286, 125, 124, 235, 191, 99, 157, 249
17377867, 6217, 13058, 1252, 7595, 2347, 1864, -1195, -14, 390, 233, 304, 155, 170, 298, 354, 123, 355, 295
17378686, 6217, 13058, 1252, 7595, 2347, 1864, -1195, -14, 390, 233, 304, 155, 170, 298, 354, 123, 355, 295
17384837, 6265, 13032, 1251, 7600, 2298, 2225, -1048, -331, 111, -146, 304, 155, 170, 298, 354, 123, 355, 295
17401087, 6265, 13032, 1251, 7600, 2298, 2225, -1048, -331, 111, -146, 311, 175, 191, 360, 412, 228, 499, 365
17401887, 6265, 13032, 1251, 7600, 2298, 2225, -1048, -331, 111, -146, 311, 175, 191, 360, 412, 228, 499, 365
17402837, 6215, 13096, 1249, 7531, 2548, 2029, -1302, 220, -376, -179, 311, 175, 191, 360, 412, 228, 499, 365
17423536, 6215, 13096, 1249, 7531, 2548, 2029, -1302, 220, -376, -179, 309, 181, 200, 369, 456, 353, 624, 406
17424378, 6215, 13096, 1249, 7531, 2548, 2029, -1302, 220, -376, -179, 309, 181, 200, 369, 456, 353, 624, 406
17425396, 6218, 13065, 1150, 7598, 2775, 2319, -878, -328, 66, 411, 309, 181, 200, 369, 456, 353, 624, 406
17437895, 6218, 13065, 1150, 7598, 2775, 2319, -878, -328, 66, 411, 277, 189, 195, 355, 458, 364, 645, 449
17438712, 6218, 13065, 1150, 7598, 2775, 2319, -878, -328, 66, 411, 277, 189, 195, 355, 458, 364, 645, 449
17444869, 6204, 13074, 1119, 7599, 2640, 2293, -1008, -12, -107, 78, 277, 189, 195, 355, 458, 364, 645, 449
17461121, 6204, 13074, 1119, 7599, 2640, 2293, -1008, -12, -107, 78, 214, 177, 185, 338, 479, 391, 653, 648
17461917, 6204, 13074, 1119, 7599, 2640, 2293, -1008, -12, -107, 78, 214, 177, 185, 338, 479, 391, 653, 648
17462844, 6160, 13085, 1108, 7617, 2548, 2024, -921, 168, -7, 42, 214, 177, 185, 338, 479, 391, 653, 648
17483564, 6160, 13085, 1108, 7617, 2548, 2024, -921, 168, -7, 42, 296, 173, 211, 355, 446, 396, 578, 783
17484390, 6160, 13085, 1108, 7617, 2548, 2024, -921, 168, -7, 42, 296, 173, 211, 355, 446, 396, 578, 783
17485389, 6076, 13130, 1145, 7602, 2395, 2236, -972, 581, -95, 20, 296, 173, 211, 355, 446, 396, 578, 783
17497890, 6076, 13130, 1145, 7602, 2395, 2236, -972, 581, -95, 20, 372, 164, 243, 346, 471, 400, 481, 822
17498713, 6076, 13130, 1145, 7602, 2395, 2236, -972, 581, -95, 20, 372, 164, 243, 346, 471, 400, 481, 822
17504868, 5997, 13189, 1146, 7562, 2490, 2187, -1157, 442, -279, 75, 372, 164, 243, 346, 471, 400, 481, 822
17521131, 5997, 13189, 1146, 7562, 2490, 2187, -1157, 442, -279, 75, 455, 166, 251, 430, 467, 425, 319, 889
17521911, 5997, 13189, 1146, 7562, 2490, 2187, -1157, 442, -279, 75, 455, 166, 251, 430, 467, 425, 319, 889
17522864, 5951, 13213, 1165, 7554, 2483, 2266, -1113, 299, -39, -2, 455, 166, 251, 430, 467, 425, 319, 889
17543560, 5951, 13213, 1165, 7554, 2483, 2266, -1113, 299, -39, -2, 494, 190, 260, 424, 471, 435, 287, 997
17544397, 5951, 13213, 1165, 7554, 2483, 2266, -1113, 299, -39, -2, 494, 190, 260, 424, 471, 435, 287, 997
17545396, 5884, 13259, 1198, 7521, 2282, 2234, -1312, 416, -79, 11, 494, 190, 260, 424, 471, 435, 287, 997
17557922, 5884, 13259, 1198, 7521, 2282, 2234, -1312, 416, -79, 11, 506, 179, 257, 404, 445, 415, 234, 907
17558720, 5884, 13259, 1198, 7521, 2282, 2234, -1312, 416, -79, 11, 506, 179, 257, 404, 445, 415, 234, 907
17564872, 5891, 13289, 1165, 7466, 2448, 2168, -1355, -128, -320, -19, 506, 179, 257, 404, 445, 415, 234, 907
17581087, 5891, 13289, 1165, 7466, 2448, 2168, -1355, -128, -320, -19, 466, 163, 209, 349, 383, 422, 216, 768
17581887, 5891, 13289, 1165, 7466, 2448, 2168, -1355, -128, -320, -19, 466, 163, 209, 349, 383, 422, 216, 768
17582813, 5939, 13288, 1105, 7439, 2544, 2262, -1278, -417, -229, 34, 466, 163, 209, 349, 383, 422, 216, 768
17603586, 5939, 13288, 1105, 7439, 2544, 2262, -1278, -417, -229, 34, 479, 159, 149, 299, 281, 376, 168, 694
17604410, 5939, 13288, 1105, 7439, 2544, 2262, -1278, -417, -229, 34, 479, 159, 149, 299, 281, 376, 168, 694
17605392, 5971, 13274, 1071, 7443, 2465, 2125, -1147, -298, -32, 2, 479, 159, 149, 299, 281, 376, 168, 694
17617878, 5971, 13274, 1071, 7443, 2465, 2125, -1147, -298, -32, 2, 407, 155, 127, 147, 215, 215, 138, 589
17618696, 5971, 13274, 1071, 7443, 2465, 2125, -1147, -298, -32, 2, 407, 155, 127, 147, 215, 215, 138, 589
17624911, 5970, 13270, 1034, 7457, 2480, 2017, -1170, -164, 7, 80, 407, 155, 127, 147, 215, 215, 138, 589
17641088, 5970, 13270, 1034, 7457, 2480, 2017, -1170, -164, 7, 80, 392, 106, 96, 169, 201, 179, 113, 364
17641898, 5970, 13270, 1034, 7457, 2480, 2017, -1170, -164, 7, 80, 392, 106, 96, 169, 201, 179, 113, 364
17642822, 5946, 13276, 1010, 7469, 2566, 2161, -1239, -4, 16, 107, 392, 106, 96, 169, 201, 179, 113, 364
17662653, 5946, 13276, 1010, 7469, 2566, 2161, -1239, -4, 16, 107, 400, 108, 90, 163, 190, 175, 119, 355
17670391, 5946, 13276, 1010, 7469, 2566, 2161, -1239, -4, 16, 107, 400, 108, 90, 163, 190, 175, 119, 355
17671388, 5946, 13267, 986, 7488, 2567, 2290, -1159, -98, 55, 111, 400, 108, 90, 163, 190, 175, 119, 355
17678667, 5946, 13267, 986, 7488, 2567, 2290, -1159, -98, 55, 111, 493, 107, 79, 164, 182, 136, 122, 396
17679494, 5946, 13267, 986, 7488, 2567, 2290, -1159, -98, 55, 111, 493, 107, 79, 164, 182, 136, 122, 396
17680296, 5946, 13267, 986, 7488, 2567, 2290, -1159, -98, 55, 111, 493, 107, 79, 164, 182, 136, 122, 396
17686074, 5946, 13267, 986, 7488, 2567, 2290, -1159, -98, 55, 111, 493, 107, 79, 164, 182, 136, 122, 396
17686884, 5946, 13267, 986, 7488, 2567, 2290, -1159, -98, 55, 111, 493, 107, 79, 164, 182, 136, 122, 396
17687819, 5936, 13258, 974, 7513, 2539, 2155, -1124, -28, 102, 58, 493, 107, 79, 164, 182, 136, 122, 396
17701075, 5936, 13258, 974, 7513, 2539, 2155, -1124, -28, 102, 58, 474, 102, 73, 179, 283, 177, 119, 433
17701866, 5936, 13258, 974, 7513, 2539, 2155, -1124, -28, 102, 58, 474, 102, 73, 179, 283, 177, 119, 433
17702813, 5921, 13256, 965, 7530, 2436, 2123, -1132, 0, 86, 77, 474, 102, 73, 179, 283, 177, 119, 433
17723587, 5921, 13256, 965, 7530, 2436, 2123, -1132, 0, 86, 77, 475, 104, 73, 339, 292, 200, 115, 464
17724414, 5921, 13256, 965, 7530, 2436, 2123, -1132, 0, 86, 77, 475, 104, 73, 339, 292, 200, 115, 464
17725392, 5891, 13272, 958, 7526, 2496, 2111, -1213, 98, -33, 45, 475, 104, 73, 339, 292, 200, 115, 464
17737912, 5891, 13272, 958, 7526, 2496, 2111, -1213, 98, -33, 45, 441, 107, 82, 326, 282, 198, 115, 499
17738736, 5891, 13272, 958, 7526, 2496, 2111, -1213, 98, -33, 45, 441, 107, 82, 326, 282, 198, 115, 499
17744887, 5872, 13284, 929, 7524, 2576, 2105, -1206, -12, -84, 94, 441, 107, 82, 326, 282, 198, 115, 499
17761067, 5872, 13284, 929, 7524, 2576, 2105, -1206, -12, -84, 94, 419, 107, 83, 326, 272, 192, 100, 516
17761889, 5872, 13284, 929, 7524, 2576, 2105, -1206, -12, -84, 94, 419, 107, 83, 326, 272, 192, 100, 516
17762813, 5858, 13290, 899, 7528, 2587, 2076, -1166, -40, -59, 94, 419, 107, 83, 326, 272, 192, 100, 516
17783595, 5858, 13290, 899, 7528, 2587, 2076, -1166, -40, -59, 94, 317, 97, 82, 326, 275, 189, 96, 521
17784410, 5858, 13290, 899, 7528, 2587, 2076, -1166, -40, -59, 94, 317, 97, 82, 326, 275, 189, 96, 521
17785386, 5840, 13301, 881, 7524, 2587, 2147, -1159, 43, -90, 59, 317, 97, 82, 326, 275, 189, 96, 521
17797862, 5840, 13301, 881, 7524, 2587, 2147, -1159, 43, -90, 59, 232, 103, 88, 318, 175, 152, 101, 519
17798687, 5840, 13301, 881, 7524, 2587, 2147, -1159, 43, -90, 59, 232, 103, 88, 318, 175, 152, 101, 519
17804842, 5838, 13301, 862, 7527, 2610, 2219, -1126, -38, -50, 60, 232, 103, 88, 318, 175, 152, 101, 519
17821090, 5838, 13301, 862, 7527, 2610, 2219, -1126, -38, -50, 60, 219, 102, 87, 167, 184, 121, 105, 495
17821884, 5838, 13301, 862, 7527, 2610, 2219, -1126, -38, -50, 60, 219, 102, 87, 167, 184, 121, 105, 495
17822837, 5830, 13305, 854, 7528, 2516, 2163, -1134, 18, -28, 37, 219, 102, 87, 167, 184, 121, 105, 495
17843609, 5830, 13305, 854, 7528, 2516, 2163, -1134, 18, -28, 37, 215, 112, 89, 220, 225, 199, 111, 507
17844436, 5830, 13305, 854, 7528, 2516, 2163, -1134, 18, -28, 37, 215, 112, 89, 220, 225, 199, 111, 507
17845396, 5822, 13315, 834, 7519, 2500, 2141, -1167, -9, -96, 71, 215, 112, 89, 220, 225, 199, 111, 507
17857895, 5822, 13315, 834, 7519, 2500, 2141, -1167, -9, -96, 71, 203, 106, 79, 217, 230, 207, 114, 485
17858724, 5822, 13315, 834, 7519, 2500, 2141, -1167, -9, -96, 71, 203, 106, 79, 217, 230, 207, 114, 485
17864831, 5815, 13319, 797, 7521, 2594, 2062, -1133, -74, -95, 112, 203, 106, 79, 217, 230, 207, 114, 485
17881086, 5815, 13319, 797, 7521, 2594, 2062, -1133, -74, -95, 112, 157, 108, 78, 230, 225, 211, 119, 453
17881899, 5815, 13319, 797, 7521, 2594, 2062, -1133, -74, -95, 112, 157, 108, 78, 230, 225, 211, 119, 453
17882829, 5801, 13328, 779, 7517, 2597, 2138, -1108, 45, -107, 61, 157, 108, 78, 230, 225, 211, 119, 453
17903581, 5801, 13328, 779, 7517, 2597, 2138, -1108, 45, -107, 61, 182, 101, 74, 224, 223, 200, 115, 459
17904392, 5801, 13328, 779, 7517, 2597, 2138, -1108, 45, -107, 61, 182, 101, 74, 224, 223, 200, 115, 459
17905398, 5790, 13336, 780, 7511, 2615, 2240, -1131, 92, -77, 2, 182, 101, 74, 224, 223, 200, 115, 459
17926099, 5790, 13336, 780, 7511, 2615, 2240, -1131, 92, -77, 2, 182, 93, 69, 190, 196, 200, 142, 474
17926907, 5790, 13336, 780, 7511, 2615, 2240, -1131, 92, -77, 2, 182, 93, 69, 190, 196, 200, 142, 474
17927843, 5782, 13343, 785, 7505, 2533, 2148, -1155, 64, -46, -33, 182, 93, 69, 190, 196, 200, 142, 474
17941017, 5782, 13343, 785, 7505, 2533, 2148, -1155, 64, -46, -33, 182, 72, 53, 133, 165, 129, 130, 411
17947937, 5782, 13343, 785, 7505, 2533, 2148, -1155, 64, -46, -33, 182, 72, 53, 133, 165, 129, 130, 411
17948863, 5770, 13350, 789, 7501, 2506, 2148, -1166, 75, -26, -4, 182, 72, 53, 133, 165, 129, 130, 411