Timestamp, Orientation x, Orientation y, Orientation z, Orientation w, Acceleration x, Acceleration y, Acceleration z, Rotation x, Rotation y, Rotation z, EMG 0, EMG 1, EMG 2, EMG 3, EMG 4, EMG 5, EMG 6, EMG 7
71909872, -1194, -10330, -12603, -1219, 53, 556, -2449, 82, -47, 16, 0, 0, 0, 0, 0, 0, 0, 0
71917395, -1185, -10334, -12602, -1212, 59, 563, -2441, 90, -49, 12, 0, 0, 0, 0, 0, 0, 0, 0
71947436, -1178, -10336, -12600, -1209, 71, 578, -2454, 73, -46, 2, 0, 0, 0, 0, 0, 0, 0, 0
71954847, -1174, -10337, -12600, -1212, 75, 601, -2470, 48, -36, -8, 0, 0, 0, 0, 0, 0, 0, 0
71978695, -1176, -10335, -12600, -1225, 79, 630, -2529, -10, -27, -21, 0, 0, 0, 0, 0, 0, 0, 0
71979514, -1176, -10335, -12600, -1225, 79, 630, -2529, -10, -27, -21, 38, 80, 33, 137, 69, 24, 18, 23
71980341, -1176, -10335, -12600, -1225, 79, 630, -2529, -10, -27, -21, 38, 80, 33, 137, 69, 24, 18, 23
72000939, -1197, -10322, -12605, -1265, 88, 794, -2651, -129, -12, -83, 38, 80, 33, 137, 69, 24, 18, 23
72001740, -1197, -10322, -12605, -1265, 88, 794, -2651, -129, -12, -83, 44, 106, 33, 137, 71, 29, 18, 24
72007382, -1197, -10322, -12605, -1265, 88, 794, -2651, -129, -12, -83, 44, 106, 33, 137, 71, 29, 18, 24
72014982, -1217, -10293, -12619, -1345, 127, 849, -2705, -295, 125, -170, 44, 106, 33, 137, 71, 29, 18, 24
72022981, -1217, -10293, -12619, -1345, 127, 849, -2705, -295, 125, -170, 60, 117, 36, 139, 71, 27, 24, 33
72023796, -1217, -10293, -12619, -1345, 127, 849, -2705, -295, 125, -170, 60, 117, 36, 139, 71, 27, 24, 33
72038693, -1227, -10246, -12641, -1476, 138, 819, -2846, -530, 369, -250, 60, 117, 36, 139, 71, 27, 24, 33
72039502, -1227, -10246, -12641, -1476, 138, 819, -2846, -530, 369, -250, 84, 119, 35, 76, 49, 24, 38, 65
72040369, -1227, -10246, -12641, -1476, 138, 819, -2846, -530, 369, -250, 84, 119, 35, 76, 49, 24, 38, 65
72061209, -1191, -10184, -12676, -1627, 198, 674, -2944, -572, 639, -330, 84, 119, 35, 76, 49, 24, 38, 65
72062054, -1191, -10184, -12676, -1627, 198, 674, -2944, -572, 639, -330, 100, 118, 29, 56, 36, 26, 48, 79
72062820, -1191, -10184, -12676, -1627, 198, 674, -2944, -572, 639, -330, 100, 118, 29, 56, 36, 26, 48, 79
72074906, -1097, -10141, -12701, -1759, 226, 738, -3040, -272, 828, -187, 100, 118, 29, 56, 36, 26, 48, 79
72090484, -1097, -10141, -12701, -1759, 226, 738, -3040, -272, 828, -187, 107, 106, 27, 48, 32, 32, 68, 85
72091257, -1097, -10141, -12701, -1759, 226, 738, -3040, -272, 828, -187, 107, 106, 27, 48, 32, 32, 68, 85
72100125, -940, -10093, -12727, -1930, 238, 1023, -3291, -116, 1286, -147, 107, 106, 27, 48, 32, 32, 68, 85
72100898, -940, -10093, -12727, -1930, 238, 1023, -3291, -116, 1286, -147, 109, 81, 28, 40, 34, 40, 82, 87
72101714, -940, -10093, -12727, -1930, 238, 1023, -3291, -116, 1286, -147, 109, 81, 28, 40, 34, 40, 82, 87
72102529, -940, -10093, -12727, -1930, 238, 1023, -3291, -116, 1286, -147, 109, 81, 28, 40, 34, 40, 82, 87
72107437, -940, -10093, -12727, -1930, 238, 1023, -3291, -116, 1286, -147, 109, 81, 28, 40, 34, 40, 82, 87
72108253, -940, -10093, -12727, -1930, 238, 1023, -3291, -116, 1286, -147, 109, 81, 28, 40, 34, 40, 82, 87
72109093, -940, -10093, -12727, -1930, 238, 1023, -3291, -116, 1286, -147, 109, 81, 28, 40, 34, 40, 82, 87
72109895, -940, -10093, -12727, -1930, 238, 1023, -3291, -116, 1286, -147, 109, 81, 28, 40, 34, 40, 82, 87
72112343, -940, -10093, -12727, -1930, 238, 1023, -3291, -116, 1286, -147, 109, 81, 28, 40, 34, 40, 82, 87
72122599, -727, -10013, -12765, -2176, 229, 1179, -3377, -302, 1852, -253, 109, 81, 28, 40, 34, 40, 82, 87
72123384, -727, -10013, -12765, -2176, 229, 1179, -3377, -302, 1852, -253, 102, 58, 24, 34, 35, 47, 168, 105
72124195, -727, -10013, -12765, -2176, 229, 1179, -3377, -302, 1852, -253, 102, 58, 24, 34, 35, 47, 168, 105
72125026, -727, -10013, -12765, -2176, 229, 1179, -3377, -302, 1852, -253, 102, 58, 24, 34, 35, 47, 168, 105
72130007, -727, -10013, -12765, -2176, 229, 1179, -3377, -302, 1852, -253, 102, 58, 24, 34, 35, 47, 168, 105
72130793, -727, -10013, -12765, -2176, 229, 1179, -3377, -302, 1852, -253, 102, 58, 24, 34, 35, 47, 168, 105
72131589, -727, -10013, -12765, -2176, 229, 1179, -3377, -302, 1852, -253, 102, 58, 24, 34, 35, 47, 168, 105
72132431, -727, -10013, -12765, -2176, 229, 1179, -3377, -302, 1852, -253, 102, 58, 24, 34, 35, 47, 168, 105
72135536, -727, -10013, -12765, -2176, 229, 1179, -3377, -302, 1852, -253, 102, 58, 24, 34, 35, 47, 168, 105
72136438, -498, -9853, -12841, -2499, -54, 1078, -3523, -598, 2310, -686, 102, 58, 24, 34, 35, 47, 168, 105
72144144, -498, -9853, -12841, -2499, -54, 1078, -3523, -598, 2310, -686, 85, 48, 26, 28, 34, 63, 242, 93
72144967, -498, -9853, -12841, -2499, -54, 1078, -3523, -598, 2310, -686, 85, 48, 26, 28, 34, 63, 242, 93
72145790, -498, -9853, -12841, -2499, -54, 1078, -3523, -598, 2310, -686, 85, 48, 26, 28, 34, 63, 242, 93
72152453, -498, -9853, -12841, -2499, -54, 1078, -3523, -598, 2310, -686, 85, 48, 26, 28, 34, 63, 242, 93
72153259, -498, -9853, -12841, -2499, -54, 1078, -3523, -598, 2310, -686, 85, 48, 26, 28, 34, 63, 242, 93
72154117, -498, -9853, -12841, -2499, -54, 1078, -3523, -598, 2310, -686, 85, 48, 26, 28, 34, 63, 242, 93
72154891, -498, -9853, -12841, -2499, -54, 1078, -3523, -598, 2310, -686, 85, 48, 26, 28, 34, 63, 242, 93
72160019, -498, -9853, -12841, -2499, -54, 1078, -3523, -598, 2310, -686, 85, 48, 26, 28, 34, 63, 242, 93
72160953, -217, -9624, -12953, -2831, -166, 859, -3679, -490, 2678, -1055, 85, 48, 26, 28, 34, 63, 242, 93
72161767, -217, -9624, -12953, -2831, -166, 859, -3679, -490, 2678, -1055, 66, 43, 26, 28, 35, 70, 309, 90
72162571, -217, -9624, -12953, -2831, -166, 859, -3679, -490, 2678, -1055, 66, 43, 26, 28, 35, 70, 309, 90
72167583, -217, -9624, -12953, -2831, -166, 859, -3679, -490, 2678, -1055, 66, 43, 26, 28, 35, 70, 309, 90
72168396, -217, -9624, -12953, -2831, -166, 859, -3679, -490, 2678, -1055, 66, 43, 26, 28, 35, 70, 309, 90
72169234, -217, -9624, -12953, -2831, -166, 859, -3679, -490, 2678, -1055, 66, 43, 26, 28, 35, 70, 309, 90
72170025, -217, -9624, -12953, -2831, -166, 859, -3679, -490, 2678, -1055, 66, 43, 26, 28, 35, 70, 309, 90
72175002, -217, -9624, -12953, -2831, -166, 859, -3679, -490, 2678, -1055, 66, 43, 26, 28, 35, 70, 309, 90
72175775, -217, -9624, -12953, -2831, -166, 859, -3679, -490, 2678, -1055, 66, 43, 26, 28, 35, 70, 309, 90
72176648, -217, -9624, -12953, -2831, -166, 859, -3679, -490, 2678, -1055, 66, 43, 26, 28, 35, 70, 309, 90
72177446, -217, -9624, -12953, -2831, -166, 859, -3679, -490, 2678, -1055, 66, 43, 26, 28, 35, 70, 309, 90
72182516, -217, -9624, -12953, -2831, -166, 859, -3679, -490, 2678, -1055, 66, 43, 26, 28, 35, 70, 309, 90
72183433, 110, -9354, -13066, -3198, -193, 867, -3962, -509, 3072, -1188, 66, 43, 26, 28, 35, 70, 309, 90
72184285, 110, -9354, -13066, -3198, -193, 867, -3962, -509, 3072, -1188, 53, 44, 30, 61, 76, 70, 309, 85
72185055, 110, -9354, -13066, -3198, -193, 867, -3962, -509, 3072, -1188, 53, 44, 30, 61, 76, 70, 309, 85
72190078, 110, -9354, -13066, -3198, -193, 867, -3962, -509, 3072, -1188, 53, 44, 30, 61, 76, 70, 309, 85
72190869, 110, -9354, -13066, -3198, -193, 867, -3962, -509, 3072, -1188, 53, 44, 30, 61, 76, 70, 309, 85
72191712, 110, -9354, -13066, -3198, -193, 867, -3962, -509, 3072, -1188, 53, 44, 30, 61, 76, 70, 309, 85
72192515, 110, -9354, -13066, -3198, -193, 867, -3962, -509, 3072, -1188, 53, 44, 30, 61, 76, 70, 309, 85
72197491, 110, -9354, -13066, -3198, -193, 867, -3962, -509, 3072, -1188, 53, 44, 30, 61, 76, 70, 309, 85
72198259, 110, -9354, -13066, -3198, -193, 867, -3962, -509, 3072, -1188, 53, 44, 30, 61, 76, 70, 309, 85
72199102, 110, -9354, -13066, -3198, -193, 867, -3962, -509, 3072, -1188, 53, 44, 30, 61, 76, 70, 309, 85
72199879, 110, -9354, -13066, -3198, -193, 867, -3962, -509, 3072, -1188, 53, 44, 30, 61, 76, 70, 309, 85
72204988, 110, -9354, -13066, -3198, -193, 867, -3962, -509, 3072, -1188, 53, 44, 30, 61, 76, 70, 309, 85
72205919, 481, -9061, -13154, -3618, -270, 1026, -4332, -643, 3526, -1147, 53, 44, 30, 61, 76, 70, 309, 85
72206741, 481, -9061, -13154, -3618, -270, 1026, -4332, -643, 3526, -1147, 55, 63, 33, 82, 81, 70, 312, 88
72207528, 481, -9061, -13154, -3618, -270, 1026, -4332, -643, 3526, -1147, 55, 63, 33, 82, 81, 70, 312, 88
72212595, 481, -9061, -13154, -3618, -270, 1026, -4332, -643, 3526, -1147, 55, 63, 33, 82, 81, 70, 312, 88
72213383, 481, -9061, -13154, -3618, -270, 1026, -4332, -643, 3526, -1147, 55, 63, 33, 82, 81, 70, 312, 88
72214209, 481, -9061, -13154, -3618, -270, 1026, -4332, -643, 3526, -1147, 55, 63, 33, 82, 81, 70, 312, 88
72214999, 481, -9061, -13154, -3618, -270, 1026, -4332, -643, 3526, -1147, 55, 63, 33, 82, 81, 70, 312, 88
72219985, 481, -9061, -13154, -3618, -270, 1026, -4332, -643, 3526, -1147, 55, 63, 33, 82, 81, 70, 312, 88
72220832, 481, -9061, -13154, -3618, -270, 1026, -4332, -643, 3526, -1147, 55, 63, 33, 82, 81, 70, 312, 88
72221619, 481, -9061, -13154, -3618, -270, 1026, -4332, -643, 3526, -1147, 55, 63, 33, 82, 81, 70, 312, 88
72222435, 481, -9061, -13154, -3618, -270, 1026, -4332, -643, 3526, -1147, 55, 63, 33, 82, 81, 70, 312, 88
72227489, 481, -9061, -13154, -3618, -270, 1026, -4332, -643, 3526, -1147, 55, 63, 33, 82, 81, 70, 312, 88
72228466, 865, -8756, -13194, -4118, -418, 1241, -4577, -1025, 3914, -1027, 55, 63, 33, 82, 81, 70, 312, 88
72229259, 865, -8756, -13194, -4118, -418, 1241, -4577, -1025, 3914, -1027, 102, 114, 51, 88, 86, 69, 280, 85
72230075, 865, -8756, -13194, -4118, -418, 1241, -4577, -1025, 3914, -1027, 102, 114, 51, 88, 86, 69, 280, 85
72235092, 865, -8756, -13194, -4118, -418, 1241, -4577, -1025, 3914, -1027, 102, 114, 51, 88, 86, 69, 280, 85
72235891, 865, -8756, -13194, -4118, -418, 1241, -4577, -1025, 3914, -1027, 102, 114, 51, 88, 86, 69, 280, 85
72236717, 865, -8756, -13194, -4118, -418, 1241, -4577, -1025, 3914, -1027, 102, 114, 51, 88, 86, 69, 280, 85
72237485, 865, -8756, -13194, -4118, -418, 1241, -4577, -1025, 3914, -1027, 102, 114, 51, 88, 86, 69, 280, 85
72242452, 865, -8756, -13194, -4118, -418, 1241, -4577, -1025, 3914, -1027, 102, 114, 51, 88, 86, 69, 280, 85
72243367, 865, -8756, -13194, -4118, -418, 1241, -4577, -1025, 3914, -1027, 102, 114, 51, 88, 86, 69, 280, 85
72244048, 865, -8756, -13194, -4118, -418, 1241, -4577, -1025, 3914, -1027, 102, 114, 51, 88, 86, 69, 280, 85
72244923, 865, -8756, -13194, -4118, -418, 1241, -4577, -1025, 3914, -1027, 102, 114, 51, 88, 86, 69, 280, 85
72249975, 865, -8756, -13194, -4118, -418, 1241, -4577, -1025, 3914, -1027, 102, 114, 51, 88, 86, 69, 280, 85
72250914, 1264, -8456, -13149, -4741, -641, 1662, -4649, -1589, 4102, -842, 102, 114, 51, 88, 86, 69, 280, 85
72251714, 1264, -8456, -13149, -4741, -641, 1662, -4649, -1589, 4102, -842, 117, 131, 61, 90, 88, 59, 225, 90
72252528, 1264, -8456, -13149, -4741, -641, 1662, -4649, -1589, 4102, -842, 117, 131, 61, 90, 88, 59, 225, 90
72265078, 1264, -8456, -13149, -4741, -641, 1662, -4649, -1589, 4102, -842, 117, 131, 61, 90, 88, 59, 225, 90
72265855, 1264, -8456, -13149, -4741, -641, 1662, -4649, -1589, 4102, -842, 117, 131, 61, 90, 88, 59, 225, 90
72266660, 1264, -8456, -13149, -4741, -641, 1662, -4649, -1589, 4102, -842, 117, 131, 61, 90, 88, 59, 225, 90
72267505, 1264, -8456, -13149, -4741, -641, 1662, -4649, -1589, 4102, -842, 117, 131, 61, 90, 88, 59, 225, 90
72272426, 1264, -8456, -13149, -4741, -641, 1662, -4649, -1589, 4102, -842, 117, 131, 61, 90, 88, 59, 225, 90
72273255, 1264, -8456, -13149, -4741, -641, 1662, -4649, -1589, 4102, -842, 117, 131, 61, 90, 88, 59, 225, 90
72274087, 1264, -8456, -13149, -4741, -641, 1662, -4649, -1589, 4102, -842, 117, 131, 61, 90, 88, 59, 225, 90
72274917, 1264, -8456, -13149, -4741, -641, 1662, -4649, -1589, 4102, -842, 117, 131, 61, 90, 88, 59, 225, 90
72280087, 1264, -8456, -13149, -4741, -641, 1662, -4649, -1589, 4102, -842, 124, 153, 70, 92, 88, 56, 123, 95
72280868, 1264, -8456, -13149, -4741, -641, 1662, -4649, -1589, 4102, -842, 124, 153, 70, 92, 88, 56, 123, 95
72281668, 1264, -8456, -13149, -4741, -641, 1662, -4649, -1589, 4102, -842, 124, 153, 70, 92, 88, 56, 123, 95
72282477, 1264, -8456, -13149, -4741, -641, 1662, -4649, -1589, 4102, -842, 124, 153, 70, 92, 88, 56, 123, 95
72287457, 1264, -8456, -13149, -4741, -641, 1662, -4649, -1589, 4102, -842, 124, 153, 70, 92, 88, 56, 123, 95
72288337, 1264, -8456, -13149, -4741, -641, 1662, -4649, -1589, 4102, -842, 124, 153, 70, 92, 88, 56, 123, 95
72289021, 1264, -8456, -13149, -4741, -641, 1662, -4649, -1589, 4102, -842, 124, 153, 70, 92, 88, 56, 123, 95
72289885, 1264, -8456, -13149, -4741, -641, 1662, -4649, -1589, 4102, -842, 124, 153, 70, 92, 88, 56, 123, 95
72294992, 1264, -8456, -13149, -4741, -641, 1662, -4649, -1589, 4102, -842, 124, 153, 70, 92, 88, 56, 123, 95
72295924, 1951, -7961, -12741, -6240, -1456, 2172, -4764, -2872, 4193, -27, 124, 153, 70, 92, 88, 56, 123, 95
72296709, 1951, -7961, -12741, -6240, -1456, 2172, -4764, -2872, 4193, -27, 148, 182, 86, 78, 60, 54, 115, 111
72297526, 1951, -7961, -12741, -6240, -1456, 2172, -4764, -2872, 4193, -27, 148, 182, 86, 78, 60, 54, 115, 111
72302520, 1951, -7961, -12741, -6240, -1456, 2172, -4764, -2872, 4193, -27, 148, 182, 86, 78, 60, 54, 115, 111
72303330, 1951, -7961, -12741, -6240, -1456, 2172, -4764, -2872, 4193, -27, 148, 182, 86, 78, 60, 54, 115, 111
72304150, 1951, -7961, -12741, -6240, -1456, 2172, -4764, -2872, 4193, -27, 148, 182, 86, 78, 60, 54, 115, 111
72304972, 1951, -7961, -12741, -6240, -1456, 2172, -4764, -2872, 4193, -27, 148, 182, 86, 78, 60, 54, 115, 111
72310013, 1951, -7961, -12741, -6240, -1456, 2172, -4764, -2872, 4193, -27, 148, 182, 86, 78, 60, 54, 115, 111
72310804, 1951, -7961, -12741, -6240, -1456, 2172, -4764, -2872, 4193, -27, 148, 182, 86, 78, 60, 54, 115, 111
72311652, 1951, -7961, -12741, -6240, -1456, 2172, -4764, -2872, 4193, -27, 148, 182, 86, 78, 60, 54, 115, 111
72312547, 1951, -7961, -12741, -6240, -1456, 2172, -4764, -2872, 4193, -27, 148, 182, 86, 78, 60, 54, 115, 111
72317529, 1951, -7961, -12741, -6240, -1456, 2172, -4764, -2872, 4193, -27, 148, 182, 86, 78, 60, 54, 115, 111
72318448, 2306, -7874, -12315, -7035, -1482, 2015, -4612, -3348, 4184, 1004, 148, 182, 86, 78, 60, 54, 115, 111
72319287, 2306, -7874, -12315, -7035, -1482, 2015, -4612, -3348, 4184, 1004, 170, 213, 120, 65, 52, 58, 106, 134
72320060, 2306, -7874, -12315, -7035, -1482, 2015, -4612, -3348, 4184, 1004, 170, 213, 120, 65, 52, 58, 106, 134
72325081, 2306, -7874, -12315, -7035, -1482, 2015, -4612, -3348, 4184, 1004, 170, 213, 120, 65, 52, 58, 106, 134
72325894, 2306, -7874, -12315, -7035, -1482, 2015, -4612, -3348, 4184, 1004, 170, 213, 120, 65, 52, 58, 106, 134
72326712, 2306, -7874, -12315, -7035, -1482, 2015, -4612, -3348, 4184, 1004, 170, 213, 120, 65, 52, 58, 106, 134
72327523, 2306, -7874, -12315, -7035, -1482, 2015, -4612, -3348, 4184, 1004, 170, 213, 120, 65, 52, 58, 106, 134
72332503, 2306, -7874, -12315, -7035, -1482, 2015, -4612, -3348, 4184, 1004, 170, 213, 120, 65, 52, 58, 106, 134
72333340, 2306, -7874, -12315, -7035, -1482, 2015, -4612, -3348, 4184, 1004, 170, 213, 120, 65, 52, 58, 106, 134
72334067, 2306, -7874, -12315, -7035, -1482, 2015, -4612, -3348, 4184, 1004, 170, 213, 120, 65, 52, 58, 106, 134
72334934, 2306, -7874, -12315, -7035, -1482, 2015, -4612, -3348, 4184, 1004, 170, 213, 120, 65, 52, 58, 106, 134
72339994, 2306, -7874, -12315, -7035, -1482, 2015, -4612, -3348, 4184, 1004, 170, 213, 120, 65, 52, 58, 106, 134
72340945, 2776, -7966, -11683, -7799, -1292, 1611, -4219, -3549, 4316, 2621, 170, 213, 120, 65, 52, 58, 106, 134
72341741, 2776, -7966, -11683, -7799, -1292, 1611, -4219, -3549, 4316, 2621, 183, 232, 146, 68, 47, 63, 95, 144
72342554, 2776, -7966, -11683, -7799, -1292, 1611, -4219, -3549, 4316, 2621, 183, 232, 146, 68, 47, 63, 95, 144
72347553, 2776, -7966, -11683, -7799, -1292, 1611, -4219, -3549, 4316, 2621, 183, 232, 146, 68, 47, 63, 95, 144
72348372, 2776, -7966, -11683, -7799, -1292, 1611, -4219, -3549, 4316, 2621, 183, 232, 146, 68, 47, 63, 95, 144
72349223, 2776, -7966, -11683, -7799, -1292, 1611, -4219, -3549, 4316, 2621, 183, 232, 146, 68, 47, 63, 95, 144
72350012, 2776, -7966, -11683, -7799, -1292, 1611, -4219, -3549, 4316, 2621, 183, 232, 146, 68, 47, 63, 95, 144
72354972, 2776, -7966, -11683, -7799, -1292, 1611, -4219, -3549, 4316, 2621, 183, 232, 146, 68, 47, 63, 95, 144
72355749, 2776, -7966, -11683, -7799, -1292, 1611, -4219, -3549, 4316, 2621, 183, 232, 146, 68, 47, 63, 95, 144
72356608, 2776, -7966, -11683, -7799, -1292, 1611, -4219, -3549, 4316, 2621, 183, 232, 146, 68, 47, 63, 95, 144
72357401, 2776, -7966, -11683, -7799, -1292, 1611, -4219, -3549, 4316, 2621, 183, 232, 146, 68, 47, 63, 95, 144
72362492, 2776, -7966, -11683, -7799, -1292, 1611, -4219, -3549, 4316, 2621, 183, 232, 146, 68, 47, 63, 95, 144
72363415, 3475, -8257, -10876, -8361, -856, 1185, -3905, -2772, 4320, 4699, 183, 232, 146, 68, 47, 63, 95, 144
72364233, 3475, -8257, -10876, -8361, -856, 1185, -3905, -2772, 4320, 4699, 221, 311, 166, 75, 47, 69, 90, 157
72365047, 3475, -8257, -10876, -8361, -856, 1185, -3905, -2772, 4320, 4699, 183, 232, 146, 68, 47, 63, 95, 144
72370065, 3475, -8257, -10876, -8361, -856, 1185, -3905, -2772, 4320, 4699, 221, 311, 166, 75, 47, 69, 90, 157
72370865, 3475, -8257, -10876, -8361, -856, 1185, -3905, -2772, 4320, 4699, 221, 311, 166, 75, 47, 69, 90, 157
72371687, 3475, -8257, -10876, -8361, -856, 1185, -3905, -2772, 4320, 4699, 221, 311, 166, 75, 47, 69, 90, 157
72372497, 3475, -8257, -10876, -8361, -856, 1185, -3905, -2772, 4320, 4699, 221, 311, 166, 75, 47, 69, 90, 157
72377492, 3475, -8257, -10876, -8361, -856, 1185, -3905, -2772, 4320, 4699, 221, 311, 166, 75, 47, 69, 90, 157
72378365, 3475, -8257, -10876, -8361, -856, 1185, -3905, -2772, 4320, 4699, 221, 311, 166, 75, 47, 69, 90, 157
72379103, 3475, -8257, -10876, -8361, -856, 1185, -3905, -2772, 4320, 4699, 221, 311, 166, 75, 47, 69, 90, 157
72379970, 3475, -8257, -10876, -8361, -856, 1185, -3905, -2772, 4320, 4699, 221, 311, 166, 75, 47, 69, 90, 157
72384999, 3475, -8257, -10876, -8361, -856, 1185, -3905, -2772, 4320, 4699, 221, 311, 166, 75, 47, 69, 90, 157
72385963, 4405, -8866, -9953, -8449, -187, 1104, -2733, -1169, 3401, 7580, 221, 311, 166, 75, 47, 69, 90, 157
72386740, 4405, -8866, -9953, -8449, -187, 1104, -2733, -1169, 3401, 7580, 422, 546, 433, 179, 92, 108, 127, 223
72387594, 4405, -8866, -9953, -8449, -187, 1104, -2733, -1169, 3401, 7580, 422, 546, 433, 179, 92, 108, 127, 223
72392560, 4405, -8866, -9953, -8449, -187, 1104, -2733, -1169, 3401, 7580, 422, 546, 433, 179, 92, 108, 127, 223
72393372, 4405, -8866, -9953, -8449, -187, 1104, -2733, -1169, 3401, 7580, 422, 546, 433, 179, 92, 108, 127, 223
72394220, 4405, -8866, -9953, -8449, -187, 1104, -2733, -1169, 3401, 7580, 422, 546, 433, 179, 92, 108, 127, 223
72394982, 4405, -8866, -9953, -8449, -187, 1104, -2733, -1169, 3401, 7580, 422, 546, 433, 179, 92, 108, 127, 223
72399958, 4405, -8866, -9953, -8449, -187, 1104, -2733, -1169, 3401, 7580, 422, 546, 433, 179, 92, 108, 127, 223
72400782, 4405, -8866, -9953, -8449, -187, 1104, -2733, -1169, 3401, 7580, 422, 546, 433, 179, 92, 108, 127, 223
72401607, 4405, -8866, -9953, -8449, -187, 1104, -2733, -1169, 3401, 7580, 422, 546, 433, 179, 92, 108, 127, 223
72402398, 4405, -8866, -9953, -8449, -187, 1104, -2733, -1169, 3401, 7580, 422, 546, 433, 179, 92, 108, 127, 223
72407605, 5590, -9811, -8834, -7932, -123, -469, -2347, 607, 1724, 10824, 422, 546, 433, 179, 92, 108, 127, 223
72408377, 5590, -9811, -8834, -7932, -123, -469, -2347, 607, 1724, 10824, 673, 690, 564, 218, 111, 123, 187, 384
72409206, 5590, -9811, -8834, -7932, -123, -469, -2347, 607, 1724, 10824, 673, 690, 564, 218, 111, 123, 187, 384
72409992, 5590, -9811, -8834, -7932, -123, -469, -2347, 607, 1724, 10824, 673, 690, 564, 218, 111, 123, 187, 384
72414975, 5590, -9811, -8834, -7932, -123, -469, -2347, 607, 1724, 10824, 673, 690, 564, 218, 111, 123, 187, 384
72415795, 5590, -9811, -8834, -7932, -123, -469, -2347, 607, 1724, 10824, 673, 690, 564, 218, 111, 123, 187, 384
72416597, 5590, -9811, -8834, -7932, -123, -469, -2347, 607, 1724, 10824, 673, 690, 564, 218, 111, 123, 187, 384
72417416, 5590, -9811, -8834, -7932, -123, -469, -2347, 607, 1724, 10824, 673, 690, 564, 218, 111, 123, 187, 384
72422515, 5590, -9811, -8834, -7932, -123, -469, -2347, 607, 1724, 10824, 673, 690, 564, 218, 111, 123, 187, 384
72423448, 7020, -10664, -7674, -6823, 1679, 410, -2264, 3438, 739, 12673, 673, 690, 564, 218, 111, 123, 187, 384
72424257, 7020, -10664, -7674, -6823, 1679, 410, -2264, 3438, 739, 12673, 851, 868, 652, 233, 121, 127, 201, 463
72425062, 7020, -10664, -7674, -6823, 1679, 410, -2264, 3438, 739, 12673, 851, 868, 652, 233, 121, 127, 201, 463
72430101, 7020, -10664, -7674, -6823, 1679, 410, -2264, 3438, 739, 12673, 851, 868, 652, 233, 121, 127, 201, 463
72430906, 7020, -10664, -7674, -6823, 1679, 410, -2264, 3438, 739, 12673, 851, 868, 652, 233, 121, 127, 201, 463
72431697, 7020, -10664, -7674, -6823, 1679, 410, -2264, 3438, 739, 12673, 851, 868, 652, 233, 121, 127, 201, 463
72432542, 7020, -10664, -7674, -6823, 1679, 410, -2264, 3438, 739, 12673, 851, 868, 652, 233, 121, 127, 201, 463
72437465, 7020, -10664, -7674, -6823, 1679, 410, -2264, 3438, 739, 12673, 851, 868, 652, 233, 121, 127, 201, 463
72438353, 7020, -10664, -7674, -6823, 1679, 410, -2264, 3438, 739, 12673, 851, 868, 652, 233, 121, 127, 201, 463
72439036, 7020, -10664, -7674, -6823, 1679, 410, -2264, 3438, 739, 12673, 851, 868, 652, 233, 121, 127, 201, 463
72439895, 7020, -10664, -7674, -6823, 1679, 410, -2264, 3438, 739, 12673, 851, 868, 652, 233, 121, 127, 201, 463
72445013, 7020, -10664, -7674, -6823, 1679, 410, -2264, 3438, 739, 12673, 851, 868, 652, 233, 121, 127, 201, 463
72445918, 7986, -11464, -6503, -5564, 1900, 317, -2793, 2325, -855, 11883, 851, 868, 652, 233, 121, 127, 201, 463
72446735, 7986, -11464, -6503, -5564, 1900, 317, -2793, 2325, -855, 11883, 914, 978, 672, 244, 143, 144, 239, 592
72447529, 7986, -11464, -6503, -5564, 1900, 317, -2793, 2325, -855, 11883, 914, 978, 672, 244, 143, 144, 239, 592
72452566, 7986, -11464, -6503, -5564, 1900, 317, -2793, 2325, -855, 11883, 914, 978, 672, 244, 143, 144, 239, 592
72453372, 7986, -11464, -6503, -5564, 1900, 317, -2793, 2325, -855, 11883, 914, 978, 672, 244, 143, 144, 239, 592
72454183, 7986, -11464, -6503, -5564, 1900, 317, -2793, 2325, -855, 11883, 914, 978, 672, 244, 143, 144, 239, 592
72455039, 7986, -11464, -6503, -5564, 1900, 317, -2793, 2325, -855, 11883, 914, 978, 672, 244, 143, 144, 239, 592
72459953, 7986, -11464, -6503, -5564, 1900, 317, -2793, 2325, -855, 11883, 914, 978, 672, 244, 143, 144, 239, 592
72460766, 7986, -11464, -6503, -5564, 1900, 317, -2793, 2325, -855, 11883, 914, 978, 672, 244, 143, 144, 239, 592
72461554, 7986, -11464, -6503, -5564, 1900, 317, -2793, 2325, -855, 11883, 914, 978, 672, 244, 143, 144, 239, 592
72462402, 7986, -11464, -6503, -5564, 1900, 317, -2793, 2325, -855, 11883, 914, 978, 672, 244, 143, 144, 239, 592
72467439, 7986, -11464, -6503, -5564, 1900, 317, -2793, 2325, -855, 11883, 914, 978, 672, 244, 143, 144, 239, 592
72468372, 8300, -12087, -5740, -4530, 1161, -1389, -6689, 375, -2460, 7819, 914, 978, 672, 244, 143, 144, 239, 592
72469236, 8300, -12087, -5740, -4530, 1161, -1389, -6689, 375, -2460, 7819, 981, 1035, 682, 279, 178, 151, 237, 614
72470047, 8300, -12087, -5740, -4530, 1161, -1389, -6689, 375, -2460, 7819, 981, 1035, 682, 279, 178, 151, 237, 614
72475108, 8300, -12087, -5740, -4530, 1161, -1389, -6689, 375, -2460, 7819, 981, 1035, 682, 279, 178, 151, 237, 614
72475993, 8300, -12087, -5740, -4530, 1161, -1389, -6689, 375, -2460, 7819, 981, 1035, 682, 279, 178, 151, 237, 614
72476714, 8300, -12087, -5740, -4530, 1161, -1389, -6689, 375, -2460, 7819, 981, 1035, 682, 279, 178, 151, 237, 614
72477571, 8300, -12087, -5740, -4530, 1161, -1389, -6689, 375, -2460, 7819, 981, 1035, 682, 279, 178, 151, 237, 614
72482476, 8300, -12087, -5740, -4530, 1161, -1389, -6689, 375, -2460, 7819, 981, 1035, 682, 279, 178, 151, 237, 614
72483382, 8300, -12087, -5740, -4530, 1161, -1389, -6689, 375, -2460, 7819, 981, 1035, 682, 279, 178, 151, 237, 614
72484120, 8300, -12087, -5740, -4530, 1161, -1389, -6689, 375, -2460, 7819, 981, 1035, 682, 279, 178, 151, 237, 614
72484932, 8300, -12087, -5740, -4530, 1161, -1389, -6689, 375, -2460, 7819, 981, 1035, 682, 279, 178, 151, 237, 614
72489972, 8300, -12087, -5740, -4530, 1161, -1389, -6689, 375, -2460, 7819, 981, 1035, 682, 279, 178, 151, 237, 614
72490953, 8273, -12750, -4756, -3851, 1990, 3294, -2354, -2185, -1093, 7269, 981, 1035, 682, 279, 178, 151, 237, 614
72491760, 8273, -12750, -4756, -3851, 1990, 3294, -2354, -2185, -1093, 7269, 956, 1014, 562, 386, 261, 137, 227, 604
72492582, 8273, -12750, -4756, -3851, 1990, 3294, -2354, -2185, -1093, 7269, 956, 1014, 562, 386, 261, 137, 227, 604
72497559, 8273, -12750, -4756, -3851, 1990, 3294, -2354, -2185, -1093, 7269, 956, 1014, 562, 386, 261, 137, 227, 604
72498414, 8273, -12750, -4756, -3851, 1990, 3294, -2354, -2185, -1093, 7269, 956, 1014, 562, 386, 261, 137, 227, 604
72499181, 8273, -12750, -4756, -3851, 1990, 3294, -2354, -2185, -1093, 7269, 956, 1014, 562, 386, 261, 137, 227, 604
72500050, 8273, -12750, -4756, -3851, 1990, 3294, -2354, -2185, -1093, 7269, 956, 1014, 562, 386, 261, 137, 227, 604
72504947, 8273, -12750, -4756, -3851, 1990, 3294, -2354, -2185, -1093, 7269, 956, 1014, 562, 386, 261, 137, 227, 604
72505790, 8273, -12750, -4756, -3851, 1990, 3294, -2354, -2185, -1093, 7269, 956, 1014, 562, 386, 261, 137, 227, 604
72506580, 8273, -12750, -4756, -3851, 1990, 3294, -2354, -2185, -1093, 7269, 956, 1014, 562, 386, 261, 137, 227, 604
72507451, 8273, -12750, -4756, -3851, 1990, 3294, -2354, -2185, -1093, 7269, 956, 1014, 562, 386, 261, 137, 227, 604
72512459, 8273, -12750, -4756, -3851, 1990, 3294, -2354, -2185, -1093, 7269, 956, 1014, 562, 386, 261, 137, 227, 604
72513428, 8508, -13429, -2993, -2597, -2536, 13, -1802, -1190, -1005, 12752, 956, 1014, 562, 386, 261, 137, 227, 604
72514246, 8508, -13429, -2993, -2597, -2536, 13, -1802, -1190, -1005, 12752, 959, 989, 479, 403, 283, 134, 255, 528
72515004, 8508, -13429, -2993, -2597, -2536, 13, -1802, -1190, -1005, 12752, 959, 989, 479, 403, 283, 134, 255, 528
72520036, 8508, -13429, -2993, -2597, -2536, 13, -1802, -1190, -1005, 12752, 959, 989, 479, 403, 283, 134, 255, 528
72520869, 8508, -13429, -2993, -2597, -2536, 13, -1802, -1190, -1005, 12752, 959, 989, 479, 403, 283, 134, 255, 528
72521658, 8508, -13429, -2993, -2597, -2536, 13, -1802, -1190, -1005, 12752, 959, 989, 479, 403, 283, 134, 255, 528
72522492, 8508, -13429, -2993, -2597, -2536, 13, -1802, -1190, -1005, 12752, 959, 989, 479, 403, 283, 134, 255, 528
72527435, 8508, -13429, -2993, -2597, -2536, 13, -1802, -1190, -1005, 12752, 959, 989, 479, 403, 283, 134, 255, 528
72528271, 8508, -13429, -2993, -2597, -2536, 13, -1802, -1190, -1005, 12752, 959, 989, 479, 403, 283, 134, 255, 528
72529051, 8508, -13429, -2993, -2597, -2536, 13, -1802, -1190, -1005, 12752, 959, 989, 479, 403, 283, 134, 255, 528
72529867, 8508, -13429, -2993, -2597, -2536, 13, -1802, -1190, -1005, 12752, 959, 989, 479, 403, 283, 134, 255, 528
72534997, 8508, -13429, -2993, -2597, -2536, 13, -1802, -1190, -1005, 12752, 959, 989, 479, 403, 283, 134, 255, 528
72535961, 10281, -12501, -2086, -1455, -1457, 241, -3325, 11321, 36, 8198, 959, 989, 479, 403, 283, 134, 255, 528
72536761, 10281, -12501, -2086, -1455, -1457, 241, -3325, 11321, 36, 8198, 954, 878, 387, 410, 288, 130, 301, 490
72537581, 10281, -12501, -2086, -1455, -1457, 241, -3325, 11321, 36, 8198, 954, 878, 387, 410, 288, 130, 301, 490
72542580, 10281, -12501, -2086, -1455, -1457, 241, -3325, 11321, 36, 8198, 954, 878, 387, 410, 288, 130, 301, 490
72543396, 10281, -12501, -2086, -1455, -1457, 241, -3325, 11321, 36, 8198, 954, 878, 387, 410, 288, 130, 301, 490
72544199, 10281, -12501, -2086, -1455, -1457, 241, -3325, 11321, 36, 8198, 954, 878, 387, 410, 288, 130, 301, 490
72545046, 10281, -12501, -2086, -1455, -1457, 241, -3325, 11321, 36, 8198, 954, 878, 387, 410, 288, 130, 301, 490
72550000, 10281, -12501, -2086, -1455, -1457, 241, -3325, 11321, 36, 8198, 954, 878, 387, 410, 288, 130, 301, 490
72550791, 10281, -12501, -2086, -1455, -1457, 241, -3325, 11321, 36, 8198, 954, 878, 387, 410, 288, 130, 301, 490
72551633, 10281, -12501, -2086, -1455, -1457, 241, -3325, 11321, 36, 8198, 954, 878, 387, 410, 288, 130, 301, 490
72552446, 10281, -12501, -2086, -1455, -1457, 241, -3325, 11321, 36, 8198, 954, 878, 387, 410, 288, 130, 301, 490
72557493, 10281, -12501, -2086, -1455, -1457, 241, -3325, 11321, 36, 8198, 954, 878, 387, 410, 288, 130, 301, 490
72558468, 11623, -11402, -1650, -778, 2774, 3001, -3309, 9919, 143, 4148, 954, 878, 387, 410, 288, 130, 301, 490
72559236, 11623, -11402, -1650, -778, 2774, 3001, -3309, 9919, 143, 4148, 949, 787, 374, 435, 290, 109, 283, 341
72560026, 11623, -11402, -1650, -778, 2774, 3001, -3309, 9919, 143, 4148, 949, 787, 374, 435, 290, 109, 283, 341
72565026, 11623, -11402, -1650, -778, 2774, 3001, -3309, 9919, 143, 4148, 949, 787, 374, 435, 290, 109, 283, 341
72565843, 11623, -11402, -1650, -778, 2774, 3001, -3309, 9919, 143, 4148, 949, 787, 374, 435, 290, 109, 283, 341
72566659, 11623, -11402, -1650, -778, 2774, 3001, -3309, 9919, 143, 4148, 949, 787, 374, 435, 290, 109, 283, 341
72567492, 11623, -11402, -1650, -778, 2774, 3001, -3309, 9919, 143, 4148, 949, 787, 374, 435, 290, 109, 283, 341
72572449, 11623, -11402, -1650, -778, 2774, 3001, -3309, 9919, 143, 4148, 949, 787, 374, 435, 290, 109, 283, 341
72573264, 11623, -11402, -1650, -778, 2774, 3001, -3309, 9919, 143, 4148, 949, 787, 374, 435, 290, 109, 283, 341
72574090, 11623, -11402, -1650, -778, 2774, 3001, -3309, 9919, 143, 4148, 949, 787, 374, 435, 290, 109, 283, 341
72574895, 11623, -11402, -1650, -778, 2774, 3001, -3309, 9919, 143, 4148, 949, 787, 374, 435, 290, 109, 283, 341
72579778, 11623, -11402, -1650, -778, 2774, 3001, -3309, 9919, 143, 4148, 949, 787, 374, 435, 290, 109, 283, 341
72580736, 12022, -11002, -1488, -803, 2225, 4504, -2096, 3084, 1069, 414, 949, 787, 374, 435, 290, 109, 283, 341
72581549, 12022, -11002, -1488, -803, 2225, 4504, -2096, 3084, 1069, 414, 924, 736, 356, 442, 282, 104, 284, 306
72582341, 12022, -11002, -1488, -803, 2225, 4504, -2096, 3084, 1069, 414, 924, 736, 356, 442, 282, 104, 284, 306
72587557, 12022, -11002, -1488, -803, 2225, 4504, -2096, 3084, 1069, 414, 924, 736, 356, 442, 282, 104, 284, 306
72588341, 12022, -11002, -1488, -803, 2225, 4504, -2096, 3084, 1069, 414, 924, 736, 356, 442, 282, 104, 284, 306
72589197, 12022, -11002, -1488, -803, 2225, 4504, -2096, 3084, 1069, 414, 924, 736, 356, 442, 282, 104, 284, 306
72589973, 12022, -11002, -1488, -803, 2225, 4504, -2096, 3084, 1069, 414, 924, 736, 356, 442, 282, 104, 284, 306
72594962, 12022, -11002, -1488, -803, 2225, 4504, -2096, 3084, 1069, 414, 924, 736, 356, 442, 282, 104, 284, 306
72595723, 12022, -11002, -1488, -803, 2225, 4504, -2096, 3084, 1069, 414, 924, 736, 356, 442, 282, 104, 284, 306
72596595, 12022, -11002, -1488, -803, 2225, 4504, -2096, 3084, 1069, 414, 924, 736, 356, 442, 282, 104, 284, 306
72597372, 12022, -11002, -1488, -803, 2225, 4504, -2096, 3084, 1069, 414, 924, 736, 356, 442, 282, 104, 284, 306
72602514, 12022, -11002, -1488, -803, 2225, 4504, -2096, 3084, 1069, 414, 924, 736, 356, 442, 282, 104, 284, 306
72603478, 11432, -11628, -1288, -940, 1503, 2501, -2502, -4921, 869, 343, 924, 736, 356, 442, 282, 104, 284, 306
72604275, 11432, -11628, -1288, -940, 1503, 2501, -2502, -4921, 869, 343, 930, 652, 344, 371, 198, 90, 279, 299
72605073, 11432, -11628, -1288, -940, 1503, 2501, -2502, -4921, 869, 343, 930, 652, 344, 371, 198, 90, 279, 299
72610063, 11432, -11628, -1288, -940, 1503, 2501, -2502, -4921, 869, 343, 930, 652, 344, 371, 198, 90, 279, 299
72610868, 11432, -11628, -1288, -940, 1503, 2501, -2502, -4921, 869, 343, 930, 652, 344, 371, 198, 90, 279, 299
72611726, 11432, -11628, -1288, -940, 1503, 2501, -2502, -4921, 869, 343, 930, 652, 344, 371, 198, 90, 279, 299
72612513, 11432, -11628, -1288, -940, 1503, 2501, -2502, -4921, 869, 343, 930, 652, 344, 371, 198, 90, 279, 299
72617476, 11432, -11628, -1288, -940, 1503, 2501, -2502, -4921, 869, 343, 930, 652, 344, 371, 198, 90, 279, 299
72618259, 11432, -11628, -1288, -940, 1503, 2501, -2502, -4921, 869, 343, 930, 652, 344, 371, 198, 90, 279, 299
72619119, 11432, -11628, -1288, -940, 1503, 2501, -2502, -4921, 869, 343, 930, 652, 344, 371, 198, 90, 279, 299
72619927, 11432, -11628, -1288, -940, 1503, 2501, -2502, -4921, 869, 343, 930, 652, 344, 371, 198, 90, 279, 299
72624984, 11432, -11628, -1288, -940, 1503, 2501, -2502, -4921, 869, 343, 930, 652, 344, 371, 198, 90, 279, 299
72625910, 10331, -12612, -1131, -1169, 1594, -787, -2961, -8398, 724, -189, 930, 652, 344, 371, 198, 90, 279, 299
72626742, 10331, -12612, -1131, -1169, 1594, -787, -2961, -8398, 724, -189, 794, 593, 275, 336, 154, 75, 216, 285
72627527, 10331, -12612, -1131, -1169, 1594, -787, -2961, -8398, 724, -189, 794, 593, 275, 336, 154, 75, 216, 285
72632569, 10331, -12612, -1131, -1169, 1594, -787, -2961, -8398, 724, -189, 794, 593, 275, 336, 154, 75, 216, 285
72633393, 10331, -12612, -1131, -1169, 1594, -787, -2961, -8398, 724, -189, 794, 593, 275, 336, 154, 75, 216, 285
72634192, 10331, -12612, -1131, -1169, 1594, -787, -2961, -8398, 724, -189, 794, 593, 275, 336, 154, 75, 216, 285
72635020, 10331, -12612, -1131, -1169, 1594, -787, -2961, -8398, 724, -189, 794, 593, 275, 336, 154, 75, 216, 285
72639950, 10331, -12612, -1131, -1169, 1594, -787, -2961, -8398, 724, -189, 794, 593, 275, 336, 154, 75, 216, 285
72640740, 10331, -12612, -1131, -1169, 1594, -787, -2961, -8398, 724, -189, 794, 593, 275, 336, 154, 75, 216, 285
72641576, 10331, -12612, -1131, -1169, 1594, -787, -2961, -8398, 724, -189, 794, 593, 275, 336, 154, 75, 216, 285
72642371, 10331, -12612, -1131, -1169, 1594, -787, -2961, -8398, 724, -189, 794, 593, 275, 336, 154, 75, 216, 285
72647475, 10331, -12612, -1131, -1169, 1594, -787, -2961, -8398, 724, -189, 794, 593, 275, 336, 154, 75, 216, 285
72648396, 9217, -13420, -1079, -1490, 1776, -2203, -3366, -7822, 815, -1046, 794, 593, 275, 336, 154, 75, 216, 285
72649234, 9217, -13420, -1079, -1490, 1776, -2203, -3366, -7822, 815, -1046, 642, 590, 206, 343, 158, 71, 123, 225
72650025, 9217, -13420, -1079, -1490, 1776, -2203, -3366, -7822, 815, -1046, 642, 590, 206, 343, 158, 71, 123, 225
72655051, 9217, -13420, -1079, -1490, 1776, -2203, -3366, -7822, 815, -1046, 642, 590, 206, 343, 158, 71, 123, 225
72655826, 9217, -13420, -1079, -1490, 1776, -2203, -3366, -7822, 815, -1046, 642, 590, 206, 343, 158, 71, 123, 225
72656698, 9217, -13420, -1079, -1490, 1776, -2203, -3366, -7822, 815, -1046, 642, 590, 206, 343, 158, 71, 123, 225
72657476, 9217, -13420, -1079, -1490, 1776, -2203, -3366, -7822, 815, -1046, 642, 590, 206, 343, 158, 71, 123, 225
72660233, 9217, -13420, -1079, -1490, 1776, -2203, -3366, -7822, 815, -1046, 642, 590, 206, 343, 158, 71, 123, 225
72669973, 9217, -13420, -1079, -1490, 1776, -2203, -3366, -7822, 815, -1046, 642, 590, 206, 343, 158, 71, 123, 225
72670832, 9217, -13420, -1079, -1490, 1776, -2203, -3366, -7822, 815, -1046, 642, 590, 206, 343, 158, 71, 123, 225
72671670, 9217, -13420, -1079, -1490, 1776, -2203, -3366, -7822, 815, -1046, 642, 590, 206, 343, 158, 71, 123, 225
72672429, 9217, -13420, -1079, -1490, 1776, -2203, -3366, -7822, 815, -1046, 642, 590, 206, 343, 158, 71, 123, 225
72677625, 8361, -13940, -1084, -1741, 2257, -2211, -3251, -5662, 555, -1059, 642, 590, 206, 343, 158, 71, 123, 225
72678446, 8361, -13940, -1084, -1741, 2257, -2211, -3251, -5662, 555, -1059, 569, 545, 140, 307, 145, 67, 92, 179
72679235, 8361, -13940, -1084, -1741, 2257, -2211, -3251, -5662, 555, -1059, 642, 590, 206, 343, 158, 71, 123, 225
72680089, 8361, -13940, -1084, -1741, 2257, -2211, -3251, -5662, 555, -1059, 569, 545, 140, 307, 145, 67, 92, 179
72684963, 8361, -13940, -1084, -1741, 2257, -2211, -3251, -5662, 555, -1059, 569, 545, 140, 307, 145, 67, 92, 179
72685787, 8361, -13940, -1084, -1741, 2257, -2211, -3251, -5662, 555, -1059, 569, 545, 140, 307, 145, 67, 92, 179
72686591, 8361, -13940, -1084, -1741, 2257, -2211, -3251, -5662, 555, -1059, 569, 545, 140, 307, 145, 67, 92, 179
72687382, 8361, -13940, -1084, -1741, 2257, -2211, -3251, -5662, 555, -1059, 569, 545, 140, 307, 145, 67, 92, 179
72692481, 8361, -13940, -1084, -1741, 2257, -2211, -3251, -5662, 555, -1059, 569, 545, 140, 307, 145, 67, 92, 179
72693423, 7835, -14221, -1117, -1889, 2413, -1445, -2995, -3117, 192, -574, 569, 545, 140, 307, 145, 67, 92, 179
72694247, 7835, -14221, -1117, -1889, 2413, -1445, -2995, -3117, 192, -574, 493, 481, 112, 262, 121, 47, 79, 157
72695046, 7835, -14221, -1117, -1889, 2413, -1445, -2995, -3117, 192, -574, 493, 481, 112, 262, 121, 47, 79, 157
72697828, 7835, -14221, -1117, -1889, 2413, -1445, -2995, -3117, 192, -574, 493, 481, 112, 262, 121, 47, 79, 157
72707476, 7835, -14221, -1117, -1889, 2413, -1445, -2995, -3117, 192, -574, 493, 481, 112, 262, 121, 47, 79, 157
72708341, 7835, -14221, -1117, -1889, 2413, -1445, -2995, -3117, 192, -574, 493, 481, 112, 262, 121, 47, 79, 157
72709144, 7835, -14221, -1117, -1889, 2413, -1445, -2995, -3117, 192, -574, 493, 481, 112, 262, 121, 47, 79, 157
72709942, 7835, -14221, -1117, -1889, 2413, -1445, -2995, -3117, 192, -574, 493, 481, 112, 262, 121, 47, 79, 157
72714926, 7835, -14221, -1117, -1889, 2413, -1445, -2995, -3117, 192, -574, 493, 481, 112, 262, 121, 47, 79, 157
72715701, 7835, -14221, -1117, -1889, 2413, -1445, -2995, -3117, 192, -574, 493, 481, 112, 262, 121, 47, 79, 157
72716529, 7835, -14221, -1117, -1889, 2413, -1445, -2995, -3117, 192, -574, 493, 481, 112, 262, 121, 47, 79, 157
72717346, 7835, -14221, -1117, -1889, 2413, -1445, -2995, -3117, 192, -574, 493, 481, 112, 262, 121, 47, 79, 157
72722572, 7835, -14221, -1117, -1889, 2413, -1445, -2995, -3117, 192, -574, 415, 436, 97, 176, 115, 44, 62, 122
72723342, 7835, -14221, -1117, -1889, 2413, -1445, -2995, -3117, 192, -574, 415, 436, 97, 176, 115, 44, 62, 122
72724205, 7835, -14221, -1117, -1889, 2413, -1445, -2995, -3117, 192, -574, 415, 436, 97, 176, 115, 44, 62, 122
72724986, 7835, -14221, -1117, -1889, 2413, -1445, -2995, -3117, 192, -574, 415, 436, 97, 176, 115, 44, 62, 122
72729932, 7835, -14221, -1117, -1889, 2413, -1445, -2995, -3117, 192, -574, 415, 436, 97, 176, 115, 44, 62, 122
72730752, 7835, -14221, -1117, -1889, 2413, -1445, -2995, -3117, 192, -574, 415, 436, 97, 176, 115, 44, 62, 122
72731578, 7835, -14221, -1117, -1889, 2413, -1445, -2995, -3117, 192, -574, 415, 436, 97, 176, 115, 44, 62, 122
72732372, 7835, -14221, -1117, -1889, 2413, -1445, -2995, -3117, 192, -574, 415, 436, 97, 176, 115, 44, 62, 122
72737491, 7835, -14221, -1117, -1889, 2413, -1445, -2995, -3117, 192, -574, 415, 436, 97, 176, 115, 44, 62, 122
72738396, 7151, -14511, -1528, -2100, 2419, -645, -3389, -252, -646, -600, 415, 436, 97, 176, 115, 44, 62, 122
72739221, 7151, -14511, -1528, -2100, 2419, -645, -3389, -252, -646, -600, 378, 360, 80, 162, 114, 35, 50, 86
72740010, 7151, -14511, -1528, -2100, 2419, -645, -3389, -252, -646, -600, 378, 360, 80, 162, 114, 35, 50, 86
72745027, 7151, -14511, -1528, -2100, 2419, -645, -3389, -252, -646, -600, 378, 360, 80, 162, 114, 35, 50, 86
72745819, 7151, -14511, -1528, -2100, 2419, -645, -3389, -252, -646, -600, 378, 360, 80, 162, 114, 35, 50, 86
72746642, 7151, -14511, -1528, -2100, 2419, -645, -3389, -252, -646, -600, 378, 360, 80, 162, 114, 35, 50, 86
72747462, 7151, -14511, -1528, -2100, 2419, -645, -3389, -252, -646, -600, 378, 360, 80, 162, 114, 35, 50, 86
72752517, 7151, -14511, -1528, -2100, 2419, -645, -3389, -252, -646, -600, 378, 360, 80, 162, 114, 35, 50, 86
72753341, 7151, -14511, -1528, -2100, 2419, -645, -3389, -252, -646, -600, 378, 360, 80, 162, 114, 35, 50, 86
72754145, 7151, -14511, -1528, -2100, 2419, -645, -3389, -252, -646, -600, 378, 360, 80, 162, 114, 35, 50, 86
72754934, 7151, -14511, -1528, -2100, 2419, -645, -3389, -252, -646, -600, 378, 360, 80, 162, 114, 35, 50, 86
72760014, 7151, -14511, -1528, -2100, 2419, -645, -3389, -252, -646, -600, 378, 360, 80, 162, 114, 35, 50, 86
72760926, 7007, -14543, -1825, -2123, 2265, -318, -3285, 624, -891, -740, 378, 360, 80, 162, 114, 35, 50, 86
72761751, 7007, -14543, -1825, -2123, 2265, -318, -3285, 624, -891, -740, 304, 233, 71, 95, 78, 31, 36, 70
72762565, 7007, -14543, -1825, -2123, 2265, -318, -3285, 624, -891, -740, 304, 233, 71, 95, 78, 31, 36, 70
72767553, 7007, -14543, -1825, -2123, 2265, -318, -3285, 624, -891, -740, 304, 233, 71, 95, 78, 31, 36, 70
72768372, 7007, -14543, -1825, -2123, 2265, -318, -3285, 624, -891, -740, 304, 233, 71, 95, 78, 31, 36, 70
72769221, 7007, -14543, -1825, -2123, 2265, -318, -3285, 624, -891, -740, 304, 233, 71, 95, 78, 31, 36, 70
72770000, 7007, -14543, -1825, -2123, 2265, -318, -3285, 624, -891, -740, 304, 233, 71, 95, 78, 31, 36, 70
72774947, 7007, -14543, -1825, -2123, 2265, -318, -3285, 624, -891, -740, 304, 233, 71, 95, 78, 31, 36, 70
72775779, 7007, -14543, -1825, -2123, 2265, -318, -3285, 624, -891, -740, 304, 233, 71, 95, 78, 31, 36, 70
72776579, 7007, -14543, -1825, -2123, 2265, -318, -3285, 624, -891, -740, 304, 233, 71, 95, 78, 31, 36, 70
72777440, 7007, -14543, -1825, -2123, 2265, -318, -3285, 624, -891, -740, 304, 233, 71, 95, 78, 31, 36, 70
72782475, 7007, -14543, -1825, -2123, 2265, -318, -3285, 624, -891, -740, 304, 233, 71, 95, 78, 31, 36, 70
72783417, 6905, -14550, -2172, -2084, 2176, 95, -3235, 1052, -1246, -806, 304, 233, 71, 95, 78, 31, 36, 70
72784239, 6905, -14550, -2172, -2084, 2176, 95, -3235, 1052, -1246, -806, 265, 193, 56, 67, 55, 29, 34, 64
72785054, 6905, -14550, -2172, -2084, 2176, 95, -3235, 1052, -1246, -806, 265, 193, 56, 67, 55, 29, 34, 64
72790046, 6905, -14550, -2172, -2084, 2176, 95, -3235, 1052, -1246, -806, 265, 193, 56, 67, 55, 29, 34, 64
72790867, 6905, -14550, -2172, -2084, 2176, 95, -3235, 1052, -1246, -806, 265, 193, 56, 67, 55, 29, 34, 64
72791671, 6905, -14550, -2172, -2084, 2176, 95, -3235, 1052, -1246, -806, 265, 193, 56, 67, 55, 29, 34, 64
72792517, 6905, -14550, -2172, -2084, 2176, 95, -3235, 1052, -1246, -806, 265, 193, 56, 67, 55, 29, 34, 64
72797445, 6905, -14550, -2172, -2084, 2176, 95, -3235, 1052, -1246, -806, 265, 193, 56, 67, 55, 29, 34, 64
72798256, 6905, -14550, -2172, -2084, 2176, 95, -3235, 1052, -1246, -806, 265, 193, 56, 67, 55, 29, 34, 64
72799072, 6905, -14550, -2172, -2084, 2176, 95, -3235, 1052, -1246, -806, 265, 193, 56, 67, 55, 29, 34, 64
72799890, 6905, -14550, -2172, -2084, 2176, 95, -3235, 1052, -1246, -806, 265, 193, 56, 67, 55, 29, 34, 64
72804998, 6905, -14550, -2172, -2084, 2176, 95, -3235, 1052, -1246, -806, 265, 193, 56, 67, 55, 29, 34, 64
72805964, 6996, -14493, -2442, -1869, 2167, 453, -3304, 939, -1599, -808, 265, 193, 56, 67, 55, 29, 34, 64
72806740, 6996, -14493, -2442, -1869, 2167, 453, -3304, 939, -1599, -808, 234, 138, 52, 63, 47, 27, 30, 47
72807574, 6996, -14493, -2442, -1869, 2167, 453, -3304, 939, -1599, -808, 234, 138, 52, 63, 47, 27, 30, 47
72812606, 6996, -14493, -2442, -1869, 2167, 453, -3304, 939, -1599, -808, 234, 138, 52, 63, 47, 27, 30, 47
72813385, 6996, -14493, -2442, -1869, 2167, 453, -3304, 939, -1599, -808, 234, 138, 52, 63, 47, 27, 30, 47
72814206, 6996, -14493, -2442, -1869, 2167, 453, -3304, 939, -1599, -808, 234, 138, 52, 63, 47, 27, 30, 47
72815066, 6996, -14493, -2442, -1869, 2167, 453, -3304, 939, -1599, -808, 234, 138, 52, 63, 47, 27, 30, 47
72819956, 6996, -14493, -2442, -1869, 2167, 453, -3304, 939, -1599, -808, 234, 138, 52, 63, 47, 27, 30, 47
72820766, 6996, -14493, -2442, -1869, 2167, 453, -3304, 939, -1599, -808, 234, 138, 52, 63, 47, 27, 30, 47
72821590, 6996, -14493, -2442, -1869, 2167, 453, -3304, 939, -1599, -808, 234, 138, 52, 63, 47, 27, 30, 47
72822400, 6996, -14493, -2442, -1869, 2167, 453, -3304, 939, -1599, -808, 234, 138, 52, 63, 47, 27, 30, 47
72827463, 6996, -14493, -2442, -1869, 2167, 453, -3304, 939, -1599, -808, 234, 138, 52, 63, 47, 27, 30, 47
72828399, 7013, -14462, -2728, -1635, 2100, 721, -3351, 535, -1806, -875, 234, 138, 52, 63, 47, 27, 30, 47
72829263, 7013, -14462, -2728, -1635, 2100, 721, -3351, 535, -1806, -875, 178, 114, 48, 47, 30, 23, 27, 38
72830051, 7013, -14462, -2728, -1635, 2100, 721, -3351, 535, -1806, -875, 178, 114, 48, 47, 30, 23, 27, 38
72835075, 7013, -14462, -2728, -1635, 2100, 721, -3351, 535, -1806, -875, 178, 114, 48, 47, 30, 23, 27, 38
72835856, 7013, -14462, -2728, -1635, 2100, 721, -3351, 535, -1806, -875, 178, 114, 48, 47, 30, 23, 27, 38
72836686, 7013, -14462, -2728, -1635, 2100, 721, -3351, 535, -1806, -875, 178, 114, 48, 47, 30, 23, 27, 38
72837506, 7013, -14462, -2728, -1635, 2100, 721, -3351, 535, -1806, -875, 178, 114, 48, 47, 30, 23, 27, 38
72842448, 7013, -14462, -2728, -1635, 2100, 721, -3351, 535, -1806, -875, 178, 114, 48, 47, 30, 23, 27, 38
72843284, 7013, -14462, -2728, -1635, 2100, 721, -3351, 535, -1806, -875, 178, 114, 48, 47, 30, 23, 27, 38
72844061, 7013, -14462, -2728, -1635, 2100, 721, -3351, 535, -1806, -875, 178, 114, 48, 47, 30, 23, 27, 38
72844921, 7013, -14462, -2728, -1635, 2100, 721, -3351, 535, -1806, -875, 178, 114, 48, 47, 30, 23, 27, 38
72849949, 7013, -14462, -2728, -1635, 2100, 721, -3351, 535, -1806, -875, 178, 114, 48, 47, 30, 23, 27, 38
72850899, 6935, -14460, -3040, -1416, 2002, 812, -3303, -3, -1903, -1065, 178, 114, 48, 47, 30, 23, 27, 38
72851716, 6935, -14460, -3040, -1416, 2002, 812, -3303, -3, -1903, -1065, 97, 89, 42, 40, 29, 23, 22, 34
72852519, 6935, -14460, -3040, -1416, 2002, 812, -3303, -3, -1903, -1065, 97, 89, 42, 40, 29, 23, 22, 34
72857505, 6935, -14460, -3040, -1416, 2002, 812, -3303, -3, -1903, -1065, 97, 89, 42, 40, 29, 23, 22, 34
72858316, 6935, -14460, -3040, -1416, 2002, 812, -3303, -3, -1903, -1065, 97, 89, 42, 40, 29, 23, 22, 34
72859129, 6935, -14460, -3040, -1416, 2002, 812, -3303, -3, -1903, -1065, 97, 89, 42, 40, 29, 23, 22, 34
72859931, 6935, -14460, -3040, -1416, 2002, 812, -3303, -3, -1903, -1065, 97, 89, 42, 40, 29, 23, 22, 34
72864919, 6935, -14460, -3040, -1416, 2002, 812, -3303, -3, -1903, -1065, 97, 89, 42, 40, 29, 23, 22, 34
72865765, 6935, -14460, -3040, -1416, 2002, 812, -3303, -3, -1903, -1065, 97, 89, 42, 40, 29, 23, 22, 34
72866556, 6935, -14460, -3040, -1416, 2002, 812, -3303, -3, -1903, -1065, 97, 89, 42, 40, 29, 23, 22, 34
72867392, 6935, -14460, -3040, -1416, 2002, 812, -3303, -3, -1903, -1065, 97, 89, 42, 40, 29, 23, 22, 34
72872477, 6935, -14460, -3040, -1416, 2002, 812, -3303, -3, -1903, -1065, 97, 89, 42, 40, 29, 23, 22, 34
72873421, 6724, -14500, -3396, -1209, 1832, 781, -3414, -749, -2106, -1325, 97, 89, 42, 40, 29, 23, 22, 34
72874272, 6724, -14500, -3396, -1209, 1832, 781, -3414, -749, -2106, -1325, 88, 59, 38, 34, 27, 22, 20, 28
72875074, 6724, -14500, -3396, -1209, 1832, 781, -3414, -749, -2106, -1325, 88, 59, 38, 34, 27, 22, 20, 28
72880103, 6724, -14500, -3396, -1209, 1832, 781, -3414, -749, -2106, -1325, 88, 59, 38, 34, 27, 22, 20, 28
72880869, 6724, -14500, -3396, -1209, 1832, 781, -3414, -749, -2106, -1325, 88, 59, 38, 34, 27, 22, 20, 28
72881710, 6724, -14500, -3396, -1209, 1832, 781, -3414, -749, -2106, -1325, 88, 59, 38, 34, 27, 22, 20, 28
72882501, 6724, -14500, -3396, -1209, 1832, 781, -3414, -749, -2106, -1325, 88, 59, 38, 34, 27, 22, 20, 28
72887490, 6724, -14500, -3396, -1209, 1832, 781, -3414, -749, -2106, -1325, 88, 59, 38, 34, 27, 22, 20, 28
72888341, 6724, -14500, -3396, -1209, 1832, 781, -3414, -749, -2106, -1325, 88, 59, 38, 34, 27, 22, 20, 28
72889051, 6724, -14500, -3396, -1209, 1832, 781, -3414, -749, -2106, -1325, 88, 59, 38, 34, 27, 22, 20, 28
72889894, 6724, -14500, -3396, -1209, 1832, 781, -3414, -749, -2106, -1325, 88, 59, 38, 34, 27, 22, 20, 28
72894971, 6724, -14500, -3396, -1209, 1832, 781, -3414, -749, -2106, -1325, 88, 59, 38, 34, 27, 22, 20, 28
72895947, 6405, -14560, -3795, -1019, 1620, 788, -3472, -1335, -2256, -1607, 88, 59, 38, 34, 27, 22, 20, 28
72896687, 6405, -14560, -3795, -1019, 1620, 788, -3472, -1335, -2256, -1607, 68, 52, 33, 30, 26, 25, 24, 24
72897537, 6405, -14560, -3795, -1019, 1620, 788, -3472, -1335, -2256, -1607, 68, 52, 33, 30, 26, 25, 24, 24
