Timestamp, Orientation x, Orientation y, Orientation z, Orientation w, Acceleration x, Acceleration y, Acceleration z, Rotation x, Rotation y, Rotation z, EMG 0, EMG 1, EMG 2, EMG 3, EMG 4, EMG 5, EMG 6, EMG 7
176291503, -1030, -9767, -12987, -1828, 95, 665, -2513, 86, -15, 19, 0, 0, 0, 0, 0, 0, 0, 0
176298995, -1023, -9771, -12986, -1815, 90, 668, -2515, 91, -17, 17, 0, 0, 0, 0, 0, 0, 0, 0
176313973, -1018, -9774, -12986, -1802, 90, 689, -2520, 94, -26, 14, 0, 0, 0, 0, 0, 0, 0, 0
176336557, -1013, -9778, -12985, -1790, 97, 690, -2527, 95, -28, 15, 0, 0, 0, 0, 0, 0, 0, 0
176360385, -1010, -9780, -12985, -1782, 106, 697, -2540, 78, -26, 9, 0, 0, 0, 0, 0, 0, 0, 0
176361125, -1010, -9780, -12985, -1782, 106, 697, -2540, 78, -26, 9, 59, 118, 30, 178, 87, 26, 22, 22
176361932, -1010, -9780, -12985, -1782, 106, 697, -2540, 78, -26, 9, 59, 118, 30, 178, 87, 26, 22, 22
176374000, -1008, -9781, -12985, -1776, 104, 699, -2534, 62, -22, 0, 59, 118, 30, 178, 87, 26, 22, 22
176382144, -1008, -9781, -12985, -1776, 104, 699, -2534, 62, -22, 0, 70, 113, 34, 195, 105, 29, 19, 24
176382985, -1008, -9781, -12985, -1776, 104, 699, -2534, 62, -22, 0, 70, 113, 34, 195, 105, 29, 19, 24
176396455, -1006, -9781, -12986, -1772, 105, 680, -2529, 51, -20, -5, 70, 113, 34, 195, 105, 29, 19, 24
176404608, -1006, -9781, -12986, -1772, 105, 680, -2529, 51, -20, -5, 66, 147, 69, 185, 103, 28, 20, 26
176405427, -1006, -9781, -12986, -1772, 105, 680, -2529, 51, -20, -5, 66, 147, 69, 185, 103, 28, 20, 26
176421765, -1005, -9781, -12987, -1766, 95, 680, -2553, 47, -21, -9, 66, 147, 69, 185, 103, 28, 20, 26
176422591, -1005, -9781, -12987, -1766, 95, 680, -2553, 47, -21, -9, 66, 147, 69, 185, 103, 28, 20, 26
176423411, -1030, -9767, -12987, -1828, 95, 665, -2513, 86, -15, 19, 66, 147, 69, 185, 103, 28, 20, 26
176424264, -1023, -9771, -12986, -1815, 90, 668, -2515, 91, -17, 17, 66, 147, 69, 185, 103, 28, 20, 26
176436701, -1018, -9774, -12986, -1802, 90, 689, -2520, 94, -26, 14, 66, 147, 69, 185, 103, 28, 20, 26
176437525, -1013, -9778, -12985, -1790, 97, 690, -2527, 95, -28, 15, 66, 147, 69, 185, 103, 28, 20, 26
176438376, -1010, -9780, -12985, -1782, 106, 697, -2540, 78, -26, 9, 66, 147, 69, 185, 103, 28, 20, 26
176439155, -1010, -9780, -12985, -1782, 106, 697, -2540, 78, -26, 9, 59, 118, 30, 178, 87, 26, 22, 22
176444237, -1010, -9780, -12985, -1782, 106, 697, -2540, 78, -26, 9, 70, 113, 34, 195, 105, 29, 19, 24
176445042, -1010, -9780, -12985, -1782, 106, 697, -2540, 78, -26, 9, 70, 113, 34, 195, 105, 29, 19, 24
176445842, -1010, -9780, -12985, -1782, 106, 697, -2540, 78, -26, 9, 70, 113, 34, 195, 105, 29, 19, 24
176446698, -1010, -9780, -12985, -1782, 106, 697, -2540, 78, -26, 9, 70, 113, 34, 195, 105, 29, 19, 24
176451619, -1010, -9780, -12985, -1782, 106, 697, -2540, 78, -26, 9, 70, 113, 34, 195, 105, 29, 19, 24
176452437, -1010, -9780, -12985, -1782, 106, 697, -2540, 78, -26, 9, 70, 113, 34, 195, 105, 29, 19, 24
176453232, -1010, -9780, -12985, -1782, 106, 697, -2540, 78, -26, 9, 70, 113, 34, 195, 105, 29, 19, 24
176454061, -1010, -9780, -12985, -1782, 106, 697, -2540, 78, -26, 9, 70, 113, 34, 195, 105, 29, 19, 24
176465027, -1010, -9780, -12985, -1782, 106, 697, -2540, 78, -26, 9, 70, 113, 34, 195, 105, 29, 19, 24
176474226, -1006, -9781, -12986, -1772, 105, 680, -2529, 51, -20, -5, 70, 113, 34, 195, 105, 29, 19, 24
176475024, -1006, -9781, -12986, -1772, 105, 680, -2529, 51, -20, -5, 66, 147, 69, 185, 103, 28, 20, 26
176475894, -1006, -9781, -12986, -1772, 105, 680, -2529, 51, -20, -5, 66, 147, 69, 185, 103, 28, 20, 26
176476658, -1006, -9781, -12986, -1772, 105, 680, -2529, 51, -20, -5, 66, 147, 69, 185, 103, 28, 20, 26
176481636, -1006, -9781, -12986, -1772, 105, 680, -2529, 51, -20, -5, 66, 147, 69, 185, 103, 28, 20, 26
176482425, -1006, -9781, -12986, -1772, 105, 680, -2529, 51, -20, -5, 66, 147, 69, 185, 103, 28, 20, 26
176483225, -1006, -9781, -12986, -1772, 105, 680, -2529, 51, -20, -5, 66, 147, 69, 185, 103, 28, 20, 26
176484036, -1006, -9781, -12986, -1772, 105, 680, -2529, 51, -20, -5, 66, 147, 69, 185, 103, 28, 20, 26
176489122, -1006, -9781, -12986, -1772, 105, 680, -2529, 51, -20, -5, 66, 147, 69, 185, 103, 28, 20, 26
176490049, -1005, -9781, -12987, -1766, 95, 680, -2553, 47, -21, -9, 66, 147, 69, 185, 103, 28, 20, 26
176490867, -1005, -9781, -12987, -1766, 95, 680, -2553, 47, -21, -9, 72, 205, 86, 127, 92, 29, 24, 27
176491736, -1005, -9781, -12987, -1766, 95, 680, -2553, 47, -21, -9, 72, 205, 86, 127, 92, 29, 24, 27
176496744, -1005, -9781, -12987, -1766, 95, 680, -2553, 47, -21, -9, 72, 205, 86, 127, 92, 29, 24, 27
176497502, -1005, -9781, -12987, -1766, 95, 680, -2553, 47, -21, -9, 72, 205, 86, 127, 92, 29, 24, 27
176498381, -1005, -9781, -12987, -1766, 95, 680, -2553, 47, -21, -9, 72, 205, 86, 127, 92, 29, 24, 27
176499150, -1005, -9781, -12987, -1766, 95, 680, -2553, 47, -21, -9, 72, 205, 86, 127, 92, 29, 24, 27
176504091, -1005, -9781, -12987, -1766, 95, 680, -2553, 47, -21, -9, 72, 205, 86, 127, 92, 29, 24, 27
176504894, -1005, -9781, -12987, -1766, 95, 680, -2553, 47, -21, -9, 72, 205, 86, 127, 92, 29, 24, 27
176505740, -1005, -9781, -12987, -1766, 95, 680, -2553, 47, -21, -9, 72, 205, 86, 127, 92, 29, 24, 27
176506510, -1005, -9781, -12987, -1766, 95, 680, -2553, 47, -21, -9, 72, 205, 86, 127, 92, 29, 24, 27
176511585, -1005, -9781, -12987, -1766, 95, 680, -2553, 47, -21, -9, 72, 205, 86, 127, 92, 29, 24, 27
176512547, -1009, -9778, -12989, -1767, 88, 723, -2589, 23, -14, -24, 72, 205, 86, 127, 92, 29, 24, 27
176513372, -1009, -9778, -12989, -1767, 88, 723, -2589, 23, -14, -24, 78, 226, 119, 126, 235, 59, 33, 41
176514172, -1009, -9778, -12989, -1767, 88, 723, -2589, 23, -14, -24, 78, 226, 119, 126, 235, 59, 33, 41
176519181, -1009, -9778, -12989, -1767, 88, 723, -2589, 23, -14, -24, 78, 226, 119, 126, 235, 59, 33, 41
176520025, -1009, -9778, -12989, -1767, 88, 723, -2589, 23, -14, -24, 78, 226, 119, 126, 235, 59, 33, 41
176520792, -1009, -9778, -12989, -1767, 88, 723, -2589, 23, -14, -24, 78, 226, 119, 126, 235, 59, 33, 41
176521647, -1009, -9778, -12989, -1767, 88, 723, -2589, 23, -14, -24, 78, 226, 119, 126, 235, 59, 33, 41
176526554, -1009, -9778, -12989, -1767, 88, 723, -2589, 23, -14, -24, 78, 226, 119, 126, 235, 59, 33, 41
176527423, -1009, -9778, -12989, -1767, 88, 723, -2589, 23, -14, -24, 78, 226, 119, 126, 235, 59, 33, 41
176528192, -1009, -9778, -12989, -1767, 88, 723, -2589, 23, -14, -24, 78, 226, 119, 126, 235, 59, 33, 41
176529040, -1009, -9778, -12989, -1767, 88, 723, -2589, 23, -14, -24, 78, 226, 119, 126, 235, 59, 33, 41
176534152, -1009, -9778, -12989, -1767, 88, 723, -2589, 23, -14, -24, 78, 226, 119, 126, 235, 59, 33, 41
176535091, -1016, -9768, -12991, -1799, 131, 765, -2602, -117, 55, -48, 78, 226, 119, 126, 235, 59, 33, 41
176535894, -1016, -9768, -12991, -1799, 131, 765, -2602, -117, 55, -48, 112, 274, 210, 128, 274, 73, 55, 59
176536754, -1016, -9768, -12991, -1799, 131, 765, -2602, -117, 55, -48, 112, 274, 210, 128, 274, 73, 55, 59
176541715, -1016, -9768, -12991, -1799, 131, 765, -2602, -117, 55, -48, 112, 274, 210, 128, 274, 73, 55, 59
176542537, -1016, -9768, -12991, -1799, 131, 765, -2602, -117, 55, -48, 112, 274, 210, 128, 274, 73, 55, 59
176543348, -1016, -9768, -12991, -1799, 131, 765, -2602, -117, 55, -48, 112, 274, 210, 128, 274, 73, 55, 59
176544168, -1016, -9768, -12991, -1799, 131, 765, -2602, -117, 55, -48, 112, 274, 210, 128, 274, 73, 55, 59
176549103, -1016, -9768, -12991, -1799, 131, 765, -2602, -117, 55, -48, 112, 274, 210, 128, 274, 73, 55, 59
176549946, -1016, -9768, -12991, -1799, 131, 765, -2602, -117, 55, -48, 112, 274, 210, 128, 274, 73, 55, 59
176550738, -1016, -9768, -12991, -1799, 131, 765, -2602, -117, 55, -48, 112, 274, 210, 128, 274, 73, 55, 59
176551585, -1016, -9768, -12991, -1799, 131, 765, -2602, -117, 55, -48, 112, 274, 210, 128, 274, 73, 55, 59
176556606, -1016, -9768, -12991, -1799, 131, 765, -2602, -117, 55, -48, 112, 274, 210, 128, 274, 73, 55, 59
176557555, -1041, -9750, -12993, -1871, 137, 876, -2687, -322, 119, -79, 112, 274, 210, 128, 274, 73, 55, 59
176558373, -1041, -9750, -12993, -1871, 137, 876, -2687, -322, 119, -79, 120, 319, 258, 131, 363, 92, 61, 82
176559221, -1041, -9750, -12993, -1871, 137, 876, -2687, -322, 119, -79, 120, 319, 258, 131, 363, 92, 61, 82
176564192, -1041, -9750, -12993, -1871, 137, 876, -2687, -322, 119, -79, 120, 319, 258, 131, 363, 92, 61, 82
176565028, -1041, -9750, -12993, -1871, 137, 876, -2687, -322, 119, -79, 120, 319, 258, 131, 363, 92, 61, 82
176565817, -1041, -9750, -12993, -1871, 137, 876, -2687, -322, 119, -79, 120, 319, 258, 131, 363, 92, 61, 82
176566671, -1041, -9750, -12993, -1871, 137, 876, -2687, -322, 119, -79, 120, 319, 258, 131, 363, 92, 61, 82
176571592, -1041, -9750, -12993, -1871, 137, 876, -2687, -322, 119, -79, 120, 319, 258, 131, 363, 92, 61, 82
176572425, -1041, -9750, -12993, -1871, 137, 876, -2687, -322, 119, -79, 120, 319, 258, 131, 363, 92, 61, 82
176573201, -1041, -9750, -12993, -1871, 137, 876, -2687, -322, 119, -79, 120, 319, 258, 131, 363, 92, 61, 82
176574065, -1041, -9750, -12993, -1871, 137, 876, -2687, -322, 119, -79, 120, 319, 258, 131, 363, 92, 61, 82
176579103, -1041, -9750, -12993, -1871, 137, 876, -2687, -322, 119, -79, 120, 319, 258, 131, 363, 92, 61, 82
176580076, -1048, -9720, -12999, -1976, 180, 911, -2839, -425, 310, -128, 120, 319, 258, 131, 363, 92, 61, 82
176580842, -1048, -9720, -12999, -1976, 180, 911, -2839, -425, 310, -128, 147, 392, 425, 175, 385, 126, 78, 129
176581703, -1048, -9720, -12999, -1976, 180, 911, -2839, -425, 310, -128, 147, 392, 425, 175, 385, 126, 78, 129
176586658, -1048, -9720, -12999, -1976, 180, 911, -2839, -425, 310, -128, 147, 392, 425, 175, 385, 126, 78, 129
176587530, -1048, -9720, -12999, -1976, 180, 911, -2839, -425, 310, -128, 147, 392, 425, 175, 385, 126, 78, 129
176588363, -1048, -9720, -12999, -1976, 180, 911, -2839, -425, 310, -128, 147, 392, 425, 175, 385, 126, 78, 129
176589130, -1048, -9720, -12999, -1976, 180, 911, -2839, -425, 310, -128, 147, 392, 425, 175, 385, 126, 78, 129
176594130, -1048, -9720, -12999, -1976, 180, 911, -2839, -425, 310, -128, 147, 392, 425, 175, 385, 126, 78, 129
176594933, -1048, -9720, -12999, -1976, 180, 911, -2839, -425, 310, -128, 147, 392, 425, 175, 385, 126, 78, 129
176595731, -1048, -9720, -12999, -1976, 180, 911, -2839, -425, 310, -128, 147, 392, 425, 175, 385, 126, 78, 129
176596529, -1048, -9720, -12999, -1976, 180, 911, -2839, -425, 310, -128, 147, 392, 425, 175, 385, 126, 78, 129
176600740, -1048, -9720, -12999, -1976, 180, 911, -2839, -425, 310, -128, 147, 392, 425, 175, 385, 126, 78, 129
176601687, -1018, -9670, -13016, -2119, 252, 797, -2865, -568, 598, -221, 147, 392, 425, 175, 385, 126, 78, 129
176602475, -1018, -9670, -13016, -2119, 252, 797, -2865, -568, 598, -221, 298, 509, 564, 244, 528, 164, 100, 147
176609218, -1018, -9670, -13016, -2119, 252, 797, -2865, -568, 598, -221, 298, 509, 564, 244, 528, 164, 100, 147
176610024, -1018, -9670, -13016, -2119, 252, 797, -2865, -568, 598, -221, 298, 509, 564, 244, 528, 164, 100, 147
176610883, -1018, -9670, -13016, -2119, 252, 797, -2865, -568, 598, -221, 298, 509, 564, 244, 528, 164, 100, 147
176611667, -1018, -9670, -13016, -2119, 252, 797, -2865, -568, 598, -221, 298, 509, 564, 244, 528, 164, 100, 147
176616602, -1018, -9670, -13016, -2119, 252, 797, -2865, -568, 598, -221, 298, 509, 564, 244, 528, 164, 100, 147
176617415, -1018, -9670, -13016, -2119, 252, 797, -2865, -568, 598, -221, 298, 509, 564, 244, 528, 164, 100, 147
176618246, -1018, -9670, -13016, -2119, 252, 797, -2865, -568, 598, -221, 298, 509, 564, 244, 528, 164, 100, 147
176619073, -1018, -9670, -13016, -2119, 252, 797, -2865, -568, 598, -221, 298, 509, 564, 244, 528, 164, 100, 147
176624114, -1018, -9670, -13016, -2119, 252, 797, -2865, -568, 598, -221, 298, 509, 564, 244, 528, 164, 100, 147
176625076, -926, -9604, -13052, -2236, 213, 706, -2776, -273, 852, -311, 298, 509, 564, 244, 528, 164, 100, 147
176625869, -926, -9604, -13052, -2236, 213, 706, -2776, -273, 852, -311, 322, 575, 682, 313, 660, 214, 143, 200
176626685, -926, -9604, -13052, -2236, 213, 706, -2776, -273, 852, -311, 322, 575, 682, 313, 660, 214, 143, 200
176631688, -926, -9604, -13052, -2236, 213, 706, -2776, -273, 852, -311, 322, 575, 682, 313, 660, 214, 143, 200
176632502, -926, -9604, -13052, -2236, 213, 706, -2776, -273, 852, -311, 322, 575, 682, 313, 660, 214, 143, 200
176633367, -926, -9604, -13052, -2236, 213, 706, -2776, -273, 852, -311, 322, 575, 682, 313, 660, 214, 143, 200
176634129, -926, -9604, -13052, -2236, 213, 706, -2776, -273, 852, -311, 322, 575, 682, 313, 660, 214, 143, 200
176636883, -926, -9604, -13052, -2236, 213, 706, -2776, -273, 852, -311, 322, 575, 682, 313, 660, 214, 143, 200
176646677, -926, -9604, -13052, -2236, 213, 706, -2776, -273, 852, -311, 322, 575, 682, 313, 660, 214, 143, 200
176647447, -926, -9604, -13052, -2236, 213, 706, -2776, -273, 852, -311, 322, 575, 682, 313, 660, 214, 143, 200
176648341, -926, -9604, -13052, -2236, 213, 706, -2776, -273, 852, -311, 322, 575, 682, 313, 660, 214, 143, 200
176649054, -926, -9604, -13052, -2236, 213, 706, -2776, -273, 852, -311, 322, 575, 682, 313, 660, 214, 143, 200
176661687, -785, -9518, -13098, -2385, 312, 714, -2833, -270, 1171, -390, 322, 575, 682, 313, 660, 214, 143, 200
176662529, -785, -9518, -13098, -2385, 312, 714, -2833, -270, 1171, -390, 419, 681, 761, 345, 801, 245, 177, 219
176663340, -785, -9518, -13098, -2385, 312, 714, -2833, -270, 1171, -390, 419, 681, 761, 345, 801, 245, 177, 219
176669094, -785, -9518, -13098, -2385, 312, 714, -2833, -270, 1171, -390, 419, 681, 761, 345, 801, 245, 177, 219
176669869, -785, -9518, -13098, -2385, 312, 714, -2833, -270, 1171, -390, 419, 681, 761, 345, 801, 245, 177, 219
176670687, -785, -9518, -13098, -2385, 312, 714, -2833, -270, 1171, -390, 419, 681, 761, 345, 801, 245, 177, 219
176671515, -785, -9518, -13098, -2385, 312, 714, -2833, -270, 1171, -390, 419, 681, 761, 345, 801, 245, 177, 219
176676610, -785, -9518, -13098, -2385, 312, 714, -2833, -270, 1171, -390, 419, 681, 761, 345, 801, 245, 177, 219
176677424, -785, -9518, -13098, -2385, 312, 714, -2833, -270, 1171, -390, 419, 681, 761, 345, 801, 245, 177, 219
176678386, -556, -9375, -13181, -2551, 415, 639, -3151, -11, 1703, -687, 419, 681, 761, 345, 801, 245, 177, 219
176679180, -556, -9375, -13181, -2551, 415, 639, -3151, -11, 1703, -687, 529, 735, 936, 365, 848, 267, 318, 259
176684193, -556, -9375, -13181, -2551, 415, 639, -3151, -11, 1703, -687, 529, 735, 936, 365, 848, 267, 318, 259
176684999, -556, -9375, -13181, -2551, 415, 639, -3151, -11, 1703, -687, 529, 735, 936, 365, 848, 267, 318, 259
176685858, -556, -9375, -13181, -2551, 415, 639, -3151, -11, 1703, -687, 529, 735, 936, 365, 848, 267, 318, 259
176686645, -556, -9375, -13181, -2551, 415, 639, -3151, -11, 1703, -687, 529, 735, 936, 365, 848, 267, 318, 259
176691595, -556, -9375, -13181, -2551, 415, 639, -3151, -11, 1703, -687, 529, 735, 936, 365, 848, 267, 318, 259
176692372, -556, -9375, -13181, -2551, 415, 639, -3151, -11, 1703, -687, 529, 735, 936, 365, 848, 267, 318, 259
176693248, -556, -9375, -13181, -2551, 415, 639, -3151, -11, 1703, -687, 529, 735, 936, 365, 848, 267, 318, 259
176694026, -556, -9375, -13181, -2551, 415, 639, -3151, -11, 1703, -687, 529, 735, 936, 365, 848, 267, 318, 259
176699158, -556, -9375, -13181, -2551, 415, 639, -3151, -11, 1703, -687, 529, 735, 936, 365, 848, 267, 318, 259
176700112, -186, -9137, -13318, -2753, 470, 382, -3377, 265, 2567, -1158, 529, 735, 936, 365, 848, 267, 318, 259
176700929, -186, -9137, -13318, -2753, 470, 382, -3377, 265, 2567, -1158, 597, 825, 959, 385, 938, 256, 388, 265
176701714, -186, -9137, -13318, -2753, 470, 382, -3377, 265, 2567, -1158, 597, 825, 959, 385, 938, 256, 388, 265
176706740, -186, -9137, -13318, -2753, 470, 382, -3377, 265, 2567, -1158, 597, 825, 959, 385, 938, 256, 388, 265
176707528, -186, -9137, -13318, -2753, 470, 382, -3377, 265, 2567, -1158, 597, 825, 959, 385, 938, 256, 388, 265
176708382, -186, -9137, -13318, -2753, 470, 382, -3377, 265, 2567, -1158, 597, 825, 959, 385, 938, 256, 388, 265
176709176, -186, -9137, -13318, -2753, 470, 382, -3377, 265, 2567, -1158, 597, 825, 959, 385, 938, 256, 388, 265
176714119, -186, -9137, -13318, -2753, 470, 382, -3377, 265, 2567, -1158, 597, 825, 959, 385, 938, 256, 388, 265
176714903, -186, -9137, -13318, -2753, 470, 382, -3377, 265, 2567, -1158, 597, 825, 959, 385, 938, 256, 388, 265
176715724, -186, -9137, -13318, -2753, 470, 382, -3377, 265, 2567, -1158, 597, 825, 959, 385, 938, 256, 388, 265
176716529, -186, -9137, -13318, -2753, 470, 382, -3377, 265, 2567, -1158, 597, 825, 959, 385, 938, 256, 388, 265
176721639, -186, -9137, -13318, -2753, 470, 382, -3377, 265, 2567, -1158, 597, 825, 959, 385, 938, 256, 388, 265
176722562, 321, -8822, -13474, -2996, 478, 37, -4079, 457, 3443, -1441, 597, 825, 959, 385, 938, 256, 388, 265
176723425, 321, -8822, -13474, -2996, 478, 37, -4079, 457, 3443, -1441, 644, 816, 1049, 431, 986, 331, 521, 323
176724192, 321, -8822, -13474, -2996, 478, 37, -4079, 457, 3443, -1441, 644, 816, 1049, 431, 986, 331, 521, 323
176729209, 321, -8822, -13474, -2996, 478, 37, -4079, 457, 3443, -1441, 644, 816, 1049, 431, 986, 331, 521, 323
176730019, 321, -8822, -13474, -2996, 478, 37, -4079, 457, 3443, -1441, 644, 816, 1049, 431, 986, 331, 521, 323
176730844, 321, -8822, -13474, -2996, 478, 37, -4079, 457, 3443, -1441, 644, 816, 1049, 431, 986, 331, 521, 323
176731644, 321, -8822, -13474, -2996, 478, 37, -4079, 457, 3443, -1441, 644, 816, 1049, 431, 986, 331, 521, 323
176736621, 321, -8822, -13474, -2996, 478, 37, -4079, 457, 3443, -1441, 644, 816, 1049, 431, 986, 331, 521, 323
176737398, 321, -8822, -13474, -2996, 478, 37, -4079, 457, 3443, -1441, 644, 816, 1049, 431, 986, 331, 521, 323
176738249, 321, -8822, -13474, -2996, 478, 37, -4079, 457, 3443, -1441, 644, 816, 1049, 431, 986, 331, 521, 323
176739025, 321, -8822, -13474, -2996, 478, 37, -4079, 457, 3443, -1441, 644, 816, 1049, 431, 986, 331, 521, 323
176744130, 321, -8822, -13474, -2996, 478, 37, -4079, 457, 3443, -1441, 644, 816, 1049, 431, 986, 331, 521, 323
176745027, 1005, -8475, -13598, -3274, 670, -87, -4504, 767, 4438, -1317, 644, 816, 1049, 431, 986, 331, 521, 323
176745884, 1005, -8475, -13598, -3274, 670, -87, -4504, 767, 4438, -1317, 658, 862, 1035, 463, 973, 369, 570, 323
176746671, 1005, -8475, -13598, -3274, 670, -87, -4504, 767, 4438, -1317, 658, 862, 1035, 463, 973, 369, 570, 323
176751698, 1005, -8475, -13598, -3274, 670, -87, -4504, 767, 4438, -1317, 658, 862, 1035, 463, 973, 369, 570, 323
176752477, 1005, -8475, -13598, -3274, 670, -87, -4504, 767, 4438, -1317, 658, 862, 1035, 463, 973, 369, 570, 323
176753382, 1005, -8475, -13598, -3274, 670, -87, -4504, 767, 4438, -1317, 658, 862, 1035, 463, 973, 369, 570, 323
176754124, 1005, -8475, -13598, -3274, 670, -87, -4504, 767, 4438, -1317, 658, 862, 1035, 463, 973, 369, 570, 323
176759076, 1005, -8475, -13598, -3274, 670, -87, -4504, 767, 4438, -1317, 658, 862, 1035, 463, 973, 369, 570, 323
176759894, 1005, -8475, -13598, -3274, 670, -87, -4504, 767, 4438, -1317, 658, 862, 1035, 463, 973, 369, 570, 323
176760686, 1005, -8475, -13598, -3274, 670, -87, -4504, 767, 4438, -1317, 658, 862, 1035, 463, 973, 369, 570, 323
176761542, 1005, -8475, -13598, -3274, 670, -87, -4504, 767, 4438, -1317, 658, 862, 1035, 463, 973, 369, 570, 323
176766632, 1005, -8475, -13598, -3274, 670, -87, -4504, 767, 4438, -1317, 658, 862, 1035, 463, 973, 369, 570, 323
176767610, 1852, -8123, -13646, -3582, 754, 47, -4798, 1043, 5390, -951, 658, 862, 1035, 463, 973, 369, 570, 323
176768398, 1852, -8123, -13646, -3582, 754, 47, -4798, 1043, 5390, -951, 654, 864, 1146, 511, 899, 363, 596, 339
176769247, 1852, -8123, -13646, -3582, 754, 47, -4798, 1043, 5390, -951, 654, 864, 1146, 511, 899, 363, 596, 339
176773342, 1852, -8123, -13646, -3582, 754, 47, -4798, 1043, 5390, -951, 654, 864, 1146, 511, 899, 363, 596, 339
176774120, 1852, -8123, -13646, -3582, 754, 47, -4798, 1043, 5390, -951, 654, 864, 1146, 511, 899, 363, 596, 339
176774917, 1852, -8123, -13646, -3582, 754, 47, -4798, 1043, 5390, -951, 654, 864, 1146, 511, 899, 363, 596, 339
176781623, 1852, -8123, -13646, -3582, 754, 47, -4798, 1043, 5390, -951, 654, 864, 1146, 511, 899, 363, 596, 339
176782421, 1852, -8123, -13646, -3582, 754, 47, -4798, 1043, 5390, -951, 654, 864, 1146, 511, 899, 363, 596, 339
176783255, 1852, -8123, -13646, -3582, 754, 47, -4798, 1043, 5390, -951, 654, 864, 1146, 511, 899, 363, 596, 339
176784062, 1852, -8123, -13646, -3582, 754, 47, -4798, 1043, 5390, -951, 654, 864, 1146, 511, 899, 363, 596, 339
176789103, 1852, -8123, -13646, -3582, 754, 47, -4798, 1043, 5390, -951, 654, 864, 1146, 511, 899, 363, 596, 339
176789913, 1852, -8123, -13646, -3582, 754, 47, -4798, 1043, 5390, -951, 654, 864, 1146, 511, 899, 363, 596, 339
176790847, 2784, -7713, -13633, -3918, 774, 9, -4868, 1262, 5794, -946, 654, 864, 1146, 511, 899, 363, 596, 339
176791658, 2784, -7713, -13633, -3918, 774, 9, -4868, 1262, 5794, -946, 653, 891, 1111, 587, 924, 373, 596, 368
176796658, 2784, -7713, -13633, -3918, 774, 9, -4868, 1262, 5794, -946, 653, 891, 1111, 587, 924, 373, 596, 368
176797476, 2784, -7713, -13633, -3918, 774, 9, -4868, 1262, 5794, -946, 653, 891, 1111, 587, 924, 373, 596, 368
176798315, 2784, -7713, -13633, -3918, 774, 9, -4868, 1262, 5794, -946, 653, 891, 1111, 587, 924, 373, 596, 368
176799255, 2784, -7713, -13633, -3918, 774, 9, -4868, 1262, 5794, -946, 653, 891, 1111, 587, 924, 373, 596, 368
176804059, 2784, -7713, -13633, -3918, 774, 9, -4868, 1262, 5794, -946, 653, 891, 1111, 587, 924, 373, 596, 368
176804922, 2784, -7713, -13633, -3918, 774, 9, -4868, 1262, 5794, -946, 653, 891, 1111, 587, 924, 373, 596, 368
176805715, 2784, -7713, -13633, -3918, 774, 9, -4868, 1262, 5794, -946, 653, 891, 1111, 587, 924, 373, 596, 368
176806530, 2784, -7713, -13633, -3918, 774, 9, -4868, 1262, 5794, -946, 653, 891, 1111, 587, 924, 373, 596, 368
176811594, 2784, -7713, -13633, -3918, 774, 9, -4868, 1262, 5794, -946, 653, 891, 1111, 587, 924, 373, 596, 368
176812528, 3681, -7213, -13568, -4334, 953, 194, -4957, 820, 6013, -1359, 653, 891, 1111, 587, 924, 373, 596, 368
176813367, 3681, -7213, -13568, -4334, 953, 194, -4957, 820, 6013, -1359, 664, 858, 1095, 700, 999, 413, 564, 382
176814155, 3681, -7213, -13568, -4334, 953, 194, -4957, 820, 6013, -1359, 664, 858, 1095, 700, 999, 413, 564, 382
176819146, 3681, -7213, -13568, -4334, 953, 194, -4957, 820, 6013, -1359, 664, 858, 1095, 700, 999, 413, 564, 382
176819958, 3681, -7213, -13568, -4334, 953, 194, -4957, 820, 6013, -1359, 664, 858, 1095, 700, 999, 413, 564, 382
176820765, 3681, -7213, -13568, -4334, 953, 194, -4957, 820, 6013, -1359, 664, 858, 1095, 700, 999, 413, 564, 382
176821583, 3681, -7213, -13568, -4334, 953, 194, -4957, 820, 6013, -1359, 664, 858, 1095, 700, 999, 413, 564, 382
176826599, 3681, -7213, -13568, -4334, 953, 194, -4957, 820, 6013, -1359, 664, 858, 1095, 700, 999, 413, 564, 382
176827431, 3681, -7213, -13568, -4334, 953, 194, -4957, 820, 6013, -1359, 664, 858, 1095, 700, 999, 413, 564, 382
176828246, 3681, -7213, -13568, -4334, 953, 194, -4957, 820, 6013, -1359, 664, 858, 1095, 700, 999, 413, 564, 382
176829091, 3681, -7213, -13568, -4334, 953, 194, -4957, 820, 6013, -1359, 664, 858, 1095, 700, 999, 413, 564, 382
176834150, 3681, -7213, -13568, -4334, 953, 194, -4957, 820, 6013, -1359, 664, 858, 1095, 700, 999, 413, 564, 382
176835075, 4564, -6690, -13420, -4772, 1400, 84, -4865, 581, 6149, -1303, 664, 858, 1095, 700, 999, 413, 564, 382
176835882, 4564, -6690, -13420, -4772, 1400, 84, -4865, 581, 6149, -1303, 682, 869, 1061, 690, 938, 360, 444, 345
176836711, 4564, -6690, -13420, -4772, 1400, 84, -4865, 581, 6149, -1303, 682, 869, 1061, 690, 938, 360, 444, 345
176841699, 4564, -6690, -13420, -4772, 1400, 84, -4865, 581, 6149, -1303, 682, 869, 1061, 690, 938, 360, 444, 345
176842525, 4564, -6690, -13420, -4772, 1400, 84, -4865, 581, 6149, -1303, 682, 869, 1061, 690, 938, 360, 444, 345
176843376, 4564, -6690, -13420, -4772, 1400, 84, -4865, 581, 6149, -1303, 682, 869, 1061, 690, 938, 360, 444, 345
176844150, 4564, -6690, -13420, -4772, 1400, 84, -4865, 581, 6149, -1303, 682, 869, 1061, 690, 938, 360, 444, 345
176849068, 4564, -6690, -13420, -4772, 1400, 84, -4865, 581, 6149, -1303, 682, 869, 1061, 690, 938, 360, 444, 345
176849870, 4564, -6690, -13420, -4772, 1400, 84, -4865, 581, 6149, -1303, 682, 869, 1061, 690, 938, 360, 444, 345
176850688, 4564, -6690, -13420, -4772, 1400, 84, -4865, 581, 6149, -1303, 682, 869, 1061, 690, 938, 360, 444, 345
176851502, 4564, -6690, -13420, -4772, 1400, 84, -4865, 581, 6149, -1303, 682, 869, 1061, 690, 938, 360, 444, 345
176856607, 4564, -6690, -13420, -4772, 1400, 84, -4865, 581, 6149, -1303, 682, 869, 1061, 690, 938, 360, 444, 345
176857570, 5388, -6160, -13192, -5239, 1794, 335, -4793, 202, 6075, -1297, 682, 869, 1061, 690, 938, 360, 444, 345
176858341, 5388, -6160, -13192, -5239, 1794, 335, -4793, 202, 6075, -1297, 742, 865, 1050, 737, 995, 302, 371, 330
176859195, 5388, -6160, -13192, -5239, 1794, 335, -4793, 202, 6075, -1297, 742, 865, 1050, 737, 995, 302, 371, 330
176864166, 5388, -6160, -13192, -5239, 1794, 335, -4793, 202, 6075, -1297, 742, 865, 1050, 737, 995, 302, 371, 330
176865041, 5388, -6160, -13192, -5239, 1794, 335, -4793, 202, 6075, -1297, 742, 865, 1050, 737, 995, 302, 371, 330
176865791, 5388, -6160, -13192, -5239, 1794, 335, -4793, 202, 6075, -1297, 742, 865, 1050, 737, 995, 302, 371, 330
176866620, 5388, -6160, -13192, -5239, 1794, 335, -4793, 202, 6075, -1297, 742, 865, 1050, 737, 995, 302, 371, 330
176871567, 5388, -6160, -13192, -5239, 1794, 335, -4793, 202, 6075, -1297, 742, 865, 1050, 737, 995, 302, 371, 330
176872384, 5388, -6160, -13192, -5239, 1794, 335, -4793, 202, 6075, -1297, 742, 865, 1050, 737, 995, 302, 371, 330
176873203, 5388, -6160, -13192, -5239, 1794, 335, -4793, 202, 6075, -1297, 742, 865, 1050, 737, 995, 302, 371, 330
176874040, 5388, -6160, -13192, -5239, 1794, 335, -4793, 202, 6075, -1297, 742, 865, 1050, 737, 995, 302, 371, 330
176879129, 5388, -6160, -13192, -5239, 1794, 335, -4793, 202, 6075, -1297, 742, 865, 1050, 737, 995, 302, 371, 330
176880104, 6141, -5635, -12896, -5717, 1896, 556, -4692, -136, 5895, -1281, 742, 865, 1050, 737, 995, 302, 371, 330
176880904, 6141, -5635, -12896, -5717, 1896, 556, -4692, -136, 5895, -1281, 731, 865, 894, 737, 996, 326, 321, 305
176881715, 6141, -5635, -12896, -5717, 1896, 556, -4692, -136, 5895, -1281, 731, 865, 894, 737, 996, 326, 321, 305
176886687, 6141, -5635, -12896, -5717, 1896, 556, -4692, -136, 5895, -1281, 731, 865, 894, 737, 996, 326, 321, 305
176887464, 6141, -5635, -12896, -5717, 1896, 556, -4692, -136, 5895, -1281, 731, 865, 894, 737, 996, 326, 321, 305
176888382, 6141, -5635, -12896, -5717, 1896, 556, -4692, -136, 5895, -1281, 731, 865, 894, 737, 996, 326, 321, 305
176889125, 6141, -5635, -12896, -5717, 1896, 556, -4692, -136, 5895, -1281, 731, 865, 894, 737, 996, 326, 321, 305
176894108, 6141, -5635, -12896, -5717, 1896, 556, -4692, -136, 5895, -1281, 731, 865, 894, 737, 996, 326, 321, 305
176894898, 6141, -5635, -12896, -5717, 1896, 556, -4692, -136, 5895, -1281, 731, 865, 894, 737, 996, 326, 321, 305
176895696, 6141, -5635, -12896, -5717, 1896, 556, -4692, -136, 5895, -1281, 731, 865, 894, 737, 996, 326, 321, 305
176896519, 6141, -5635, -12896, -5717, 1896, 556, -4692, -136, 5895, -1281, 731, 865, 894, 737, 996, 326, 321, 305
176901607, 6141, -5635, -12896, -5717, 1896, 556, -4692, -136, 5895, -1281, 731, 865, 894, 737, 996, 326, 321, 305
176902602, 6789, -5147, -12538, -6220, 2103, 739, -4478, -646, 5533, -1253, 731, 865, 894, 737, 996, 326, 321, 305
176903383, 6789, -5147, -12538, -6220, 2103, 739, -4478, -646, 5533, -1253, 718, 837, 851, 708, 1020, 361, 191, 231
176904219, 6789, -5147, -12538, -6220, 2103, 739, -4478, -646, 5533, -1253, 718, 837, 851, 708, 1020, 361, 191, 231
176909181, 6789, -5147, -12538, -6220, 2103, 739, -4478, -646, 5533, -1253, 718, 837, 851, 708, 1020, 361, 191, 231
176910026, 6789, -5147, -12538, -6220, 2103, 739, -4478, -646, 5533, -1253, 718, 837, 851, 708, 1020, 361, 191, 231
176910817, 6789, -5147, -12538, -6220, 2103, 739, -4478, -646, 5533, -1253, 718, 837, 851, 708, 1020, 361, 191, 231
176911659, 6789, -5147, -12538, -6220, 2103, 739, -4478, -646, 5533, -1253, 718, 837, 851, 708, 1020, 361, 191, 231
176916345, 6789, -5147, -12538, -6220, 2103, 739, -4478, -646, 5533, -1253, 718, 837, 851, 708, 1020, 361, 191, 231
176917162, 6789, -5147, -12538, -6220, 2103, 739, -4478, -646, 5533, -1253, 718, 837, 851, 708, 1020, 361, 191, 231
176917956, 6789, -5147, -12538, -6220, 2103, 739, -4478, -646, 5533, -1253, 718, 837, 851, 708, 1020, 361, 191, 231
176918766, 6789, -5147, -12538, -6220, 2103, 739, -4478, -646, 5533, -1253, 718, 837, 851, 708, 1020, 361, 191, 231
176924097, 6789, -5147, -12538, -6220, 2103, 739, -4478, -646, 5533, -1253, 718, 837, 851, 708, 1020, 361, 191, 231
176925069, 7322, -4697, -12143, -6732, 2224, 703, -4336, -1054, 5062, -1286, 718, 837, 851, 708, 1020, 361, 191, 231
176925843, 7322, -4697, -12143, -6732, 2224, 703, -4336, -1054, 5062, -1286, 719, 893, 906, 690, 891, 371, 154, 188
176926661, 7322, -4697, -12143, -6732, 2224, 703, -4336, -1054, 5062, -1286, 719, 893, 906, 690, 891, 371, 154, 188
176931689, 7322, -4697, -12143, -6732, 2224, 703, -4336, -1054, 5062, -1286, 719, 893, 906, 690, 891, 371, 154, 188
176932476, 7322, -4697, -12143, -6732, 2224, 703, -4336, -1054, 5062, -1286, 719, 893, 906, 690, 891, 371, 154, 188
176933370, 7322, -4697, -12143, -6732, 2224, 703, -4336, -1054, 5062, -1286, 719, 893, 906, 690, 891, 371, 154, 188
176934124, 7322, -4697, -12143, -6732, 2224, 703, -4336, -1054, 5062, -1286, 719, 893, 906, 690, 891, 371, 154, 188
176939080, 7322, -4697, -12143, -6732, 2224, 703, -4336, -1054, 5062, -1286, 719, 893, 906, 690, 891, 371, 154, 188
176939879, 7322, -4697, -12143, -6732, 2224, 703, -4336, -1054, 5062, -1286, 719, 893, 906, 690, 891, 371, 154, 188
176940726, 7322, -4697, -12143, -6732, 2224, 703, -4336, -1054, 5062, -1286, 719, 893, 906, 690, 891, 371, 154, 188
176941502, 7322, -4697, -12143, -6732, 2224, 703, -4336, -1054, 5062, -1286, 719, 893, 906, 690, 891, 371, 154, 188
176946655, 7322, -4697, -12143, -6732, 2224, 703, -4336, -1054, 5062, -1286, 719, 893, 906, 690, 891, 371, 154, 188
176947590, 7761, -4289, -11739, -7212, 2483, 440, -4276, -1198, 4545, -1242, 719, 893, 906, 690, 891, 371, 154, 188
176948399, 7761, -4289, -11739, -7212, 2483, 440, -4276, -1198, 4545, -1242, 684, 912, 881, 721, 1002, 442, 148, 155
176949181, 7761, -4289, -11739, -7212, 2483, 440, -4276, -1198, 4545, -1242, 684, 912, 881, 721, 1002, 442, 148, 155
176954234, 7761, -4289, -11739, -7212, 2483, 440, -4276, -1198, 4545, -1242, 684, 912, 881, 721, 1002, 442, 148, 155
176955024, 7761, -4289, -11739, -7212, 2483, 440, -4276, -1198, 4545, -1242, 684, 912, 881, 721, 1002, 442, 148, 155
176955868, 7761, -4289, -11739, -7212, 2483, 440, -4276, -1198, 4545, -1242, 684, 912, 881, 721, 1002, 442, 148, 155
176956653, 7761, -4289, -11739, -7212, 2483, 440, -4276, -1198, 4545, -1242, 684, 912, 881, 721, 1002, 442, 148, 155
176961606, 7761, -4289, -11739, -7212, 2483, 440, -4276, -1198, 4545, -1242, 684, 912, 881, 721, 1002, 442, 148, 155
176962397, 7761, -4289, -11739, -7212, 2483, 440, -4276, -1198, 4545, -1242, 684, 912, 881, 721, 1002, 442, 148, 155
176963273, 7761, -4289, -11739, -7212, 2483, 440, -4276, -1198, 4545, -1242, 684, 912, 881, 721, 1002, 442, 148, 155
176964035, 7761, -4289, -11739, -7212, 2483, 440, -4276, -1198, 4545, -1242, 684, 912, 881, 721, 1002, 442, 148, 155
176969105, 7761, -4289, -11739, -7212, 2483, 440, -4276, -1198, 4545, -1242, 684, 912, 881, 721, 1002, 442, 148, 155
176970065, 8127, -3913, -11351, -7632, 2627, 388, -4219, -1105, 4037, -1151, 684, 912, 881, 721, 1002, 442, 148, 155
176970835, 8127, -3913, -11351, -7632, 2627, 388, -4219, -1105, 4037, -1151, 620, 909, 945, 681, 887, 452, 147, 137
176971661, 8127, -3913, -11351, -7632, 2627, 388, -4219, -1105, 4037, -1151, 620, 909, 945, 681, 887, 452, 147, 137
176976692, 8127, -3913, -11351, -7632, 2627, 388, -4219, -1105, 4037, -1151, 620, 909, 945, 681, 887, 452, 147, 137
176977502, 8127, -3913, -11351, -7632, 2627, 388, -4219, -1105, 4037, -1151, 620, 909, 945, 681, 887, 452, 147, 137
176978370, 8127, -3913, -11351, -7632, 2627, 388, -4219, -1105, 4037, -1151, 620, 909, 945, 681, 887, 452, 147, 137
176979130, 8127, -3913, -11351, -7632, 2627, 388, -4219, -1105, 4037, -1151, 620, 909, 945, 681, 887, 452, 147, 137
176984059, 8127, -3913, -11351, -7632, 2627, 388, -4219, -1105, 4037, -1151, 620, 909, 945, 681, 887, 452, 147, 137
176984895, 8127, -3913, -11351, -7632, 2627, 388, -4219, -1105, 4037, -1151, 620, 909, 945, 681, 887, 452, 147, 137
176985728, 8127, -3913, -11351, -7632, 2627, 388, -4219, -1105, 4037, -1151, 620, 909, 945, 681, 887, 452, 147, 137
176986543, 8127, -3913, -11351, -7632, 2627, 388, -4219, -1105, 4037, -1151, 620, 909, 945, 681, 887, 452, 147, 137
176991593, 8127, -3913, -11351, -7632, 2627, 388, -4219, -1105, 4037, -1151, 620, 909, 945, 681, 887, 452, 147, 137
176992559, 8411, -3586, -10995, -7997, 2606, 395, -4060, -1060, 3433, -1064, 620, 909, 945, 681, 887, 452, 147, 137
176993341, 8411, -3586, -10995, -7997, 2606, 395, -4060, -1060, 3433, -1064, 613, 932, 1007, 643, 926, 426, 131, 156
176994181, 8411, -3586, -10995, -7997, 2606, 395, -4060, -1060, 3433, -1064, 613, 932, 1007, 643, 926, 426, 131, 156
176999155, 8411, -3586, -10995, -7997, 2606, 395, -4060, -1060, 3433, -1064, 613, 932, 1007, 643, 926, 426, 131, 156
176999974, 8411, -3586, -10995, -7997, 2606, 395, -4060, -1060, 3433, -1064, 613, 932, 1007, 643, 926, 426, 131, 156
177000766, 8411, -3586, -10995, -7997, 2606, 395, -4060, -1060, 3433, -1064, 613, 932, 1007, 643, 926, 426, 131, 156
177001580, 8411, -3586, -10995, -7997, 2606, 395, -4060, -1060, 3433, -1064, 613, 932, 1007, 643, 926, 426, 131, 156
177006560, 8411, -3586, -10995, -7997, 2606, 395, -4060, -1060, 3433, -1064, 613, 932, 1007, 643, 926, 426, 131, 156
177007390, 8411, -3586, -10995, -7997, 2606, 395, -4060, -1060, 3433, -1064, 613, 932, 1007, 643, 926, 426, 131, 156
177008193, 8411, -3586, -10995, -7997, 2606, 395, -4060, -1060, 3433, -1064, 613, 932, 1007, 643, 926, 426, 131, 156
177009040, 8411, -3586, -10995, -7997, 2606, 395, -4060, -1060, 3433, -1064, 613, 932, 1007, 643, 926, 426, 131, 156
177014132, 8411, -3586, -10995, -7997, 2606, 395, -4060, -1060, 3433, -1064, 613, 932, 1007, 643, 926, 426, 131, 156
177015051, 8618, -3320, -10668, -8327, 2728, 394, -4026, -1115, 2848, -987, 613, 932, 1007, 643, 926, 426, 131, 156
177015909, 8618, -3320, -10668, -8327, 2728, 394, -4026, -1115, 2848, -987, 626, 1035, 1025, 678, 858, 389, 125, 156
177016706, 8618, -3320, -10668, -8327, 2728, 394, -4026, -1115, 2848, -987, 626, 1035, 1025, 678, 858, 389, 125, 156
177021711, 8618, -3320, -10668, -8327, 2728, 394, -4026, -1115, 2848, -987, 626, 1035, 1025, 678, 858, 389, 125, 156
177022501, 8618, -3320, -10668, -8327, 2728, 394, -4026, -1115, 2848, -987, 626, 1035, 1025, 678, 858, 389, 125, 156
177023381, 8618, -3320, -10668, -8327, 2728, 394, -4026, -1115, 2848, -987, 626, 1035, 1025, 678, 858, 389, 125, 156
177024163, 8618, -3320, -10668, -8327, 2728, 394, -4026, -1115, 2848, -987, 626, 1035, 1025, 678, 858, 389, 125, 156
177029105, 8618, -3320, -10668, -8327, 2728, 394, -4026, -1115, 2848, -987, 626, 1035, 1025, 678, 858, 389, 125, 156
177029916, 8618, -3320, -10668, -8327, 2728, 394, -4026, -1115, 2848, -987, 626, 1035, 1025, 678, 858, 389, 125, 156
177030754, 8618, -3320, -10668, -8327, 2728, 394, -4026, -1115, 2848, -987, 626, 1035, 1025, 678, 858, 389, 125, 156
177031550, 8618, -3320, -10668, -8327, 2728, 394, -4026, -1115, 2848, -987, 626, 1035, 1025, 678, 858, 389, 125, 156
177035725, 8618, -3320, -10668, -8327, 2728, 394, -4026, -1115, 2848, -987, 626, 1035, 1025, 678, 858, 389, 125, 156
177036634, 8760, -3121, -10368, -8629, 2781, 336, -3946, -1207, 2312, -870, 626, 1035, 1025, 678, 858, 389, 125, 156
177037491, 8760, -3121, -10368, -8629, 2781, 336, -3946, -1207, 2312, -870, 640, 1112, 966, 583, 845, 352, 125, 167
177044225, 8760, -3121, -10368, -8629, 2781, 336, -3946, -1207, 2312, -870, 640, 1112, 966, 583, 845, 352, 125, 167
177044974, 8760, -3121, -10368, -8629, 2781, 336, -3946, -1207, 2312, -870, 640, 1112, 966, 583, 845, 352, 125, 167
177045819, 8760, -3121, -10368, -8629, 2781, 336, -3946, -1207, 2312, -870, 640, 1112, 966, 583, 845, 352, 125, 167
177046605, 8760, -3121, -10368, -8629, 2781, 336, -3946, -1207, 2312, -870, 640, 1112, 966, 583, 845, 352, 125, 167
177051565, 8760, -3121, -10368, -8629, 2781, 336, -3946, -1207, 2312, -870, 640, 1112, 966, 583, 845, 352, 125, 167
177052371, 8760, -3121, -10368, -8629, 2781, 336, -3946, -1207, 2312, -870, 640, 1112, 966, 583, 845, 352, 125, 167
177053194, 8760, -3121, -10368, -8629, 2781, 336, -3946, -1207, 2312, -870, 640, 1112, 966, 583, 845, 352, 125, 167
177053999, 8760, -3121, -10368, -8629, 2781, 336, -3946, -1207, 2312, -870, 640, 1112, 966, 583, 845, 352, 125, 167
177059067, 8760, -3121, -10368, -8629, 2781, 336, -3946, -1207, 2312, -870, 640, 1112, 966, 583, 845, 352, 125, 167
177059986, 8848, -2993, -10092, -8908, 2750, 272, -3857, -1325, 1809, -737, 640, 1112, 966, 583, 845, 352, 125, 167
177060791, 8848, -2993, -10092, -8908, 2750, 272, -3857, -1325, 1809, -737, 654, 1110, 915, 545, 686, 254, 123, 168
177061606, 8848, -2993, -10092, -8908, 2750, 272, -3857, -1325, 1809, -737, 654, 1110, 915, 545, 686, 254, 123, 168
177066625, 8848, -2993, -10092, -8908, 2750, 272, -3857, -1325, 1809, -737, 654, 1110, 915, 545, 686, 254, 123, 168
177067460, 8848, -2993, -10092, -8908, 2750, 272, -3857, -1325, 1809, -737, 654, 1110, 915, 545, 686, 254, 123, 168
177068340, 8848, -2993, -10092, -8908, 2750, 272, -3857, -1325, 1809, -737, 654, 1110, 915, 545, 686, 254, 123, 168
177069055, 8848, -2993, -10092, -8908, 2750, 272, -3857, -1325, 1809, -737, 654, 1110, 915, 545, 686, 254, 123, 168
177074094, 8848, -2993, -10092, -8908, 2750, 272, -3857, -1325, 1809, -737, 654, 1110, 915, 545, 686, 254, 123, 168
177074965, 8848, -2993, -10092, -8908, 2750, 272, -3857, -1325, 1809, -737, 654, 1110, 915, 545, 686, 254, 123, 168
177075735, 8848, -2993, -10092, -8908, 2750, 272, -3857, -1325, 1809, -737, 654, 1110, 915, 545, 686, 254, 123, 168
177076554, 8848, -2993, -10092, -8908, 2750, 272, -3857, -1325, 1809, -737, 654, 1110, 915, 545, 686, 254, 123, 168
177081607, 8848, -2993, -10092, -8908, 2750, 272, -3857, -1325, 1809, -737, 654, 1110, 915, 545, 686, 254, 123, 168
177082583, 8890, -2930, -9848, -9157, 2743, 290, -3714, -1369, 1330, -590, 654, 1110, 915, 545, 686, 254, 123, 168
177083382, 8890, -2930, -9848, -9157, 2743, 290, -3714, -1369, 1330, -590, 658, 1094, 948, 573, 704, 244, 119, 161
177084163, 8890, -2930, -9848, -9157, 2743, 290, -3714, -1369, 1330, -590, 658, 1094, 948, 573, 704, 244, 119, 161
177089179, 8890, -2930, -9848, -9157, 2743, 290, -3714, -1369, 1330, -590, 658, 1094, 948, 573, 704, 244, 119, 161
177090038, 8890, -2930, -9848, -9157, 2743, 290, -3714, -1369, 1330, -590, 658, 1094, 948, 573, 704, 244, 119, 161
177090838, 8890, -2930, -9848, -9157, 2743, 290, -3714, -1369, 1330, -590, 658, 1094, 948, 573, 704, 244, 119, 161
177091630, 8890, -2930, -9848, -9157, 2743, 290, -3714, -1369, 1330, -590, 658, 1094, 948, 573, 704, 244, 119, 161
177096580, 8890, -2930, -9848, -9157, 2743, 290, -3714, -1369, 1330, -590, 658, 1094, 948, 573, 704, 244, 119, 161
177097438, 8890, -2930, -9848, -9157, 2743, 290, -3714, -1369, 1330, -590, 658, 1094, 948, 573, 704, 244, 119, 161
177098282, 8890, -2930, -9848, -9157, 2743, 290, -3714, -1369, 1330, -590, 658, 1094, 948, 573, 704, 244, 119, 161
177099030, 8890, -2930, -9848, -9157, 2743, 290, -3714, -1369, 1330, -590, 658, 1094, 948, 573, 704, 244, 119, 161
177104101, 8890, -2930, -9848, -9157, 2743, 290, -3714, -1369, 1330, -590, 658, 1094, 948, 573, 704, 244, 119, 161
177105025, 8890, -2946, -9630, -9381, 2699, 277, -3668, -1483, 831, -407, 658, 1094, 948, 573, 704, 244, 119, 161
177105882, 8890, -2946, -9630, -9381, 2699, 277, -3668, -1483, 831, -407, 700, 1048, 978, 653, 641, 242, 117, 143
177106679, 8890, -2946, -9630, -9381, 2699, 277, -3668, -1483, 831, -407, 700, 1048, 978, 653, 641, 242, 117, 143
177111685, 8890, -2946, -9630, -9381, 2699, 277, -3668, -1483, 831, -407, 700, 1048, 978, 653, 641, 242, 117, 143
177112464, 8890, -2946, -9630, -9381, 2699, 277, -3668, -1483, 831, -407, 700, 1048, 978, 653, 641, 242, 117, 143
177113344, 8890, -2946, -9630, -9381, 2699, 277, -3668, -1483, 831, -407, 700, 1048, 978, 653, 641, 242, 117, 143
177114105, 8890, -2946, -9630, -9381, 2699, 277, -3668, -1483, 831, -407, 700, 1048, 978, 653, 641, 242, 117, 143
177119048, 8890, -2946, -9630, -9381, 2699, 277, -3668, -1483, 831, -407, 700, 1048, 978, 653, 641, 242, 117, 143
177119918, 8890, -2946, -9630, -9381, 2699, 277, -3668, -1483, 831, -407, 700, 1048, 978, 653, 641, 242, 117, 143
177120684, 8890, -2946, -9630, -9381, 2699, 277, -3668, -1483, 831, -407, 700, 1048, 978, 653, 641, 242, 117, 143
177121500, 8890, -2946, -9630, -9381, 2699, 277, -3668, -1483, 831, -407, 700, 1048, 978, 653, 641, 242, 117, 143
177126661, 8890, -2946, -9630, -9381, 2699, 277, -3668, -1483, 831, -407, 700, 1048, 978, 653, 641, 242, 117, 143
177127621, 8857, -3025, -9446, -9572, 2714, 338, -3656, -1492, 391, -246, 700, 1048, 978, 653, 641, 242, 117, 143
177128387, 8857, -3025, -9446, -9572, 2714, 338, -3656, -1492, 391, -246, 647, 948, 1014, 600, 601, 228, 116, 142
177129188, 8857, -3025, -9446, -9572, 2714, 338, -3656, -1492, 391, -246, 647, 948, 1014, 600, 601, 228, 116, 142
177134243, 8857, -3025, -9446, -9572, 2714, 338, -3656, -1492, 391, -246, 647, 948, 1014, 600, 601, 228, 116, 142
177135013, 8857, -3025, -9446, -9572, 2714, 338, -3656, -1492, 391, -246, 647, 948, 1014, 600, 601, 228, 116, 142
177135840, 8857, -3025, -9446, -9572, 2714, 338, -3656, -1492, 391, -246, 647, 948, 1014, 600, 601, 228, 116, 142
177136644, 8857, -3025, -9446, -9572, 2714, 338, -3656, -1492, 391, -246, 647, 948, 1014, 600, 601, 228, 116, 142
177141579, 8857, -3025, -9446, -9572, 2714, 338, -3656, -1492, 391, -246, 647, 948, 1014, 600, 601, 228, 116, 142
177142412, 8857, -3025, -9446, -9572, 2714, 338, -3656, -1492, 391, -246, 647, 948, 1014, 600, 601, 228, 116, 142
177143206, 8857, -3025, -9446, -9572, 2714, 338, -3656, -1492, 391, -246, 647, 948, 1014, 600, 601, 228, 116, 142
177144033, 8857, -3025, -9446, -9572, 2714, 338, -3656, -1492, 391, -246, 647, 948, 1014, 600, 601, 228, 116, 142
177149082, 8857, -3025, -9446, -9572, 2714, 338, -3656, -1492, 391, -246, 647, 948, 1014, 600, 601, 228, 116, 142
177150015, 8794, -3174, -9290, -9733, 2728, 400, -3600, -1548, -51, -49, 647, 948, 1014, 600, 601, 228, 116, 142
177150833, 8794, -3174, -9290, -9733, 2728, 400, -3600, -1548, -51, -49, 588, 779, 1021, 600, 702, 230, 119, 128
177151668, 8794, -3174, -9290, -9733, 2728, 400, -3600, -1548, -51, -49, 588, 779, 1021, 600, 702, 230, 119, 128
177156676, 8794, -3174, -9290, -9733, 2728, 400, -3600, -1548, -51, -49, 588, 779, 1021, 600, 702, 230, 119, 128
177157491, 8794, -3174, -9290, -9733, 2728, 400, -3600, -1548, -51, -49, 588, 779, 1021, 600, 702, 230, 119, 128
177158381, 8794, -3174, -9290, -9733, 2728, 400, -3600, -1548, -51, -49, 588, 779, 1021, 600, 702, 230, 119, 128
177159127, 8794, -3174, -9290, -9733, 2728, 400, -3600, -1548, -51, -49, 588, 779, 1021, 600, 702, 230, 119, 128
177164086, 8794, -3174, -9290, -9733, 2728, 400, -3600, -1548, -51, -49, 588, 779, 1021, 600, 702, 230, 119, 128
177164895, 8794, -3174, -9290, -9733, 2728, 400, -3600, -1548, -51, -49, 588, 779, 1021, 600, 702, 230, 119, 128
177165755, 8794, -3174, -9290, -9733, 2728, 400, -3600, -1548, -51, -49, 588, 779, 1021, 600, 702, 230, 119, 128
177166625, 8794, -3174, -9290, -9733, 2728, 400, -3600, -1548, -51, -49, 588, 779, 1021, 600, 702, 230, 119, 128
177171607, 8794, -3174, -9290, -9733, 2728, 400, -3600, -1548, -51, -49, 588, 779, 1021, 600, 702, 230, 119, 128
177172552, 8711, -3407, -9158, -9854, 2721, 369, -3582, -1609, -507, 245, 588, 779, 1021, 600, 702, 230, 119, 128
177173356, 8711, -3407, -9158, -9854, 2721, 369, -3582, -1609, -507, 245, 514, 774, 1057, 586, 728, 223, 116, 123
177174197, 8711, -3407, -9158, -9854, 2721, 369, -3582, -1609, -507, 245, 514, 774, 1057, 586, 728, 223, 116, 123
177179156, 8711, -3407, -9158, -9854, 2721, 369, -3582, -1609, -507, 245, 514, 774, 1057, 586, 728, 223, 116, 123
177179983, 8711, -3407, -9158, -9854, 2721, 369, -3582, -1609, -507, 245, 514, 774, 1057, 586, 728, 223, 116, 123
177180792, 8711, -3407, -9158, -9854, 2721, 369, -3582, -1609, -507, 245, 514, 774, 1057, 586, 728, 223, 116, 123
177181632, 8711, -3407, -9158, -9854, 2721, 369, -3582, -1609, -507, 245, 514, 774, 1057, 586, 728, 223, 116, 123
177186554, 8711, -3407, -9158, -9854, 2721, 369, -3582, -1609, -507, 245, 514, 774, 1057, 586, 728, 223, 116, 123
177187374, 8711, -3407, -9158, -9854, 2721, 369, -3582, -1609, -507, 245, 514, 774, 1057, 586, 728, 223, 116, 123
177188140, 8711, -3407, -9158, -9854, 2721, 369, -3582, -1609, -507, 245, 514, 774, 1057, 586, 728, 223, 116, 123
177188973, 8711, -3407, -9158, -9854, 2721, 369, -3582, -1609, -507, 245, 514, 774, 1057, 586, 728, 223, 116, 123
177194077, 8711, -3407, -9158, -9854, 2721, 369, -3582, -1609, -507, 245, 514, 774, 1057, 586, 728, 223, 116, 123
177195027, 8612, -3690, -9074, -9917, 2748, 264, -3619, -1440, -944, 460, 514, 774, 1057, 586, 728, 223, 116, 123
177195843, 8612, -3690, -9074, -9917, 2748, 264, -3619, -1440, -944, 460, 529, 791, 1057, 562, 771, 221, 108, 126
177196683, 8612, -3690, -9074, -9917, 2748, 264, -3619, -1440, -944, 460, 529, 791, 1057, 562, 771, 221, 108, 126
177201689, 8612, -3690, -9074, -9917, 2748, 264, -3619, -1440, -944, 460, 529, 791, 1057, 562, 771, 221, 108, 126
177202502, 8612, -3690, -9074, -9917, 2748, 264, -3619, -1440, -944, 460, 529, 791, 1057, 562, 771, 221, 108, 126
177203367, 8612, -3690, -9074, -9917, 2748, 264, -3619, -1440, -944, 460, 529, 791, 1057, 562, 771, 221, 108, 126
177204124, 8612, -3690, -9074, -9917, 2748, 264, -3619, -1440, -944, 460, 529, 791, 1057, 562, 771, 221, 108, 126
177209078, 8612, -3690, -9074, -9917, 2748, 264, -3619, -1440, -944, 460, 529, 791, 1057, 562, 771, 221, 108, 126
177209936, 8612, -3690, -9074, -9917, 2748, 264, -3619, -1440, -944, 460, 529, 791, 1057, 562, 771, 221, 108, 126
177210722, 8612, -3690, -9074, -9917, 2748, 264, -3619, -1440, -944, 460, 529, 791, 1057, 562, 771, 221, 108, 126
177211554, 8612, -3690, -9074, -9917, 2748, 264, -3619, -1440, -944, 460, 529, 791, 1057, 562, 771, 221, 108, 126
177216589, 8612, -3690, -9074, -9917, 2748, 264, -3619, -1440, -944, 460, 529, 791, 1057, 562, 771, 221, 108, 126
177217528, 8494, -3997, -9048, -9922, 2724, 349, -3667, -1155, -1323, 573, 529, 791, 1057, 562, 771, 221, 108, 126
177218366, 8494, -3997, -9048, -9922, 2724, 349, -3667, -1155, -1323, 573, 538, 800, 1068, 502, 811, 224, 94, 122
177219154, 8494, -3997, -9048, -9922, 2724, 349, -3667, -1155, -1323, 573, 538, 800, 1068, 502, 811, 224, 94, 122
177224166, 8494, -3997, -9048, -9922, 2724, 349, -3667, -1155, -1323, 573, 538, 800, 1068, 502, 811, 224, 94, 122
177225012, 8494, -3997, -9048, -9922, 2724, 349, -3667, -1155, -1323, 573, 538, 800, 1068, 502, 811, 224, 94, 122
177225791, 8494, -3997, -9048, -9922, 2724, 349, -3667, -1155, -1323, 573, 538, 800, 1068, 502, 811, 224, 94, 122
177226647, 8494, -3997, -9048, -9922, 2724, 349, -3667, -1155, -1323, 573, 538, 800, 1068, 502, 811, 224, 94, 122
177231567, 8494, -3997, -9048, -9922, 2724, 349, -3667, -1155, -1323, 573, 538, 800, 1068, 502, 811, 224, 94, 122
177232398, 8494, -3997, -9048, -9922, 2724, 349, -3667, -1155, -1323, 573, 538, 800, 1068, 502, 811, 224, 94, 122
177233182, 8494, -3997, -9048, -9922, 2724, 349, -3667, -1155, -1323, 573, 538, 800, 1068, 502, 811, 224, 94, 122
177234012, 8494, -3997, -9048, -9922, 2724, 349, -3667, -1155, -1323, 573, 538, 800, 1068, 502, 811, 224, 94, 122
177239076, 8494, -3997, -9048, -9922, 2724, 349, -3667, -1155, -1323, 573, 538, 800, 1068, 502, 811, 224, 94, 122
177240051, 8361, -4341, -9066, -9874, 2700, 499, -3767, -972, -1696, 721, 538, 800, 1068, 502, 811, 224, 94, 122
177240839, 8361, -4341, -9066, -9874, 2700, 499, -3767, -972, -1696, 721, 532, 761, 1006, 540, 788, 221, 94, 123
177241660, 8361, -4341, -9066, -9874, 2700, 499, -3767, -972, -1696, 721, 532, 761, 1006, 540, 788, 221, 94, 123
177246630, 8361, -4341, -9066, -9874, 2700, 499, -3767, -972, -1696, 721, 532, 761, 1006, 540, 788, 221, 94, 123
177247482, 8361, -4341, -9066, -9874, 2700, 499, -3767, -972, -1696, 721, 532, 761, 1006, 540, 788, 221, 94, 123
177248332, 8361, -4341, -9066, -9874, 2700, 499, -3767, -972, -1696, 721, 532, 761, 1006, 540, 788, 221, 94, 123
177249068, 8361, -4341, -9066, -9874, 2700, 499, -3767, -972, -1696, 721, 532, 761, 1006, 540, 788, 221, 94, 123
177254108, 8361, -4341, -9066, -9874, 2700, 499, -3767, -972, -1696, 721, 532, 761, 1006, 540, 788, 221, 94, 123
177254947, 8361, -4341, -9066, -9874, 2700, 499, -3767, -972, -1696, 721, 532, 761, 1006, 540, 788, 221, 94, 123
177255723, 8361, -4341, -9066, -9874, 2700, 499, -3767, -972, -1696, 721, 532, 761, 1006, 540, 788, 221, 94, 123
177256525, 8361, -4341, -9066, -9874, 2700, 499, -3767, -972, -1696, 721, 532, 761, 1006, 540, 788, 221, 94, 123
177261632, 8361, -4341, -9066, -9874, 2700, 499, -3767, -972, -1696, 721, 532, 761, 1006, 540, 788, 221, 94, 123
177262542, 8203, -4747, -9097, -9791, 2540, 507, -3751, -1031, -2066, 917, 532, 761, 1006, 540, 788, 221, 94, 123
177263359, 8203, -4747, -9097, -9791, 2540, 507, -3751, -1031, -2066, 917, 545, 752, 1063, 601, 705, 210, 94, 138
177264140, 8203, -4747, -9097, -9791, 2540, 507, -3751, -1031, -2066, 917, 545, 752, 1063, 601, 705, 210, 94, 138
177269155, 8203, -4747, -9097, -9791, 2540, 507, -3751, -1031, -2066, 917, 545, 752, 1063, 601, 705, 210, 94, 138
177269973, 8203, -4747, -9097, -9791, 2540, 507, -3751, -1031, -2066, 917, 545, 752, 1063, 601, 705, 210, 94, 138
177270792, 8203, -4747, -9097, -9791, 2540, 507, -3751, -1031, -2066, 917, 545, 752, 1063, 601, 705, 210, 94, 138
177271596, 8203, -4747, -9097, -9791, 2540, 507, -3751, -1031, -2066, 917, 545, 752, 1063, 601, 705, 210, 94, 138
177276603, 8203, -4747, -9097, -9791, 2540, 507, -3751, -1031, -2066, 917, 545, 752, 1063, 601, 705, 210, 94, 138
177277437, 8203, -4747, -9097, -9791, 2540, 507, -3751, -1031, -2066, 917, 545, 752, 1063, 601, 705, 210, 94, 138
177278201, 8203, -4747, -9097, -9791, 2540, 507, -3751, -1031, -2066, 917, 545, 752, 1063, 601, 705, 210, 94, 138
177279023, 8203, -4747, -9097, -9791, 2540, 507, -3751, -1031, -2066, 917, 545, 752, 1063, 601, 705, 210, 94, 138
177284115, 8203, -4747, -9097, -9791, 2540, 507, -3751, -1031, -2066, 917, 545, 752, 1063, 601, 705, 210, 94, 138
177285027, 8032, -5206, -9142, -9657, 2319, 449, -3777, -998, -2417, 1158, 545, 752, 1063, 601, 705, 210, 94, 138
177285871, 8032, -5206, -9142, -9657, 2319, 449, -3777, -998, -2417, 1158, 552, 723, 1104, 594, 676, 254, 131, 152
177286658, 8032, -5206, -9142, -9657, 2319, 449, -3777, -998, -2417, 1158, 552, 723, 1104, 594, 676, 254, 131, 152
177291677, 8032, -5206, -9142, -9657, 2319, 449, -3777, -998, -2417, 1158, 552, 723, 1104, 594, 676, 254, 131, 152
177292459, 8032, -5206, -9142, -9657, 2319, 449, -3777, -998, -2417, 1158, 552, 723, 1104, 594, 676, 254, 131, 152
177293316, 8032, -5206, -9142, -9657, 2319, 449, -3777, -998, -2417, 1158, 552, 723, 1104, 594, 676, 254, 131, 152
177294078, 8032, -5206, -9142, -9657, 2319, 449, -3777, -998, -2417, 1158, 552, 723, 1104, 594, 676, 254, 131, 152
177299050, 8032, -5206, -9142, -9657, 2319, 449, -3777, -998, -2417, 1158, 552, 723, 1104, 594, 676, 254, 131, 152
177299841, 8032, -5206, -9142, -9657, 2319, 449, -3777, -998, -2417, 1158, 552, 723, 1104, 594, 676, 254, 131, 152
177300680, 8032, -5206, -9142, -9657, 2319, 449, -3777, -998, -2417, 1158, 552, 723, 1104, 594, 676, 254, 131, 152
177301494, 8032, -5206, -9142, -9657, 2319, 449, -3777, -998, -2417, 1158, 552, 723, 1104, 594, 676, 254, 131, 152
177306626, 8032, -5206, -9142, -9657, 2319, 449, -3777, -998, -2417, 1158, 552, 723, 1104, 594, 676, 254, 131, 152
177307565, 7853, -5690, -9219, -9456, 2040, 480, -3699, -763, -2720, 1335, 552, 723, 1104, 594, 676, 254, 131, 152
177308373, 7853, -5690, -9219, -9456, 2040, 480, -3699, -763, -2720, 1335, 651, 733, 1039, 582, 610, 240, 145, 278
177309209, 7853, -5690, -9219, -9456, 2040, 480, -3699, -763, -2720, 1335, 651, 733, 1039, 582, 610, 240, 145, 278
177314200, 7853, -5690, -9219, -9456, 2040, 480, -3699, -763, -2720, 1335, 651, 733, 1039, 582, 610, 240, 145, 278
177314975, 7853, -5690, -9219, -9456, 2040, 480, -3699, -763, -2720, 1335, 651, 733, 1039, 582, 610, 240, 145, 278
177315801, 7853, -5690, -9219, -9456, 2040, 480, -3699, -763, -2720, 1335, 651, 733, 1039, 582, 610, 240, 145, 278
177316606, 7853, -5690, -9219, -9456, 2040, 480, -3699, -763, -2720, 1335, 651, 733, 1039, 582, 610, 240, 145, 278
177321554, 7853, -5690, -9219, -9456, 2040, 480, -3699, -763, -2720, 1335, 651, 733, 1039, 582, 610, 240, 145, 278
177322378, 7853, -5690, -9219, -9456, 2040, 480, -3699, -763, -2720, 1335, 651, 733, 1039, 582, 610, 240, 145, 278
177323181, 7853, -5690, -9219, -9456, 2040, 480, -3699, -763, -2720, 1335, 651, 733, 1039, 582, 610, 240, 145, 278
177324009, 7853, -5690, -9219, -9456, 2040, 480, -3699, -763, -2720, 1335, 651, 733, 1039, 582, 610, 240, 145, 278
177329103, 7853, -5690, -9219, -9456, 2040, 480, -3699, -763, -2720, 1335, 651, 733, 1039, 582, 610, 240, 145, 278
177330139, 7668, -6166, -9331, -9196, 1670, 670, -3609, -457, -2929, 1379, 651, 733, 1039, 582, 610, 240, 145, 278
177330844, 7668, -6166, -9331, -9196, 1670, 670, -3609, -457, -2929, 1379, 597, 776, 1016, 584, 620, 319, 159, 293
177331699, 7668, -6166, -9331, -9196, 1670, 670, -3609, -457, -2929, 1379, 597, 776, 1016, 584, 620, 319, 159, 293
177336684, 7668, -6166, -9331, -9196, 1670, 670, -3609, -457, -2929, 1379, 597, 776, 1016, 584, 620, 319, 159, 293
177337518, 7668, -6166, -9331, -9196, 1670, 670, -3609, -457, -2929, 1379, 597, 776, 1016, 584, 620, 319, 159, 293
177338362, 7668, -6166, -9331, -9196, 1670, 670, -3609, -457, -2929, 1379, 597, 776, 1016, 584, 620, 319, 159, 293
177339172, 7668, -6166, -9331, -9196, 1670, 670, -3609, -457, -2929, 1379, 597, 776, 1016, 584, 620, 319, 159, 293
177344062, 7668, -6166, -9331, -9196, 1670, 670, -3609, -457, -2929, 1379, 597, 776, 1016, 584, 620, 319, 159, 293
177344910, 7668, -6166, -9331, -9196, 1670, 670, -3609, -457, -2929, 1379, 597, 776, 1016, 584, 620, 319, 159, 293
177345707, 7668, -6166, -9331, -9196, 1670, 670, -3609, -457, -2929, 1379, 597, 776, 1016, 584, 620, 319, 159, 293
177346543, 7668, -6166, -9331, -9196, 1670, 670, -3609, -457, -2929, 1379, 597, 776, 1016, 584, 620, 319, 159, 293
177351567, 7668, -6166, -9331, -9196, 1670, 670, -3609, -457, -2929, 1379, 597, 776, 1016, 584, 620, 319, 159, 293
177352545, 7503, -6633, -9424, -8908, 1367, 907, -3236, -362, -2846, 1532, 597, 776, 1016, 584, 620, 319, 159, 293
177353363, 7503, -6633, -9424, -8908, 1367, 907, -3236, -362, -2846, 1532, 684, 879, 1111, 610, 670, 325, 164, 331
177354159, 7503, -6633, -9424, -8908, 1367, 907, -3236, -362, -2846, 1532, 684, 879, 1111, 610, 670, 325, 164, 331
177359167, 7503, -6633, -9424, -8908, 1367, 907, -3236, -362, -2846, 1532, 684, 879, 1111, 610, 670, 325, 164, 331
177360033, 7503, -6633, -9424, -8908, 1367, 907, -3236, -362, -2846, 1532, 684, 879, 1111, 610, 670, 325, 164, 331
177360778, 7503, -6633, -9424, -8908, 1367, 907, -3236, -362, -2846, 1532, 684, 879, 1111, 610, 670, 325, 164, 331
177361608, 7503, -6633, -9424, -8908, 1367, 907, -3236, -362, -2846, 1532, 684, 879, 1111, 610, 670, 325, 164, 331
177366529, 7503, -6633, -9424, -8908, 1367, 907, -3236, -362, -2846, 1532, 684, 879, 1111, 610, 670, 325, 164, 331
177367407, 7503, -6633, -9424, -8908, 1367, 907, -3236, -362, -2846, 1532, 684, 879, 1111, 610, 670, 325, 164, 331
177368167, 7503, -6633, -9424, -8908, 1367, 907, -3236, -362, -2846, 1532, 684, 879, 1111, 610, 670, 325, 164, 331
177368995, 7503, -6633, -9424, -8908, 1367, 907, -3236, -362, -2846, 1532, 684, 879, 1111, 610, 670, 325, 164, 331
177374114, 7503, -6633, -9424, -8908, 1367, 907, -3236, -362, -2846, 1532, 684, 879, 1111, 610, 670, 325, 164, 331
177375068, 7327, -7072, -9526, -8603, 1280, 1117, -2769, -321, -2504, 1531, 684, 879, 1111, 610, 670, 325, 164, 331
177375865, 7327, -7072, -9526, -8603, 1280, 1117, -2769, -321, -2504, 1531, 683, 897, 1089, 599, 782, 335, 163, 362
177376684, 7327, -7072, -9526, -8603, 1280, 1117, -2769, -321, -2504, 1531, 683, 897, 1089, 599, 782, 335, 163, 362
177381711, 7327, -7072, -9526, -8603, 1280, 1117, -2769, -321, -2504, 1531, 683, 897, 1089, 599, 782, 335, 163, 362
177382513, 7327, -7072, -9526, -8603, 1280, 1117, -2769, -321, -2504, 1531, 683, 897, 1089, 599, 782, 335, 163, 362
177383340, 7327, -7072, -9526, -8603, 1280, 1117, -2769, -321, -2504, 1531, 683, 897, 1089, 599, 782, 335, 163, 362
177384164, 7327, -7072, -9526, -8603, 1280, 1117, -2769, -321, -2504, 1531, 683, 897, 1089, 599, 782, 335, 163, 362
177389098, 7327, -7072, -9526, -8603, 1280, 1117, -2769, -321, -2504, 1531, 683, 897, 1089, 599, 782, 335, 163, 362
177389906, 7327, -7072, -9526, -8603, 1280, 1117, -2769, -321, -2504, 1531, 683, 897, 1089, 599, 782, 335, 163, 362
177390713, 7327, -7072, -9526, -8603, 1280, 1117, -2769, -321, -2504, 1531, 683, 897, 1089, 599, 782, 335, 163, 362
177391554, 7327, -7072, -9526, -8603, 1280, 1117, -2769, -321, -2504, 1531, 683, 897, 1089, 599, 782, 335, 163, 362
177396574, 7327, -7072, -9526, -8603, 1280, 1117, -2769, -321, -2504, 1531, 683, 897, 1089, 599, 782, 335, 163, 362
177397533, 7178, -7414, -9584, -8373, 1522, 1278, -2638, -360, -1859, 1237, 683, 897, 1089, 599, 782, 335, 163, 362
177398343, 7178, -7414, -9584, -8373, 1522, 1278, -2638, -360, -1859, 1237, 665, 892, 1128, 632, 829, 370, 157, 361
177399157, 7178, -7414, -9584, -8373, 1522, 1278, -2638, -360, -1859, 1237, 665, 892, 1128, 632, 829, 370, 157, 361
177404166, 7178, -7414, -9584, -8373, 1522, 1278, -2638, -360, -1859, 1237, 665, 892, 1128, 632, 829, 370, 157, 361
177405002, 7178, -7414, -9584, -8373, 1522, 1278, -2638, -360, -1859, 1237, 665, 892, 1128, 632, 829, 370, 157, 361
177405791, 7178, -7414, -9584, -8373, 1522, 1278, -2638, -360, -1859, 1237, 665, 892, 1128, 632, 829, 370, 157, 361
177406632, 7178, -7414, -9584, -8373, 1522, 1278, -2638, -360, -1859, 1237, 665, 892, 1128, 632, 829, 370, 157, 361
177411574, 7178, -7414, -9584, -8373, 1522, 1278, -2638, -360, -1859, 1237, 665, 892, 1128, 632, 829, 370, 157, 361
177412396, 7178, -7414, -9584, -8373, 1522, 1278, -2638, -360, -1859, 1237, 665, 892, 1128, 632, 829, 370, 157, 361
177413194, 7178, -7414, -9584, -8373, 1522, 1278, -2638, -360, -1859, 1237, 665, 892, 1128, 632, 829, 370, 157, 361
177413997, 7178, -7414, -9584, -8373, 1522, 1278, -2638, -360, -1859, 1237, 665, 892, 1128, 632, 829, 370, 157, 361
177419118, 7178, -7414, -9584, -8373, 1522, 1278, -2638, -360, -1859, 1237, 665, 892, 1128, 632, 829, 370, 157, 361
177420011, 6929, -7661, -9764, -8149, 2085, 1549, -2919, -201, -1134, 789, 665, 892, 1128, 632, 829, 370, 157, 361
177420844, 6929, -7661, -9764, -8149, 2085, 1549, -2919, -201, -1134, 789, 587, 896, 1128, 624, 941, 393, 148, 290
177421631, 6929, -7661, -9764, -8149, 2085, 1549, -2919, -201, -1134, 789, 587, 896, 1128, 624, 941, 393, 148, 290
177426630, 6929, -7661, -9764, -8149, 2085, 1549, -2919, -201, -1134, 789, 587, 896, 1128, 624, 941, 393, 148, 290
177427503, 6929, -7661, -9764, -8149, 2085, 1549, -2919, -201, -1134, 789, 587, 896, 1128, 624, 941, 393, 148, 290
177428353, 6929, -7661, -9764, -8149, 2085, 1549, -2919, -201, -1134, 789, 587, 896, 1128, 624, 941, 393, 148, 290
177429065, 6929, -7661, -9764, -8149, 2085, 1549, -2919, -201, -1134, 789, 587, 896, 1128, 624, 941, 393, 148, 290
177434025, 6929, -7661, -9764, -8149, 2085, 1549, -2919, -201, -1134, 789, 587, 896, 1128, 624, 941, 393, 148, 290
177434869, 6929, -7661, -9764, -8149, 2085, 1549, -2919, -201, -1134, 789, 587, 896, 1128, 624, 941, 393, 148, 290
177435672, 6929, -7661, -9764, -8149, 2085, 1549, -2919, -201, -1134, 789, 587, 896, 1128, 624, 941, 393, 148, 290
177436516, 6929, -7661, -9764, -8149, 2085, 1549, -2919, -201, -1134, 789, 587, 896, 1128, 624, 941, 393, 148, 290
177441606, 6929, -7661, -9764, -8149, 2085, 1549, -2919, -201, -1134, 789, 587, 896, 1128, 624, 941, 393, 148, 290
177442598, 6906, -7744, -9778, -8073, 2430, 1727, -3070, 37, -538, 355, 587, 896, 1128, 624, 941, 393, 148, 290
177443383, 6906, -7744, -9778, -8073, 2430, 1727, -3070, 37, -538, 355, 654, 829, 1099, 700, 925, 419, 158, 344
177444193, 6906, -7744, -9778, -8073, 2430, 1727, -3070, 37, -538, 355, 654, 829, 1099, 700, 925, 419, 158, 344
177449180, 6906, -7744, -9778, -8073, 2430, 1727, -3070, 37, -538, 355, 654, 829, 1099, 700, 925, 419, 158, 344
177450026, 6906, -7744, -9778, -8073, 2430, 1727, -3070, 37, -538, 355, 654, 829, 1099, 700, 925, 419, 158, 344
177450816, 6906, -7744, -9778, -8073, 2430, 1727, -3070, 37, -538, 355, 654, 829, 1099, 700, 925, 419, 158, 344
177451647, 6906, -7744, -9778, -8073, 2430, 1727, -3070, 37, -538, 355, 654, 829, 1099, 700, 925, 419, 158, 344
177456604, 6906, -7744, -9778, -8073, 2430, 1727, -3070, 37, -538, 355, 654, 829, 1099, 700, 925, 419, 158, 344
177457398, 6906, -7744, -9778, -8073, 2430, 1727, -3070, 37, -538, 355, 654, 829, 1099, 700, 925, 419, 158, 344
177458248, 6906, -7744, -9778, -8073, 2430, 1727, -3070, 37, -538, 355, 654, 829, 1099, 700, 925, 419, 158, 344
177459047, 6906, -7744, -9778, -8073, 2430, 1727, -3070, 37, -538, 355, 654, 829, 1099, 700, 925, 419, 158, 344
177464129, 6906, -7744, -9778, -8073, 2430, 1727, -3070, 37, -538, 355, 654, 829, 1099, 700, 925, 419, 158, 344
177465050, 6863, -7780, -9761, -8095, 2259, 1611, -3181, -322, -148, -8, 654, 829, 1099, 700, 925, 419, 158, 344
177465847, 6863, -7780, -9761, -8095, 2259, 1611, -3181, -322, -148, -8, 551, 766, 1102, 672, 902, 442, 190, 347
177466684, 6863, -7780, -9761, -8095, 2259, 1611, -3181, -322, -148, -8, 551, 766, 1102, 672, 902, 442, 190, 347
177471645, 6863, -7780, -9761, -8095, 2259, 1611, -3181, -322, -148, -8, 551, 766, 1102, 672, 902, 442, 190, 347
177472478, 6863, -7780, -9761, -8095, 2259, 1611, -3181, -322, -148, -8, 551, 766, 1102, 672, 902, 442, 190, 347
177473329, 6863, -7780, -9761, -8095, 2259, 1611, -3181, -322, -148, -8, 551, 766, 1102, 672, 902, 442, 190, 347
177474103, 6863, -7780, -9761, -8095, 2259, 1611, -3181, -322, -148, -8, 551, 766, 1102, 672, 902, 442, 190, 347
177479078, 6863, -7780, -9761, -8095, 2259, 1611, -3181, -322, -148, -8, 551, 766, 1102, 672, 902, 442, 190, 347
177479873, 6863, -7780, -9761, -8095, 2259, 1611, -3181, -322, -148, -8, 551, 766, 1102, 672, 902, 442, 190, 347
177480713, 6863, -7780, -9761, -8095, 2259, 1611, -3181, -322, -148, -8, 551, 766, 1102, 672, 902, 442, 190, 347
177481515, 6863, -7780, -9761, -8095, 2259, 1611, -3181, -322, -148, -8, 551, 766, 1102, 672, 902, 442, 190, 347
177486565, 6863, -7780, -9761, -8095, 2259, 1611, -3181, -322, -148, -8, 551, 766, 1102, 672, 902, 442, 190, 347
177487493, 6796, -7799, -9719, -8184, 2169, 1277, -3345, -636, 58, -218, 551, 766, 1102, 672, 902, 442, 190, 347
177488347, 6796, -7799, -9719, -8184, 2169, 1277, -3345, -636, 58, -218, 524, 718, 1078, 717, 830, 458, 194, 322
177489128, 6796, -7799, -9719, -8184, 2169, 1277, -3345, -636, 58, -218, 524, 718, 1078, 717, 830, 458, 194, 322
177494150, 6796, -7799, -9719, -8184, 2169, 1277, -3345, -636, 58, -218, 524, 718, 1078, 717, 830, 458, 194, 322
177494946, 6796, -7799, -9719, -8184, 2169, 1277, -3345, -636, 58, -218, 524, 718, 1078, 717, 830, 458, 194, 322
177495790, 6796, -7799, -9719, -8184, 2169, 1277, -3345, -636, 58, -218, 524, 718, 1078, 717, 830, 458, 194, 322
177496601, 6796, -7799, -9719, -8184, 2169, 1277, -3345, -636, 58, -218, 524, 718, 1078, 717, 830, 458, 194, 322
177501622, 6796, -7799, -9719, -8184, 2169, 1277, -3345, -636, 58, -218, 524, 718, 1078, 717, 830, 458, 194, 322
177502414, 6796, -7799, -9719, -8184, 2169, 1277, -3345, -636, 58, -218, 524, 718, 1078, 717, 830, 458, 194, 322
177503230, 6796, -7799, -9719, -8184, 2169, 1277, -3345, -636, 58, -218, 524, 718, 1078, 717, 830, 458, 194, 322
177504076, 6796, -7799, -9719, -8184, 2169, 1277, -3345, -636, 58, -218, 524, 718, 1078, 717, 830, 458, 194, 322
177509129, 6796, -7799, -9719, -8184, 2169, 1277, -3345, -636, 58, -218, 524, 718, 1078, 717, 830, 458, 194, 322
177510028, 6760, -7779, -9695, -8262, 2235, 1142, -3482, -373, 203, -285, 524, 718, 1078, 717, 830, 458, 194, 322
177510884, 6760, -7779, -9695, -8262, 2235, 1142, -3482, -373, 203, -285, 596, 805, 951, 759, 803, 415, 183, 338
177511692, 6760, -7779, -9695, -8262, 2235, 1142, -3482, -373, 203, -285, 596, 805, 951, 759, 803, 415, 183, 338
177516675, 6760, -7779, -9695, -8262, 2235, 1142, -3482, -373, 203, -285, 596, 805, 951, 759, 803, 415, 183, 338
177517460, 6760, -7779, -9695, -8262, 2235, 1142, -3482, -373, 203, -285, 596, 805, 951, 759, 803, 415, 183, 338
177518316, 6760, -7779, -9695, -8262, 2235, 1142, -3482, -373, 203, -285, 596, 805, 951, 759, 803, 415, 183, 338
177519077, 6760, -7779, -9695, -8262, 2235, 1142, -3482, -373, 203, -285, 596, 805, 951, 759, 803, 415, 183, 338
177524054, 6760, -7779, -9695, -8262, 2235, 1142, -3482, -373, 203, -285, 596, 805, 951, 759, 803, 415, 183, 338
177524866, 6760, -7779, -9695, -8262, 2235, 1142, -3482, -373, 203, -285, 596, 805, 951, 759, 803, 415, 183, 338
177525682, 6760, -7779, -9695, -8262, 2235, 1142, -3482, -373, 203, -285, 596, 805, 951, 759, 803, 415, 183, 338
177526541, 6760, -7779, -9695, -8262, 2235, 1142, -3482, -373, 203, -285, 596, 805, 951, 759, 803, 415, 183, 338
177531589, 6760, -7779, -9695, -8262, 2235, 1142, -3482, -373, 203, -285, 596, 805, 951, 759, 803, 415, 183, 338
177532515, 6741, -7743, -9691, -8316, 2160, 1190, -3608, -157, 190, -285, 596, 805, 951, 759, 803, 415, 183, 338
177533341, 6741, -7743, -9691, -8316, 2160, 1190, -3608, -157, 190, -285, 539, 798, 977, 772, 686, 424, 182, 338
177534150, 6741, -7743, -9691, -8316, 2160, 1190, -3608, -157, 190, -285, 539, 798, 977, 772, 686, 424, 182, 338
177539154, 6741, -7743, -9691, -8316, 2160, 1190, -3608, -157, 190, -285, 539, 798, 977, 772, 686, 424, 182, 338
177539967, 6741, -7743, -9691, -8316, 2160, 1190, -3608, -157, 190, -285, 539, 798, 977, 772, 686, 424, 182, 338
177540762, 6741, -7743, -9691, -8316, 2160, 1190, -3608, -157, 190, -285, 539, 798, 977, 772, 686, 424, 182, 338
177541619, 6741, -7743, -9691, -8316, 2160, 1190, -3608, -157, 190, -285, 539, 798, 977, 772, 686, 424, 182, 338
177546550, 6741, -7743, -9691, -8316, 2160, 1190, -3608, -157, 190, -285, 539, 798, 977, 772, 686, 424, 182, 338
177547410, 6741, -7743, -9691, -8316, 2160, 1190, -3608, -157, 190, -285, 539, 798, 977, 772, 686, 424, 182, 338
177548166, 6741, -7743, -9691, -8316, 2160, 1190, -3608, -157, 190, -285, 539, 798, 977, 772, 686, 424, 182, 338
177549013, 6741, -7743, -9691, -8316, 2160, 1190, -3608, -157, 190, -285, 539, 798, 977, 772, 686, 424, 182, 338
177553225, 6741, -7743, -9691, -8316, 2160, 1190, -3608, -157, 190, -285, 539, 798, 977, 772, 686, 424, 182, 338
