Timestamp, Orientation x, Orientation y, Orientation z, Orientation w, Acceleration x, Acceleration y, Acceleration z, Rotation x, Rotation y, Rotation z, EMG 0, EMG 1, EMG 2, EMG 3, EMG 4, EMG 5, EMG 6, EMG 7
319207861, 205, 2202, 15728, 4021, 83, 822, -1484, 30, -7, -4, 0, 0, 0, 0, 0, 0, 0, 0
319231036, 204, 2201, 15728, 4018, 85, 838, -1487, 33, -7, -10, 0, 0, 0, 0, 0, 0, 0, 0
319231847, 205, 2200, 15728, 4019, 70, 836, -1472, 1, -4, -13, 0, 0, 0, 0, 0, 0, 0, 0
319252876, 205, 2200, 15728, 4020, 59, 832, -1453, -13, -1, -6, 0, 0, 0, 0, 0, 0, 0, 0
319275315, 205, 2200, 15728, 4020, 60, 785, -1465, 2, -3, 3, 0, 0, 0, 0, 0, 0, 0, 0
319283525, 205, 2200, 15728, 4020, 60, 785, -1465, 2, -3, 3, 25, 27, 24, 29, 26, 22, 22, 22
319284331, 205, 2200, 15728, 4020, 60, 785, -1465, 2, -3, 3, 25, 27, 24, 29, 26, 22, 22, 22
319290476, 208, 2205, 15731, 4004, 66, 761, -1466, 72, -32, 15, 25, 27, 24, 29, 26, 22, 22, 22
319298505, 208, 2205, 15731, 4004, 66, 761, -1466, 72, -32, 15, 25, 27, 26, 31, 27, 24, 20, 22
319299349, 208, 2205, 15731, 4004, 66, 761, -1466, 72, -32, 15, 25, 27, 26, 31, 27, 24, 20, 22
319312861, 214, 2214, 15737, 3975, 58, 764, -1462, 153, -62, 38, 25, 27, 26, 31, 27, 24, 20, 22
319321006, 214, 2214, 15737, 3975, 58, 764, -1462, 153, -62, 38, 26, 35, 25, 34, 26, 22, 23, 21
319321830, 214, 2214, 15737, 3975, 58, 764, -1462, 153, -62, 38, 26, 35, 25, 34, 26, 22, 23, 21
319335390, 221, 2228, 15745, 3936, 60, 811, -1458, 236, -84, 58, 26, 35, 25, 34, 26, 22, 23, 21
319343514, 221, 2228, 15745, 3936, 60, 811, -1458, 236, -84, 58, 25, 36, 26, 37, 25, 23, 24, 22
319344284, 221, 2228, 15745, 3936, 60, 811, -1458, 236, -84, 58, 25, 36, 26, 37, 25, 23, 24, 22
319350476, 231, 2245, 15752, 3899, 65, 841, -1438, 245, -109, 69, 25, 36, 26, 37, 25, 23, 24, 22
319358483, 231, 2245, 15752, 3899, 65, 841, -1438, 245, -109, 69, 28, 54, 45, 92, 34, 22, 21, 22
319359350, 231, 2245, 15752, 3899, 65, 841, -1438, 245, -109, 69, 28, 54, 45, 92, 34, 22, 21, 22
319373427, 268, 2268, 15761, 3844, 35, 871, -1425, 351, -260, 68, 28, 54, 45, 92, 34, 22, 21, 22
319381026, 268, 2268, 15761, 3844, 35, 871, -1425, 351, -260, 68, 31, 67, 67, 107, 48, 25, 24, 25
319381826, 268, 2268, 15761, 3844, 35, 871, -1425, 351, -260, 68, 31, 67, 67, 107, 48, 25, 24, 25
319395311, 321, 2289, 15775, 3772, 60, 747, -1429, 381, -379, 25, 31, 67, 67, 107, 48, 25, 24, 25
319403511, 321, 2289, 15775, 3772, 60, 747, -1429, 381, -379, 25, 33, 79, 73, 133, 52, 27, 27, 25
319404308, 321, 2289, 15775, 3772, 60, 747, -1429, 381, -379, 25, 33, 79, 73, 133, 52, 27, 27, 25
319410477, 361, 2284, 15790, 3707, 84, 696, -1398, 342, -283, -114, 33, 79, 73, 133, 52, 27, 27, 25
319418512, 361, 2284, 15790, 3707, 84, 696, -1398, 342, -283, -114, 51, 138, 118, 270, 71, 29, 27, 27
319419319, 361, 2284, 15790, 3707, 84, 696, -1398, 342, -283, -114, 51, 138, 118, 270, 71, 29, 27, 27
319432862, 427, 2266, 15811, 3620, 15, 713, -1386, 466, -398, -206, 51, 138, 118, 270, 71, 29, 27, 27
319441027, 427, 2266, 15811, 3620, 15, 713, -1386, 466, -398, -206, 61, 182, 227, 314, 81, 29, 30, 33
319441798, 427, 2266, 15811, 3620, 15, 713, -1386, 466, -398, -206, 61, 182, 227, 314, 81, 29, 30, 33
319455418, 469, 2232, 15836, 3526, 118, 865, -1400, 601, -314, -297, 61, 182, 227, 314, 81, 29, 30, 33
319463477, 469, 2232, 15836, 3526, 118, 865, -1400, 601, -314, -297, 85, 297, 266, 337, 90, 32, 34, 44
319464284, 469, 2232, 15836, 3526, 118, 865, -1400, 601, -314, -297, 85, 297, 266, 337, 90, 32, 34, 44
319470439, 463, 2202, 15857, 3449, 116, 822, -1527, 507, -45, -211, 85, 297, 266, 337, 90, 32, 34, 44
319478512, 463, 2202, 15857, 3449, 116, 822, -1527, 507, -45, -211, 115, 365, 360, 443, 105, 34, 41, 58
319479308, 463, 2202, 15857, 3449, 116, 822, -1527, 507, -45, -211, 115, 365, 360, 443, 105, 34, 41, 58
319492840, 430, 2190, 15868, 3410, 48, 766, -1618, 264, 145, -45, 115, 365, 360, 443, 105, 34, 41, 58
319501014, 430, 2190, 15868, 3410, 48, 766, -1618, 264, 145, -45, 127, 391, 401, 511, 114, 39, 41, 61
319501784, 430, 2190, 15868, 3410, 48, 766, -1618, 264, 145, -45, 127, 391, 401, 511, 114, 39, 41, 61
319515388, 408, 2237, 15863, 3407, -76, 985, -1425, 209, 109, 304, 127, 391, 401, 511, 114, 39, 41, 61
319523459, 408, 2237, 15863, 3407, -76, 985, -1425, 209, 109, 304, 126, 384, 449, 479, 126, 51, 44, 63
319524307, 408, 2237, 15863, 3407, -76, 985, -1425, 209, 109, 304, 126, 384, 449, 479, 126, 51, 44, 63
319530435, 390, 2341, 15859, 3359, -36, 854, -1330, 412, -37, 591, 126, 384, 449, 479, 126, 51, 44, 63
319538488, 390, 2341, 15859, 3359, -36, 854, -1330, 412, -37, 591, 135, 391, 476, 492, 133, 60, 49, 66
319539284, 390, 2341, 15859, 3359, -36, 854, -1330, 412, -37, 591, 135, 391, 476, 492, 133, 60, 49, 66
319552917, 378, 2504, 15867, 3202, -25, 589, -1309, 914, -223, 880, 135, 391, 476, 492, 133, 60, 49, 66
319560959, 378, 2504, 15867, 3202, -25, 589, -1309, 914, -223, 880, 126, 340, 555, 591, 146, 69, 52, 62
319561812, 378, 2504, 15867, 3202, -25, 589, -1309, 914, -223, 880, 126, 340, 555, 591, 146, 69, 52, 62
319575362, 362, 2755, 15893, 2847, -10, 666, -1429, 2016, -483, 1311, 126, 340, 555, 591, 146, 69, 52, 62
319583486, 362, 2755, 15893, 2847, -10, 666, -1429, 2016, -483, 1311, 111, 299, 525, 569, 156, 79, 53, 53
319584259, 362, 2755, 15893, 2847, -10, 666, -1429, 2016, -483, 1311, 111, 299, 525, 569, 156, 79, 53, 53
319590448, 353, 3097, 15915, 2326, 60, 1202, -1532, 2998, -778, 1784, 111, 299, 525, 569, 156, 79, 53, 53
319598860, 353, 3097, 15915, 2326, 60, 1202, -1532, 2998, -778, 1784, 105, 287, 570, 634, 192, 88, 59, 55
319605321, 353, 3097, 15915, 2326, 60, 1202, -1532, 2998, -778, 1784, 105, 287, 570, 634, 192, 88, 59, 55
319612974, 346, 3497, 15907, 1741, 187, 1501, -1576, 3387, -920, 2110, 105, 287, 570, 634, 192, 88, 59, 55
319620985, 346, 3497, 15907, 1741, 187, 1501, -1576, 3387, -920, 2110, 104, 298, 590, 689, 210, 90, 59, 54
319621782, 346, 3497, 15907, 1741, 187, 1501, -1576, 3387, -920, 2110, 104, 298, 590, 689, 210, 90, 59, 54
319635357, 343, 3921, 15860, 1174, 441, 1700, -1571, 3303, -972, 2287, 104, 298, 590, 689, 210, 90, 59, 54
319643475, 343, 3921, 15860, 1174, 441, 1700, -1571, 3303, -972, 2287, 98, 284, 557, 737, 246, 99, 59, 51
319644283, 343, 3921, 15860, 1174, 441, 1700, -1571, 3303, -972, 2287, 98, 284, 557, 737, 246, 99, 59, 51
319650459, 358, 4353, 15776, 683, 500, 1853, -1573, 2889, -991, 2381, 98, 284, 557, 737, 246, 99, 59, 51
319658485, 358, 4353, 15776, 683, 500, 1853, -1573, 2889, -991, 2381, 126, 339, 537, 833, 284, 104, 65, 65
319659309, 358, 4353, 15776, 683, 500, 1853, -1573, 2889, -991, 2381, 126, 339, 537, 833, 284, 104, 65, 65
319672888, 403, 4814, 15653, 269, 468, 2107, -1481, 2471, -1044, 2593, 126, 339, 537, 833, 284, 104, 65, 65
319680970, 403, 4814, 15653, 269, 468, 2107, -1481, 2471, -1044, 2593, 155, 370, 568, 983, 359, 116, 65, 135
319681776, 403, 4814, 15653, 269, 468, 2107, -1481, 2471, -1044, 2593, 155, 370, 568, 983, 359, 116, 65, 135
319695379, 452, 5292, 15499, -68, 671, 2246, -1371, 2081, -975, 2742, 155, 370, 568, 983, 359, 116, 65, 135
319703452, 452, 5292, 15499, -68, 671, 2246, -1371, 2081, -975, 2742, 271, 447, 543, 1077, 383, 119, 97, 222
319704277, 452, 5292, 15499, -68, 671, 2246, -1371, 2081, -975, 2742, 271, 447, 543, 1077, 383, 119, 97, 222
319710428, 474, 5761, 15326, -357, 864, 2113, -1471, 1858, -776, 2735, 271, 447, 543, 1077, 383, 119, 97, 222
319718459, 474, 5761, 15326, -357, 864, 2113, -1471, 1858, -776, 2735, 373, 532, 491, 1063, 377, 128, 142, 391
319719325, 474, 5761, 15326, -357, 864, 2113, -1471, 1858, -776, 2735, 373, 532, 491, 1063, 377, 128, 142, 391
319732861, 402, 6212, 15144, -565, 863, 1924, -1698, 1598, -132, 2664, 373, 532, 491, 1063, 377, 128, 142, 391
319740983, 402, 6212, 15144, -565, 863, 1924, -1698, 1598, -132, 2664, 516, 791, 602, 1048, 377, 277, 411, 566
319741786, 402, 6212, 15144, -565, 863, 1924, -1698, 1598, -132, 2664, 516, 791, 602, 1048, 377, 277, 411, 566
319755352, 198, 6594, 14990, -450, 844, 2815, -1725, -78, 1353, 2277, 516, 791, 602, 1048, 377, 277, 411, 566
319763433, 198, 6594, 14990, -450, 844, 2815, -1725, -78, 1353, 2277, 839, 1045, 855, 975, 372, 348, 593, 871
319764291, 198, 6594, 14990, -450, 844, 2815, -1725, -78, 1353, 2277, 839, 1045, 855, 975, 372, 348, 593, 871
319770418, -147, 6939, 14840, 132, 413, 3444, -2356, -2163, 3122, 2091, 839, 1045, 855, 975, 372, 348, 593, 871
319778489, -147, 6939, 14840, 132, 413, 3444, -2356, -2163, 3122, 2091, 988, 1207, 984, 838, 326, 381, 698, 959
319779311, -147, 6939, 14840, 132, 413, 3444, -2356, -2163, 3122, 2091, 988, 1207, 984, 838, 326, 381, 698, 959
319792860, -505, 7222, 14656, 1093, 570, 4100, -2496, -4054, 4096, 1842, 988, 1207, 984, 838, 326, 381, 698, 959
319800971, -505, 7222, 14656, 1093, 570, 4100, -2496, -4054, 4096, 1842, 980, 1199, 973, 632, 452, 530, 835, 1010
319801779, -505, 7222, 14656, 1093, 570, 4100, -2496, -4054, 4096, 1842, 980, 1199, 973, 632, 452, 530, 835, 1010
319815348, -684, 7535, 14355, 2260, 1023, 2705, -2631, -5299, 3667, 2219, 980, 1199, 973, 632, 452, 530, 835, 1010
319823454, -684, 7535, 14355, 2260, 1023, 2705, -2631, -5299, 3667, 2219, 988, 1197, 980, 596, 520, 606, 890, 1022
319824285, -684, 7535, 14355, 2260, 1023, 2705, -2631, -5299, 3667, 2219, 988, 1197, 980, 596, 520, 606, 890, 1022
319830410, -667, 7870, 13975, 3275, 1924, 1964, -966, -5194, 2161, 2374, 988, 1197, 980, 596, 520, 606, 890, 1022
319838475, -667, 7870, 13975, 3275, 1924, 1964, -966, -5194, 2161, 2374, 928, 1054, 912, 576, 604, 596, 833, 951
319839286, -667, 7870, 13975, 3275, 1924, 1964, -966, -5194, 2161, 2374, 928, 1054, 912, 576, 604, 596, 833, 951
319852859, -975, 8255, 13639, 3646, 3003, 1009, -2813, -1402, 1873, 2923, 928, 1054, 912, 576, 604, 596, 833, 951
319860957, -975, 8255, 13639, 3646, 3003, 1009, -2813, -1402, 1873, 2923, 664, 787, 669, 643, 619, 566, 722, 692
319861759, -975, 8255, 13639, 3646, 3003, 1009, -2813, -1402, 1873, 2923, 664, 787, 669, 643, 619, 566, 722, 692
319875348, -1262, 8476, 13315, 4206, 2229, -67, -2386, -2394, 2613, 2017, 664, 787, 669, 643, 619, 566, 722, 692
319883437, -1262, 8476, 13315, 4206, 2229, -67, -2386, -2394, 2613, 2017, 473, 554, 452, 629, 631, 595, 653, 623
319884237, -1262, 8476, 13315, 4206, 2229, -67, -2386, -2394, 2613, 2017, 473, 554, 452, 629, 631, 595, 653, 623
319890477, -1377, 8442, 13174, 4656, -1010, -192, -1787, -2013, 2153, 262, 473, 554, 452, 629, 631, 595, 653, 623
319898459, -1377, 8442, 13174, 4656, -1010, -192, -1787, -2013, 2153, 262, 466, 510, 422, 611, 538, 561, 489, 556
319899265, -1377, 8442, 13174, 4656, -1010, -192, -1787, -2013, 2153, 262, 466, 510, 422, 611, 538, 561, 489, 556
319912864, -1390, 8384, 13241, 4567, -605, 466, -979, 592, 354, -165, 466, 510, 422, 611, 538, 561, 489, 556
319920941, -1390, 8384, 13241, 4567, -605, 466, -979, 592, 354, -165, 382, 550, 391, 607, 477, 483, 393, 460
319921760, -1390, 8384, 13241, 4567, -605, 466, -979, 592, 354, -165, 382, 550, 391, 607, 477, 483, 393, 460
319935312, -1269, 8237, 13367, 4502, 125, 2287, -1157, 1030, -378, -697, 382, 550, 391, 607, 477, 483, 393, 460
319943524, -1269, 8237, 13367, 4502, 125, 2287, -1157, 1030, -378, -697, 386, 626, 396, 612, 353, 452, 337, 439
319944284, -1269, 8237, 13367, 4502, 125, 2287, -1157, 1030, -378, -697, 386, 626, 396, 612, 353, 452, 337, 439
319950463, -1031, 8158, 13396, 4620, 322, 2712, -1606, -237, -453, -349, 386, 626, 396, 612, 353, 452, 337, 439
319958436, -1031, 8158, 13396, 4620, 322, 2712, -1606, -237, -453, -349, 398, 618, 310, 431, 309, 445, 336, 479
319959249, -1031, 8158, 13396, 4620, 322, 2712, -1606, -237, -453, -349, 398, 618, 310, 431, 309, 445, 336, 479
319972825, -911, 8154, 13372, 4720, 574, 2100, -1508, -218, -205, 127, 398, 618, 310, 431, 309, 445, 336, 479
319981021, -911, 8154, 13372, 4720, 574, 2100, -1508, -218, -205, 127, 316, 545, 203, 352, 262, 387, 288, 400
319981792, -911, 8154, 13372, 4720, 574, 2100, -1508, -218, -205, 127, 316, 545, 203, 352, 262, 387, 288, 400
319995311, -950, 8213, 13331, 4727, 1115, 1945, -1537, 533, -65, 608, 316, 545, 203, 352, 262, 387, 288, 400
320003506, -950, 8213, 13331, 4727, 1115, 1945, -1537, 533, -65, 608, 297, 539, 190, 342, 229, 235, 258, 364
320004313, -950, 8213, 13331, 4727, 1115, 1945, -1537, 533, -65, 608, 297, 539, 190, 342, 229, 235, 258, 364
320010449, -1029, 8236, 13305, 4744, 1353, 2103, -1316, 759, 49, 447, 297, 539, 190, 342, 229, 235, 258, 364
320018517, -1029, 8236, 13305, 4744, 1353, 2103, -1316, 759, 49, 447, 277, 399, 179, 326, 220, 226, 225, 325
320019284, -1029, 8236, 13305, 4744, 1353, 2103, -1316, 759, 49, 447, 277, 399, 179, 326, 220, 226, 225, 325
320032819, -1109, 8224, 13287, 4796, 1461, 2133, -1413, 618, 186, 248, 277, 399, 179, 326, 220, 226, 225, 325
320040968, -1109, 8224, 13287, 4796, 1461, 2133, -1413, 618, 186, 248, 256, 207, 112, 261, 208, 178, 206, 314
320041784, -1109, 8224, 13287, 4796, 1461, 2133, -1413, 618, 186, 248, 256, 207, 112, 261, 208, 178, 206, 314
320055348, -1148, 8182, 13282, 4871, 1233, 2122, -1494, 389, 243, 56, 256, 207, 112, 261, 208, 178, 206, 314
320063472, -1148, 8182, 13282, 4871, 1233, 2122, -1494, 389, 243, 56, 181, 167, 99, 221, 225, 164, 182, 231
320064305, -1148, 8182, 13282, 4871, 1233, 2122, -1494, 389, 243, 56, 181, 167, 99, 221, 225, 164, 182, 231
320070446, -1137, 8122, 13276, 4990, 1155, 2086, -1597, 0, 233, -115, 181, 167, 99, 221, 225, 164, 182, 231
320077807, -1137, 8122, 13276, 4990, 1155, 2086, -1597, 0, 233, -115, 166, 178, 107, 222, 209, 120, 185, 204
320085325, -1137, 8122, 13276, 4990, 1155, 2086, -1597, 0, 233, -115, 166, 178, 107, 222, 209, 120, 185, 204
320092957, -1077, 8049, 13265, 5149, 1110, 2087, -1470, -323, 147, -256, 166, 178, 107, 222, 209, 120, 185, 204
320101009, -1077, 8049, 13265, 5149, 1110, 2087, -1470, -323, 147, -256, 117, 207, 119, 202, 202, 112, 164, 141
320101783, -1077, 8049, 13265, 5149, 1110, 2087, -1470, -323, 147, -256, 117, 207, 119, 202, 202, 112, 164, 141
320115335, -1006, 7979, 13256, 5292, 1048, 2012, -1372, -314, 59, -281, 117, 207, 119, 202, 202, 112, 164, 141
320123459, -1006, 7979, 13256, 5292, 1048, 2012, -1372, -314, 59, -281, 135, 239, 132, 196, 192, 110, 172, 148
320124310, -1006, 7979, 13256, 5292, 1048, 2012, -1372, -314, 59, -281, 135, 239, 132, 196, 192, 110, 172, 148
320130436, -954, 7914, 13253, 5407, 1005, 2007, -1369, -147, 70, -224, 135, 239, 132, 196, 192, 110, 172, 148
320137772, -954, 7914, 13253, 5407, 1005, 2007, -1369, -147, 70, -224, 118, 251, 147, 185, 190, 102, 170, 146
320145286, -954, 7914, 13253, 5407, 1005, 2007, -1369, -147, 70, -224, 118, 251, 147, 185, 190, 102, 170, 146
320152936, -942, 7863, 13248, 5494, 1065, 2074, -1439, 75, 154, -84, 118, 251, 147, 185, 190, 102, 170, 146
320160955, -942, 7863, 13248, 5494, 1065, 2074, -1439, 75, 154, -84, 120, 245, 146, 189, 162, 105, 168, 138
320161740, -942, 7863, 13248, 5494, 1065, 2074, -1439, 75, 154, -84, 120, 245, 146, 189, 162, 105, 168, 138
320175331, -946, 7813, 13243, 5577, 1123, 2161, -1513, 141, 210, -40, 120, 245, 146, 189, 162, 105, 168, 138
320183424, -946, 7813, 13243, 5577, 1123, 2161, -1513, 141, 210, -40, 133, 227, 135, 183, 158, 108, 146, 166
320184268, -946, 7813, 13243, 5577, 1123, 2161, -1513, 141, 210, -40, 133, 227, 135, 183, 158, 108, 146, 166
320190436, -914, 7764, 13230, 5681, 1081, 2256, -1446, -29, 115, -63, 133, 227, 135, 183, 158, 108, 146, 166
320205986, -914, 7764, 13230, 5681, 1081, 2256, -1446, -29, 115, -63, 126, 228, 138, 203, 154, 105, 148, 169
320206784, -914, 7764, 13230, 5681, 1081, 2256, -1446, -29, 115, -63, 126, 228, 138, 203, 154, 105, 148, 169
320212965, -860, 7728, 13205, 5795, 990, 2158, -1424, -216, 57, -25, 126, 228, 138, 203, 154, 105, 148, 169
320228490, -860, 7728, 13205, 5795, 990, 2158, -1424, -216, 57, -25, 104, 229, 125, 200, 147, 89, 126, 155
320229284, -860, 7728, 13205, 5795, 990, 2158, -1424, -216, 57, -25, 104, 229, 125, 200, 147, 89, 126, 155
320235464, -809, 7692, 13177, 5912, 939, 2053, -1330, -269, 86, -24, 104, 229, 125, 200, 147, 89, 126, 155
320243462, -809, 7692, 13177, 5912, 939, 2053, -1330, -269, 86, -24, 101, 210, 93, 160, 133, 91, 123, 151
320244324, -809, 7692, 13177, 5912, 939, 2053, -1330, -269, 86, -24, 101, 210, 93, 160, 133, 91, 123, 151
320250440, -774, 7659, 13158, 6002, 923, 1966, -1376, -148, 99, -18, 101, 210, 93, 160, 133, 91, 123, 151
320265960, -774, 7659, 13158, 6002, 923, 1966, -1376, -148, 99, -18, 87, 203, 88, 138, 100, 79, 120, 142
320266824, -774, 7659, 13158, 6002, 923, 1966, -1376, -148, 99, -18, 87, 203, 88, 138, 100, 79, 120, 142
320272977, -751, 7624, 13149, 6068, 902, 1959, -1414, -19, 107, -23, 87, 203, 88, 138, 100, 79, 120, 142
320288486, -751, 7624, 13149, 6068, 902, 1959, -1414, -19, 107, -23, 58, 197, 85, 127, 85, 65, 99, 92
320289260, -751, 7624, 13149, 6068, 902, 1959, -1414, -19, 107, -23, 58, 197, 85, 127, 85, 65, 99, 92
320295440, -730, 7583, 13151, 6117, 912, 1954, -1443, 70, 91, -75, 58, 197, 85, 127, 85, 65, 99, 92
320303465, -730, 7583, 13151, 6117, 912, 1954, -1443, 70, 91, -75, 48, 155, 63, 89, 77, 59, 63, 70
320304322, -730, 7583, 13151, 6117, 912, 1954, -1443, 70, 91, -75, 48, 155, 63, 89, 77, 59, 63, 70
320310458, -709, 7533, 13164, 6153, 938, 1904, -1473, 115, 64, -165, 48, 155, 63, 89, 77, 59, 63, 70
320325985, -709, 7533, 13164, 6153, 938, 1904, -1473, 115, 64, -165, 46, 103, 47, 57, 65, 95, 51, 55
320326759, -709, 7533, 13164, 6153, 938, 1904, -1473, 115, 64, -165, 46, 103, 47, 57, 65, 95, 51, 55
320332929, -684, 7474, 13190, 6172, 927, 1894, -1495, 197, 25, -256, 46, 103, 47, 57, 65, 95, 51, 55
