Timestamp, Orientation x, Orientation y, Orientation z, Orientation w, Acceleration x, Acceleration y, Acceleration z, Rotation x, Rotation y, Rotation z, EMG 0, EMG 1, EMG 2, EMG 3, EMG 4, EMG 5, EMG 6, EMG 7
399335281, -666, 2038, 15225, 5659, 296, 1414, -1547, -48, -87, 367, 0, 0, 0, 0, 0, 0, 0, 0
399342801, -671, 2107, 15211, 5670, 298, 1461, -1539, -22, -82, 401, 0, 0, 0, 0, 0, 0, 0, 0
399357755, -680, 2181, 15196, 5680, 265, 1479, -1458, 18, -63, 457, 0, 0, 0, 0, 0, 0, 0, 0
399380283, -685, 2274, 15182, 5681, 228, 1465, -1449, 57, -104, 559, 0, 0, 0, 0, 0, 0, 0, 0
399404115, -691, 2392, 15166, 5675, 218, 1503, -1517, 76, -141, 712, 0, 0, 0, 0, 0, 0, 0, 0
399404951, -691, 2392, 15166, 5675, 218, 1503, -1517, 76, -141, 712, 86, 258, 124, 57, 69, 140, 59, 69
399405776, -691, 2392, 15166, 5675, 218, 1503, -1517, 76, -141, 712, 86, 258, 124, 57, 69, 140, 59, 69
399417793, -695, 2541, 15140, 5678, 177, 1675, -1526, 71, -176, 911, 86, 258, 124, 57, 69, 140, 59, 69
399425891, -695, 2541, 15140, 5678, 177, 1675, -1526, 71, -176, 911, 109, 273, 152, 69, 74, 149, 63, 73
399426692, -695, 2541, 15140, 5678, 177, 1675, -1526, 71, -176, 911, 109, 273, 152, 69, 74, 149, 63, 73
399440295, -705, 2736, 15105, 5680, 184, 1752, -1486, 97, -230, 1183, 109, 273, 152, 69, 74, 149, 63, 73
399448383, -705, 2736, 15105, 5680, 184, 1752, -1486, 97, -230, 1183, 120, 287, 165, 69, 76, 152, 65, 78
399449209, -705, 2736, 15105, 5680, 184, 1752, -1486, 97, -230, 1183, 120, 287, 165, 69, 76, 152, 65, 78
399464090, -748, 2971, 15054, 5692, 321, 1736, -1451, 47, -175, 1428, 120, 287, 165, 69, 76, 152, 65, 78
399464907, -748, 2971, 15054, 5692, 321, 1736, -1451, 47, -175, 1428, 131, 271, 162, 68, 77, 168, 68, 83
399465720, -748, 2971, 15054, 5692, 321, 1736, -1451, 47, -175, 1428, 131, 271, 162, 68, 77, 168, 68, 83
399477770, -827, 3248, 15006, 5656, 385, 1796, -1488, 162, -148, 1661, 131, 271, 162, 68, 77, 168, 68, 83
399485850, -827, 3248, 15006, 5656, 385, 1796, -1488, 162, -148, 1661, 135, 266, 167, 72, 71, 184, 66, 87
399486672, -827, 3248, 15006, 5656, 385, 1796, -1488, 162, -148, 1661, 135, 266, 167, 72, 71, 184, 66, 87
399500246, -923, 3571, 14959, 5573, 485, 1982, -1561, 431, -205, 1944, 135, 266, 167, 72, 71, 184, 66, 87
399508410, -923, 3571, 14959, 5573, 485, 1982, -1561, 431, -205, 1944, 133, 245, 169, 71, 55, 181, 56, 80
399509221, -923, 3571, 14959, 5573, 485, 1982, -1561, 431, -205, 1944, 133, 245, 169, 71, 55, 181, 56, 80
399524109, -1032, 3939, 14893, 5481, 626, 2087, -1579, 454, -241, 2228, 133, 245, 169, 71, 55, 181, 56, 80
399524909, -1032, 3939, 14893, 5481, 626, 2087, -1579, 454, -241, 2228, 124, 248, 152, 69, 54, 176, 54, 75
399525762, -1032, 3939, 14893, 5481, 626, 2087, -1579, 454, -241, 2228, 124, 248, 152, 69, 54, 176, 54, 75
399537761, -1147, 4348, 14801, 5397, 821, 2193, -1560, 376, -281, 2476, 124, 248, 152, 69, 54, 176, 54, 75
399545867, -1147, 4348, 14801, 5397, 821, 2193, -1560, 376, -281, 2476, 132, 298, 143, 70, 49, 168, 50, 94
399546698, -1147, 4348, 14801, 5397, 821, 2193, -1560, 376, -281, 2476, 132, 298, 143, 70, 49, 168, 50, 94
399560261, -1268, 4775, 14683, 5329, 974, 2243, -1542, 262, -260, 2614, 132, 298, 143, 70, 49, 168, 50, 94
399568370, -1268, 4775, 14683, 5329, 974, 2243, -1542, 262, -260, 2614, 144, 311, 141, 74, 54, 160, 55, 149
399569184, -1268, 4775, 14683, 5329, 974, 2243, -1542, 262, -260, 2614, 144, 311, 141, 74, 54, 160, 55, 149
399584061, -1388, 5211, 14542, 5277, 1064, 2170, -1528, 133, -253, 2687, 144, 311, 141, 74, 54, 160, 55, 149
399584884, -1388, 5211, 14542, 5277, 1064, 2170, -1528, 133, -253, 2687, 161, 308, 137, 77, 58, 134, 55, 195
399585738, -1388, 5211, 14542, 5277, 1064, 2170, -1528, 133, -253, 2687, 161, 308, 137, 77, 58, 134, 55, 195
399597737, -1502, 5631, 14385, 5247, 1134, 2269, -1516, 5, -206, 2625, 161, 308, 137, 77, 58, 134, 55, 195
399605876, -1502, 5631, 14385, 5247, 1134, 2269, -1516, 5, -206, 2625, 162, 309, 131, 78, 75, 142, 57, 222
399606661, -1502, 5631, 14385, 5247, 1134, 2269, -1516, 5, -206, 2625, 162, 309, 131, 78, 75, 142, 57, 222
399620247, -1605, 6037, 14204, 5258, 1218, 2314, -1540, -242, -148, 2572, 162, 309, 131, 78, 75, 142, 57, 222
399628404, -1605, 6037, 14204, 5258, 1218, 2314, -1540, -242, -148, 2572, 160, 288, 121, 73, 90, 173, 57, 224
399629249, -1605, 6037, 14204, 5258, 1218, 2314, -1540, -242, -148, 2572, 160, 288, 121, 73, 90, 173, 57, 224
399644141, -1695, 6424, 14004, 5306, 1281, 2239, -1530, -486, -92, 2474, 160, 288, 121, 73, 90, 173, 57, 224
399644906, -1695, 6424, 14004, 5306, 1281, 2239, -1530, -486, -92, 2474, 142, 196, 93, 70, 98, 224, 61, 218
399645773, -1695, 6424, 14004, 5306, 1281, 2239, -1530, -486, -92, 2474, 142, 196, 93, 70, 98, 224, 61, 218
399657711, -1767, 6786, 13793, 5385, 1337, 2157, -1486, -678, -59, 2327, 142, 196, 93, 70, 98, 224, 61, 218
399665870, -1767, 6786, 13793, 5385, 1337, 2157, -1486, -678, -59, 2327, 142, 134, 78, 66, 104, 227, 69, 242
399666683, -1767, 6786, 13793, 5385, 1337, 2157, -1486, -678, -59, 2327, 142, 134, 78, 66, 104, 227, 69, 242
399680288, -1816, 7120, 13584, 5468, 1330, 2081, -1431, -743, -107, 2148, 142, 134, 78, 66, 104, 227, 69, 242
399688374, -1816, 7120, 13584, 5468, 1330, 2081, -1431, -743, -107, 2148, 143, 117, 62, 57, 112, 288, 81, 224
399689174, -1816, 7120, 13584, 5468, 1330, 2081, -1431, -743, -107, 2148, 143, 117, 62, 57, 112, 288, 81, 224
399704093, -1838, 7429, 13389, 5529, 1342, 2064, -1374, -658, -247, 1970, 143, 117, 62, 57, 112, 288, 81, 224
399704884, -1838, 7429, 13389, 5529, 1342, 2064, -1374, -658, -247, 1970, 162, 82, 56, 71, 130, 310, 118, 210
399705737, -1838, 7429, 13389, 5529, 1342, 2064, -1374, -658, -247, 1970, 162, 82, 56, 71, 130, 310, 118, 210
399717737, -1817, 7731, 13212, 5549, 1294, 2114, -1271, -535, -551, 1844, 162, 82, 56, 71, 130, 310, 118, 210
399725864, -1817, 7731, 13212, 5549, 1294, 2114, -1271, -535, -551, 1844, 162, 81, 59, 73, 134, 356, 146, 267
399726659, -1817, 7731, 13212, 5549, 1294, 2114, -1271, -535, -551, 1844, 162, 81, 59, 73, 134, 356, 146, 267
399740241, -1727, 8039, 13052, 5519, 1292, 2064, -1202, -454, -1015, 1724, 162, 81, 59, 73, 134, 356, 146, 267
399748348, -1727, 8039, 13052, 5519, 1292, 2064, -1202, -454, -1015, 1724, 164, 76, 62, 92, 155, 370, 153, 269
399749159, -1727, 8039, 13052, 5519, 1292, 2064, -1202, -454, -1015, 1724, 164, 76, 62, 92, 155, 370, 153, 269
399764059, -1534, 8347, 12937, 5388, 1191, 2159, -1056, -183, -1788, 1477, 164, 76, 62, 92, 155, 370, 153, 269
399764858, -1534, 8347, 12937, 5388, 1191, 2159, -1056, -183, -1788, 1477, 154, 124, 108, 168, 175, 367, 154, 222
399765671, -1534, 8347, 12937, 5388, 1191, 2159, -1056, -183, -1788, 1477, 154, 124, 108, 168, 175, 367, 154, 222
399777735, -1279, 8644, 12924, 5003, 1088, 1392, -1500, 863, -2792, 1110, 154, 124, 108, 168, 175, 367, 154, 222
399785905, -1279, 8644, 12924, 5003, 1088, 1392, -1500, 863, -2792, 1110, 151, 200, 296, 415, 178, 319, 151, 206
399786696, -1279, 8644, 12924, 5003, 1088, 1392, -1500, 863, -2792, 1110, 151, 200, 296, 415, 178, 319, 151, 206
399800286, -907, 8818, 12973, 4641, 402, 1664, -1922, 589, -2974, 216, 151, 200, 296, 415, 178, 319, 151, 206
399808357, -907, 8818, 12973, 4641, 402, 1664, -1922, 589, -2974, 216, 130, 232, 385, 546, 271, 299, 125, 194
399809206, -907, 8818, 12973, 4641, 402, 1664, -1922, 589, -2974, 216, 130, 232, 385, 546, 271, 299, 125, 194
399824070, -435, 9022, 12964, 4333, 996, 1493, -2146, -72, -3360, 294, 130, 232, 385, 546, 271, 299, 125, 194
399824875, -435, 9022, 12964, 4333, 996, 1493, -2146, -72, -3360, 294, 139, 251, 450, 627, 416, 235, 102, 101
399825725, -435, 9022, 12964, 4333, 996, 1493, -2146, -72, -3360, 294, 139, 251, 450, 627, 416, 235, 102, 101
399837737, 2, 9213, 12939, 4014, 2579, 1521, -1586, 100, -3449, 249, 139, 251, 450, 627, 416, 235, 102, 101
399845835, 2, 9213, 12939, 4014, 2579, 1521, -1586, 100, -3449, 249, 155, 291, 558, 663, 475, 175, 96, 98
399846660, 2, 9213, 12939, 4014, 2579, 1521, -1586, 100, -3449, 249, 155, 291, 558, 663, 475, 175, 96, 98
399869098, 319, 9347, 12992, 3485, 3664, 1996, -1364, 1417, -3249, -11, 155, 291, 558, 663, 475, 175, 96, 98
399869932, 319, 9347, 12992, 3485, 3664, 1996, -1364, 1417, -3249, -11, 153, 402, 591, 716, 517, 175, 91, 119
399870709, 319, 9347, 12992, 3485, 3664, 1996, -1364, 1417, -3249, -11, 153, 402, 591, 716, 517, 175, 91, 119
399884111, 540, 9432, 13088, 2804, 3559, 2635, -700, 2439, -3251, -264, 153, 402, 591, 716, 517, 175, 91, 119
399884883, 540, 9432, 13088, 2804, 3559, 2635, -700, 2439, -3251, -264, 298, 395, 545, 769, 547, 227, 104, 288
399885732, 540, 9432, 13088, 2804, 3559, 2635, -700, 2439, -3251, -264, 298, 395, 545, 769, 547, 227, 104, 288
399897762, 987, 9582, 13065, 2224, 1401, 2742, 184, 1160, -4022, 205, 298, 395, 545, 769, 547, 227, 104, 288
399905849, 987, 9582, 13065, 2224, 1401, 2742, 184, 1160, -4022, 205, 320, 410, 499, 728, 530, 285, 219, 295
399906674, 987, 9582, 13065, 2224, 1401, 2742, 184, 1160, -4022, 205, 320, 410, 499, 728, 530, 285, 219, 295
399920235, 1191, 9716, 13036, 1629, -23, 2423, -1145, 2290, -2967, 350, 320, 410, 499, 728, 530, 285, 219, 295
399928341, 1191, 9716, 13036, 1629, -23, 2423, -1145, 2290, -2967, 350, 325, 414, 446, 711, 441, 338, 232, 302
399929196, 1191, 9716, 13036, 1629, -23, 2423, -1145, 2290, -2967, 350, 325, 414, 446, 711, 441, 338, 232, 302
399944106, 1228, 9651, 13122, 1253, 1413, 4168, -2998, 1570, -1339, -754, 325, 414, 446, 711, 441, 338, 232, 302
399944888, 1228, 9651, 13122, 1253, 1413, 4168, -2998, 1570, -1339, -754, 322, 387, 321, 716, 408, 380, 240, 310
399945684, 1228, 9651, 13122, 1253, 1413, 4168, -2998, 1570, -1339, -754, 322, 387, 321, 716, 408, 380, 240, 310
399957738, 1310, 9736, 13039, 1378, 3016, 3477, -3289, -830, -29, 674, 322, 387, 321, 716, 408, 380, 240, 310
399965885, 1310, 9736, 13039, 1378, 3016, 3477, -3289, -830, -29, 674, 320, 260, 256, 680, 359, 384, 240, 306
399966748, 1310, 9736, 13039, 1378, 3016, 3477, -3289, -830, -29, 674, 320, 260, 256, 680, 359, 384, 240, 306
399980226, 1397, 9836, 12907, 1769, 2969, 1814, -2635, -2047, 804, 1019, 320, 260, 256, 680, 359, 384, 240, 306
399988376, 1397, 9836, 12907, 1769, 2969, 1814, -2635, -2047, 804, 1019, 190, 234, 246, 546, 316, 369, 234, 162
399989186, 1397, 9836, 12907, 1769, 2969, 1814, -2635, -2047, 804, 1019, 190, 234, 246, 546, 316, 369, 234, 162
400003437, 1332, 9845, 12829, 2264, 2474, 1471, -1915, -1568, 645, 198, 190, 234, 246, 546, 316, 369, 234, 162
400004225, 1332, 9845, 12829, 2264, 2474, 1471, -1915, -1568, 645, 198, 153, 188, 257, 552, 290, 334, 142, 149
400010243, 1332, 9845, 12829, 2264, 2474, 1471, -1915, -1568, 645, 198, 153, 188, 257, 552, 290, 334, 142, 149
400017868, 1281, 9822, 12781, 2632, 2237, 1745, -1719, -918, 365, -84, 153, 188, 257, 552, 290, 334, 142, 149
400025885, 1281, 9822, 12781, 2632, 2237, 1745, -1719, -918, 365, -84, 132, 167, 267, 544, 262, 270, 111, 132
400026684, 1281, 9822, 12781, 2632, 2237, 1745, -1719, -918, 365, -84, 132, 167, 267, 544, 262, 270, 111, 132
400040225, 1229, 9798, 12738, 2941, 2028, 1942, -1640, -564, 317, -84, 132, 167, 267, 544, 262, 270, 111, 132
400048386, 1229, 9798, 12738, 2941, 2028, 1942, -1640, -564, 317, -84, 116, 174, 258, 511, 195, 193, 87, 104
400049183, 1229, 9798, 12738, 2941, 2028, 1942, -1640, -564, 317, -84, 116, 174, 258, 511, 195, 193, 87, 104
400063453, 1200, 9764, 12702, 3206, 1817, 2015, -1542, -427, 211, -144, 116, 174, 258, 511, 195, 193, 87, 104
400064215, 1200, 9764, 12702, 3206, 1817, 2015, -1542, -427, 211, -144, 109, 182, 247, 488, 164, 195, 84, 105
400070224, 1200, 9764, 12702, 3206, 1817, 2015, -1542, -427, 211, -144, 109, 182, 247, 488, 164, 195, 84, 105
400077842, 1180, 9734, 12673, 3416, 1777, 2076, -1483, -188, 32, -170, 109, 182, 247, 488, 164, 195, 84, 105
400085859, 1180, 9734, 12673, 3416, 1777, 2076, -1483, -188, 32, -170, 90, 177, 211, 434, 142, 165, 79, 95
400086711, 1180, 9734, 12673, 3416, 1777, 2076, -1483, -188, 32, -170, 90, 177, 211, 434, 142, 165, 79, 95
400100261, 1134, 9720, 12643, 3579, 1888, 2023, -1494, 58, -64, -110, 90, 177, 211, 434, 142, 165, 79, 95
400108400, 1134, 9720, 12643, 3579, 1888, 2023, -1494, 58, -64, -110, 77, 165, 177, 364, 83, 143, 66, 93
400109181, 1134, 9720, 12643, 3579, 1888, 2023, -1494, 58, -64, -110, 77, 165, 177, 364, 83, 143, 66, 93
400122754, 1060, 9702, 12620, 3726, 2012, 2116, -1440, 272, -36, -131, 77, 165, 177, 364, 83, 143, 66, 93
400130833, 1060, 9702, 12620, 3726, 2012, 2116, -1440, 272, -36, -131, 66, 150, 151, 279, 76, 139, 63, 90
400131670, 1060, 9702, 12620, 3726, 2012, 2116, -1440, 272, -36, -131, 66, 150, 151, 279, 76, 139, 63, 90
400137811, 966, 9664, 12616, 3863, 2050, 2255, -1472, 454, 57, -246, 66, 150, 151, 279, 76, 139, 63, 90
400145885, 966, 9664, 12616, 3863, 2050, 2255, -1472, 454, 57, -246, 66, 136, 121, 237, 60, 133, 60, 88
400146658, 966, 9664, 12616, 3863, 2050, 2255, -1472, 454, 57, -246, 66, 136, 121, 237, 60, 133, 60, 88
400160262, 886, 9592, 12630, 4014, 1960, 2381, -1497, 390, 157, -418, 66, 136, 121, 237, 60, 133, 60, 88
400175808, 886, 9592, 12630, 4014, 1960, 2381, -1497, 390, 157, -418, 60, 108, 111, 207, 56, 92, 53, 60
400176639, 886, 9592, 12630, 4014, 1960, 2381, -1497, 390, 157, -418, 60, 108, 111, 207, 56, 92, 53, 60
400182860, 827, 9486, 12655, 4193, 1894, 2375, -1530, 175, 265, -597, 60, 108, 111, 207, 56, 92, 53, 60
400190826, 827, 9486, 12655, 4193, 1894, 2375, -1530, 175, 265, -597, 52, 82, 105, 198, 55, 77, 46, 49
400191658, 827, 9486, 12655, 4193, 1894, 2375, -1530, 175, 265, -597, 52, 82, 105, 198, 55, 77, 46, 49
400197825, 792, 9356, 12685, 4398, 1827, 2292, -1480, -79, 329, -734, 52, 82, 105, 198, 55, 77, 46, 49
400205871, 792, 9356, 12685, 4398, 1827, 2292, -1480, -79, 329, -734, 44, 101, 114, 248, 54, 44, 29, 43
400206658, 792, 9356, 12685, 4398, 1827, 2292, -1480, -79, 329, -734, 44, 101, 114, 248, 54, 44, 29, 43
400220264, 766, 9204, 12717, 4624, 1854, 2289, -1455, -229, 403, -858, 44, 101, 114, 248, 54, 44, 29, 43
400228334, 766, 9204, 12717, 4624, 1854, 2289, -1455, -229, 403, -858, 43, 110, 109, 251, 49, 39, 27, 37
400229185, 766, 9204, 12717, 4624, 1854, 2289, -1455, -229, 403, -858, 43, 110, 109, 251, 49, 39, 27, 37
400242711, 745, 9027, 12758, 4858, 1837, 2282, -1480, -326, 480, -1002, 43, 110, 109, 251, 49, 39, 27, 37
400250832, 745, 9027, 12758, 4858, 1837, 2282, -1480, -326, 480, -1002, 45, 127, 110, 253, 47, 47, 24, 33
400251634, 745, 9027, 12758, 4858, 1837, 2282, -1480, -326, 480, -1002, 45, 127, 110, 253, 47, 47, 24, 33
400257798, 746, 8828, 12808, 5086, 1778, 2267, -1509, -407, 462, -1168, 45, 127, 110, 253, 47, 47, 24, 33
400265855, 746, 8828, 12808, 5086, 1778, 2267, -1509, -407, 462, -1168, 57, 153, 111, 243, 51, 46, 27, 38
400266699, 746, 8828, 12808, 5086, 1778, 2267, -1509, -407, 462, -1168, 57, 153, 111, 243, 51, 46, 27, 38
400280218, 769, 8623, 12871, 5271, 1700, 2175, -1569, -360, 305, -1283, 57, 153, 111, 243, 51, 46, 27, 38
400288326, 769, 8623, 12871, 5271, 1700, 2175, -1569, -360, 305, -1283, 56, 172, 108, 230, 49, 56, 26, 36
400289155, 769, 8623, 12871, 5271, 1700, 2175, -1569, -360, 305, -1283, 56, 172, 108, 230, 49, 56, 26, 36
400302735, 808, 8422, 12942, 5417, 1735, 2189, -1592, -251, 116, -1357, 56, 172, 108, 230, 49, 56, 26, 36
400310859, 808, 8422, 12942, 5417, 1735, 2189, -1592, -251, 116, -1357, 57, 171, 77, 118, 38, 59, 25, 33
400311726, 808, 8422, 12942, 5417, 1735, 2189, -1592, -251, 116, -1357, 57, 171, 77, 118, 38, 59, 25, 33
400317837, 846, 8225, 13016, 5533, 1743, 2285, -1631, -108, 34, -1365, 57, 171, 77, 118, 38, 59, 25, 33
400333366, 846, 8225, 13016, 5533, 1743, 2285, -1631, -108, 34, -1365, 59, 171, 75, 88, 34, 63, 28, 38
400334184, 846, 8225, 13016, 5533, 1743, 2285, -1631, -108, 34, -1365, 59, 171, 75, 88, 34, 63, 28, 38
400340335, 888, 8022, 13090, 5650, 1728, 2328, -1612, -125, 34, -1414, 59, 171, 75, 88, 34, 63, 28, 38
400348332, 888, 8022, 13090, 5650, 1728, 2328, -1612, -125, 34, -1414, 55, 161, 70, 74, 35, 63, 29, 46
400349167, 888, 8022, 13090, 5650, 1728, 2328, -1612, -125, 34, -1414, 55, 161, 70, 74, 35, 63, 29, 46
400362736, 937, 7805, 13165, 5771, 1665, 2314, -1593, -199, 73, -1495, 55, 161, 70, 74, 35, 63, 29, 46
400370872, 937, 7805, 13165, 5771, 1665, 2314, -1593, -199, 73, -1495, 42, 144, 51, 64, 32, 83, 27, 44
400371704, 937, 7805, 13165, 5771, 1665, 2314, -1593, -199, 73, -1495, 42, 144, 51, 64, 32, 83, 27, 44
400377859, 984, 7572, 13240, 5901, 1634, 2267, -1522, -259, 143, -1581, 42, 144, 51, 64, 32, 83, 27, 44
400401583, 984, 7572, 13240, 5901, 1634, 2267, -1522, -259, 143, -1581, 46, 142, 49, 56, 39, 100, 29, 42
400402362, 984, 7572, 13240, 5901, 1634, 2267, -1522, -259, 143, -1581, 46, 142, 49, 56, 39, 100, 29, 42
400403338, 1062, 7312, 13352, 5961, 1619, 2228, -1491, -246, 244, -1680, 46, 142, 49, 56, 39, 100, 29, 42
400408482, 1062, 7312, 13352, 5961, 1619, 2228, -1491, -246, 244, -1680, 44, 133, 49, 52, 48, 136, 34, 48
400409295, 1062, 7312, 13352, 5961, 1619, 2228, -1491, -246, 244, -1680, 44, 133, 49, 52, 48, 136, 34, 48
400416559, 1062, 7312, 13352, 5961, 1619, 2228, -1491, -246, 244, -1680, 44, 133, 49, 52, 48, 136, 34, 48
400417317, 1062, 7312, 13352, 5961, 1619, 2228, -1491, -246, 244, -1680, 44, 133, 49, 52, 48, 136, 34, 48
400418134, 1062, 7312, 13352, 5961, 1619, 2228, -1491, -246, 244, -1680, 44, 133, 49, 52, 48, 136, 34, 48
400422852, 1129, 7027, 13472, 6023, 1552, 2192, -1493, -235, 361, -1793, 44, 133, 49, 52, 48, 136, 34, 48
400430890, 1129, 7027, 13472, 6023, 1552, 2192, -1493, -235, 361, -1793, 40, 122, 44, 42, 56, 154, 33, 43
400431713, 1129, 7027, 13472, 6023, 1552, 2192, -1493, -235, 361, -1793, 40, 122, 44, 42, 56, 154, 33, 43
400437818, 1192, 6706, 13596, 6097, 1464, 2166, -1538, -293, 490, -1954, 40, 122, 44, 42, 56, 154, 33, 43
