Timestamp, Orientation x, Orientation y, Orientation z, Orientation w, Acceleration x, Acceleration y, Acceleration z, Rotation x, Rotation y, Rotation z, EMG 0, EMG 1, EMG 2, EMG 3, EMG 4, EMG 5, EMG 6, EMG 7
434397334, 266, 13519, 4427, 8122, 3765, 861, -1039, -4, -7, 8, 0, 0, 0, 0, 0, 0, 0, 0
434398161, 257, 13509, 4418, 8144, 3768, 873, -1052, 9, 12, -4, 0, 0, 0, 0, 0, 0, 0, 0
434419174, 219, 13466, 4383, 8235, 3775, 869, -1065, 4, 33, -9, 0, 0, 0, 0, 0, 0, 0, 0
434434159, 182, 13424, 4352, 8321, 3753, 865, -1066, 14, 43, -16, 0, 0, 0, 0, 0, 0, 0, 0
434456623, 145, 13382, 4321, 8405, 3773, 856, -1047, 14, 38, -14, 0, 0, 0, 0, 0, 0, 0, 0
434464746, 145, 13382, 4321, 8405, 3773, 856, -1047, 14, 38, -14, 67, 74, 84, 61, 54, 28, 28, 71
434465561, 145, 13382, 4321, 8405, 3773, 856, -1047, 14, 38, -14, 67, 74, 84, 61, 54, 28, 28, 71
434479090, 110, 13344, 4292, 8480, 3773, 828, -1066, 12, 24, -28, 67, 74, 84, 61, 54, 28, 28, 71
434487366, 110, 13344, 4292, 8480, 3773, 828, -1066, 12, 24, -28, 81, 87, 90, 61, 56, 28, 30, 73
434488046, 110, 13344, 4292, 8480, 3773, 828, -1066, 12, 24, -28, 81, 87, 90, 61, 56, 28, 30, 73
434494239, 80, 13308, 4269, 8549, 3766, 853, -1057, 18, -3, -51, 81, 87, 90, 61, 56, 28, 30, 73
434509749, 80, 13308, 4269, 8549, 3766, 853, -1057, 18, -3, -51, 81, 88, 85, 59, 62, 28, 30, 74
434510588, 80, 13308, 4269, 8549, 3766, 853, -1057, 18, -3, -51, 81, 88, 85, 59, 62, 28, 30, 74
434516733, 51, 13272, 4244, 8616, 3778, 855, -1057, 12, 4, -32, 81, 88, 85, 59, 62, 28, 30, 74
434524781, 51, 13272, 4244, 8616, 3778, 855, -1057, 12, 4, -32, 81, 80, 84, 58, 72, 28, 29, 74
434525558, 51, 13272, 4244, 8616, 3778, 855, -1057, 12, 4, -32, 81, 80, 84, 58, 72, 28, 29, 74
434539114, 17, 13239, 4221, 8678, 3783, 846, -1075, 36, 11, -17, 81, 80, 84, 58, 72, 28, 29, 74
434547255, 17, 13239, 4221, 8678, 3783, 846, -1075, 36, 11, -17, 69, 74, 82, 58, 82, 32, 29, 55
434548070, 17, 13239, 4221, 8678, 3783, 846, -1075, 36, 11, -17, 69, 74, 82, 58, 82, 32, 29, 55
434554211, -17, 13208, 4197, 8737, 3795, 853, -1078, 40, 7, -4, 69, 74, 82, 58, 82, 32, 29, 55
434569740, -17, 13208, 4197, 8737, 3795, 853, -1078, 40, 7, -4, 66, 75, 85, 67, 84, 34, 34, 55
434570538, -17, 13208, 4197, 8737, 3795, 853, -1078, 40, 7, -4, 66, 75, 85, 67, 84, 34, 34, 55
434576676, -49, 13178, 4176, 8792, 3794, 847, -1065, 45, -3, -18, 66, 75, 85, 67, 84, 34, 34, 55
434584758, -49, 13178, 4176, 8792, 3794, 847, -1065, 45, -3, -18, 55, 61, 70, 74, 85, 33, 32, 54
434585561, -49, 13178, 4176, 8792, 3794, 847, -1065, 45, -3, -18, 55, 61, 70, 74, 85, 33, 32, 54
434599084, -79, 13152, 4157, 8841, 3772, 851, -1070, 44, -23, -11, 55, 61, 70, 74, 85, 33, 32, 54
434607242, -79, 13152, 4157, 8841, 3772, 851, -1070, 44, -23, -11, 62, 63, 69, 79, 90, 34, 33, 57
434608076, -79, 13152, 4157, 8841, 3772, 851, -1070, 44, -23, -11, 62, 63, 69, 79, 90, 34, 33, 57
434614186, -104, 13127, 4134, 8888, 3775, 878, -1063, 26, -32, 11, 62, 63, 69, 79, 90, 34, 33, 57
434629737, -104, 13127, 4134, 8888, 3775, 878, -1063, 26, -32, 11, 60, 64, 65, 77, 93, 33, 33, 55
434630559, -104, 13127, 4134, 8888, 3775, 878, -1063, 26, -32, 11, 60, 64, 65, 77, 93, 33, 33, 55
434636714, -132, 13103, 4110, 8934, 3778, 863, -1053, 27, -26, 31, 60, 64, 65, 77, 93, 33, 33, 55
434644738, -132, 13103, 4110, 8934, 3778, 863, -1053, 27, -26, 31, 62, 66, 65, 77, 83, 30, 33, 56
434645600, -132, 13103, 4110, 8934, 3778, 863, -1053, 27, -26, 31, 62, 66, 65, 77, 83, 30, 33, 56
434659133, -159, 13081, 4087, 8977, 3794, 863, -1046, 33, -36, 26, 62, 66, 65, 77, 83, 30, 33, 56
434667248, -159, 13081, 4087, 8977, 3794, 863, -1046, 33, -36, 26, 62, 70, 72, 77, 85, 31, 30, 52
434668033, -159, 13081, 4087, 8977, 3794, 863, -1046, 33, -36, 26, 62, 70, 72, 77, 85, 31, 30, 52
434674210, -184, 13059, 4068, 9017, 3791, 857, -1041, 37, -41, 9, 62, 70, 72, 77, 85, 31, 30, 52
434689731, -184, 13059, 4068, 9017, 3791, 857, -1041, 37, -41, 9, 58, 65, 67, 69, 90, 33, 31, 51
434690551, -184, 13059, 4068, 9017, 3791, 857, -1041, 37, -41, 9, 58, 65, 67, 69, 90, 33, 31, 51
434696677, -207, 13037, 4049, 9055, 3776, 873, -1055, 35, -29, 20, 58, 65, 67, 69, 90, 33, 31, 51
434704702, -207, 13037, 4049, 9055, 3776, 873, -1055, 35, -29, 20, 49, 60, 67, 71, 87, 31, 30, 47
434705557, -207, 13037, 4049, 9055, 3776, 873, -1055, 35, -29, 20, 49, 60, 67, 71, 87, 31, 30, 47
434719136, -230, 13017, 4028, 9093, 3771, 882, -1058, 27, -20, 40, 49, 60, 67, 71, 87, 31, 30, 47
434727183, -230, 13017, 4028, 9093, 3771, 882, -1058, 27, -20, 40, 47, 59, 69, 69, 80, 33, 34, 46
434728005, -230, 13017, 4028, 9093, 3771, 882, -1058, 27, -20, 40, 47, 59, 69, 69, 80, 33, 34, 46
434734156, -251, 12997, 4005, 9132, 3771, 875, -1034, 13, -20, 50, 47, 59, 69, 69, 80, 33, 34, 46
434749760, -251, 12997, 4005, 9132, 3771, 875, -1034, 13, -20, 50, 44, 66, 83, 66, 87, 35, 33, 44
434750539, -251, 12997, 4005, 9132, 3771, 875, -1034, 13, -20, 50, 44, 66, 83, 66, 87, 35, 33, 44
434756630, -269, 12980, 3980, 9167, 3779, 845, -1047, -14, -34, 41, 44, 66, 83, 66, 87, 35, 33, 44
434764717, -269, 12980, 3980, 9167, 3779, 845, -1047, -14, -34, 41, 42, 56, 72, 64, 88, 37, 33, 46
434765554, -269, 12980, 3980, 9167, 3779, 845, -1047, -14, -34, 41, 42, 56, 72, 64, 88, 37, 33, 46
434779169, -285, 12963, 3956, 9200, 3787, 818, -1058, -20, -28, 27, 42, 56, 72, 64, 88, 37, 33, 46
434787253, -285, 12963, 3956, 9200, 3787, 818, -1058, -20, -28, 27, 43, 53, 70, 61, 98, 44, 32, 44
434788038, -285, 12963, 3956, 9200, 3787, 818, -1058, -20, -28, 27, 43, 53, 70, 61, 98, 44, 32, 44
434794161, -305, 12947, 3933, 9232, 3808, 808, -1063, -9, -24, 29, 43, 53, 70, 61, 98, 44, 32, 44
434809696, -305, 12947, 3933, 9232, 3808, 808, -1063, -9, -24, 29, 65, 74, 92, 110, 108, 48, 33, 58
434810559, -305, 12947, 3933, 9232, 3808, 808, -1063, -9, -24, 29, 65, 74, 92, 110, 108, 48, 33, 58
434816728, -321, 12931, 3917, 9260, 3855, 820, -1107, 2, -24, -7, 65, 74, 92, 110, 108, 48, 33, 58
434824716, -321, 12931, 3917, 9260, 3855, 820, -1107, 2, -24, -7, 94, 92, 99, 124, 113, 48, 38, 85
434825598, -321, 12931, 3917, 9260, 3855, 820, -1107, 2, -24, -7, 94, 92, 99, 124, 113, 48, 38, 85
434841784, -338, 12908, 3917, 9291, 3852, 827, -1115, 52, 28, -76, 94, 92, 99, 124, 113, 48, 38, 85
434842624, -338, 12908, 3917, 9291, 3852, 827, -1115, 52, 28, -76, 69, 74, 82, 58, 82, 32, 29, 55
434843434, -338, 12908, 3917, 9291, 3852, 827, -1115, 52, 28, -76, 69, 74, 82, 58, 82, 32, 29, 55
434844336, -17, 13208, 4197, 8737, 3795, 853, -1078, 40, 7, -4, 69, 74, 82, 58, 82, 32, 29, 55
434849324, -17, 13208, 4197, 8737, 3795, 853, -1078, 40, 7, -4, 66, 75, 85, 67, 84, 34, 34, 55
434850131, -17, 13208, 4197, 8737, 3795, 853, -1078, 40, 7, -4, 66, 75, 85, 67, 84, 34, 34, 55
434850945, -17, 13208, 4197, 8737, 3795, 853, -1078, 40, 7, -4, 66, 75, 85, 67, 84, 34, 34, 55
434851755, -17, 13208, 4197, 8737, 3795, 853, -1078, 40, 7, -4, 66, 75, 85, 67, 84, 34, 34, 55
434856724, -17, 13208, 4197, 8737, 3795, 853, -1078, 40, 7, -4, 66, 75, 85, 67, 84, 34, 34, 55
434857561, -17, 13208, 4197, 8737, 3795, 853, -1078, 40, 7, -4, 66, 75, 85, 67, 84, 34, 34, 55
434858353, -17, 13208, 4197, 8737, 3795, 853, -1078, 40, 7, -4, 66, 75, 85, 67, 84, 34, 34, 55
434859133, -17, 13208, 4197, 8737, 3795, 853, -1078, 40, 7, -4, 66, 75, 85, 67, 84, 34, 34, 55
434864270, -17, 13208, 4197, 8737, 3795, 853, -1078, 40, 7, -4, 66, 75, 85, 67, 84, 34, 34, 55
434865186, -49, 13178, 4176, 8792, 3794, 847, -1065, 45, -3, -18, 66, 75, 85, 67, 84, 34, 34, 55
434866048, -49, 13178, 4176, 8792, 3794, 847, -1065, 45, -3, -18, 55, 61, 70, 74, 85, 33, 32, 54
434866834, -49, 13178, 4176, 8792, 3794, 847, -1065, 45, -3, -18, 55, 61, 70, 74, 85, 33, 32, 54
434871859, -49, 13178, 4176, 8792, 3794, 847, -1065, 45, -3, -18, 55, 61, 70, 74, 85, 33, 32, 54
434872646, -49, 13178, 4176, 8792, 3794, 847, -1065, 45, -3, -18, 55, 61, 70, 74, 85, 33, 32, 54
434873484, -49, 13178, 4176, 8792, 3794, 847, -1065, 45, -3, -18, 55, 61, 70, 74, 85, 33, 32, 54
434874306, -49, 13178, 4176, 8792, 3794, 847, -1065, 45, -3, -18, 55, 61, 70, 74, 85, 33, 32, 54
434877644, -49, 13178, 4176, 8792, 3794, 847, -1065, 45, -3, -18, 55, 61, 70, 74, 85, 33, 32, 54
434878582, -49, 13178, 4176, 8792, 3794, 847, -1065, 45, -3, -18, 55, 61, 70, 74, 85, 33, 32, 54
434886737, -49, 13178, 4176, 8792, 3794, 847, -1065, 45, -3, -18, 55, 61, 70, 74, 85, 33, 32, 54
434887562, -49, 13178, 4176, 8792, 3794, 847, -1065, 45, -3, -18, 55, 61, 70, 74, 85, 33, 32, 54
434888363, -49, 13178, 4176, 8792, 3794, 847, -1065, 45, -3, -18, 55, 61, 70, 74, 85, 33, 32, 54
434889284, -79, 13152, 4157, 8841, 3772, 851, -1070, 44, -23, -11, 55, 61, 70, 74, 85, 33, 32, 54
434894308, -79, 13152, 4157, 8841, 3772, 851, -1070, 44, -23, -11, 62, 63, 69, 79, 90, 34, 33, 57
434895149, -79, 13152, 4157, 8841, 3772, 851, -1070, 44, -23, -11, 62, 63, 69, 79, 90, 34, 33, 57
434895934, -79, 13152, 4157, 8841, 3772, 851, -1070, 44, -23, -11, 62, 63, 69, 79, 90, 34, 33, 57
434896774, -79, 13152, 4157, 8841, 3772, 851, -1070, 44, -23, -11, 62, 63, 69, 79, 90, 34, 33, 57
434901705, -79, 13152, 4157, 8841, 3772, 851, -1070, 44, -23, -11, 62, 63, 69, 79, 90, 34, 33, 57
434902581, -79, 13152, 4157, 8841, 3772, 851, -1070, 44, -23, -11, 62, 63, 69, 79, 90, 34, 33, 57
434903334, -79, 13152, 4157, 8841, 3772, 851, -1070, 44, -23, -11, 62, 63, 69, 79, 90, 34, 33, 57
434904148, -79, 13152, 4157, 8841, 3772, 851, -1070, 44, -23, -11, 62, 63, 69, 79, 90, 34, 33, 57
434909229, -79, 13152, 4157, 8841, 3772, 851, -1070, 44, -23, -11, 62, 63, 69, 79, 90, 34, 33, 57
434910155, -104, 13127, 4134, 8888, 3775, 878, -1063, 26, -32, 11, 62, 63, 69, 79, 90, 34, 33, 57
434910970, -104, 13127, 4134, 8888, 3775, 878, -1063, 26, -32, 11, 60, 64, 65, 77, 93, 33, 33, 55
434911785, -104, 13127, 4134, 8888, 3775, 878, -1063, 26, -32, 11, 60, 64, 65, 77, 93, 33, 33, 55
434916783, -104, 13127, 4134, 8888, 3775, 878, -1063, 26, -32, 11, 60, 64, 65, 77, 93, 33, 33, 55
434917610, -104, 13127, 4134, 8888, 3775, 878, -1063, 26, -32, 11, 60, 64, 65, 77, 93, 33, 33, 55
434918406, -104, 13127, 4134, 8888, 3775, 878, -1063, 26, -32, 11, 60, 64, 65, 77, 93, 33, 33, 55
434919265, -104, 13127, 4134, 8888, 3775, 878, -1063, 26, -32, 11, 60, 64, 65, 77, 93, 33, 33, 55
434924233, -104, 13127, 4134, 8888, 3775, 878, -1063, 26, -32, 11, 60, 64, 65, 77, 93, 33, 33, 55
434925074, -104, 13127, 4134, 8888, 3775, 878, -1063, 26, -32, 11, 60, 64, 65, 77, 93, 33, 33, 55
434925859, -104, 13127, 4134, 8888, 3775, 878, -1063, 26, -32, 11, 60, 64, 65, 77, 93, 33, 33, 55
434926725, -104, 13127, 4134, 8888, 3775, 878, -1063, 26, -32, 11, 60, 64, 65, 77, 93, 33, 33, 55
434931733, -104, 13127, 4134, 8888, 3775, 878, -1063, 26, -32, 11, 60, 64, 65, 77, 93, 33, 33, 55
434932727, -132, 13103, 4110, 8934, 3778, 863, -1053, 27, -26, 31, 60, 64, 65, 77, 93, 33, 33, 55
434933559, -132, 13103, 4110, 8934, 3778, 863, -1053, 27, -26, 31, 62, 66, 65, 77, 83, 30, 33, 56
434934288, -132, 13103, 4110, 8934, 3778, 863, -1053, 27, -26, 31, 62, 66, 65, 77, 83, 30, 33, 56
434939308, -132, 13103, 4110, 8934, 3778, 863, -1053, 27, -26, 31, 62, 66, 65, 77, 83, 30, 33, 56
434940126, -132, 13103, 4110, 8934, 3778, 863, -1053, 27, -26, 31, 62, 66, 65, 77, 83, 30, 33, 56
434940934, -132, 13103, 4110, 8934, 3778, 863, -1053, 27, -26, 31, 62, 66, 65, 77, 83, 30, 33, 56
434941800, -132, 13103, 4110, 8934, 3778, 863, -1053, 27, -26, 31, 62, 66, 65, 77, 83, 30, 33, 56
434946709, -132, 13103, 4110, 8934, 3778, 863, -1053, 27, -26, 31, 62, 66, 65, 77, 83, 30, 33, 56
434947599, -132, 13103, 4110, 8934, 3778, 863, -1053, 27, -26, 31, 62, 66, 65, 77, 83, 30, 33, 56
434948359, -132, 13103, 4110, 8934, 3778, 863, -1053, 27, -26, 31, 62, 66, 65, 77, 83, 30, 33, 56
434949186, -132, 13103, 4110, 8934, 3778, 863, -1053, 27, -26, 31, 62, 66, 65, 77, 83, 30, 33, 56
434954208, -132, 13103, 4110, 8934, 3778, 863, -1053, 27, -26, 31, 62, 66, 65, 77, 83, 30, 33, 56
434955187, -159, 13081, 4087, 8977, 3794, 863, -1046, 33, -36, 26, 62, 66, 65, 77, 83, 30, 33, 56
434955959, -159, 13081, 4087, 8977, 3794, 863, -1046, 33, -36, 26, 62, 70, 72, 77, 85, 31, 30, 52
434956824, -159, 13081, 4087, 8977, 3794, 863, -1046, 33, -36, 26, 62, 70, 72, 77, 85, 31, 30, 52
434961808, -159, 13081, 4087, 8977, 3794, 863, -1046, 33, -36, 26, 62, 70, 72, 77, 85, 31, 30, 52
434962632, -159, 13081, 4087, 8977, 3794, 863, -1046, 33, -36, 26, 62, 70, 72, 77, 85, 31, 30, 52
434963410, -159, 13081, 4087, 8977, 3794, 863, -1046, 33, -36, 26, 62, 70, 72, 77, 85, 31, 30, 52
434964280, -159, 13081, 4087, 8977, 3794, 863, -1046, 33, -36, 26, 62, 70, 72, 77, 85, 31, 30, 52
434967885, -159, 13081, 4087, 8977, 3794, 863, -1046, 33, -36, 26, 62, 70, 72, 77, 85, 31, 30, 52
434968697, -159, 13081, 4087, 8977, 3794, 863, -1046, 33, -36, 26, 62, 70, 72, 77, 85, 31, 30, 52
434969566, -159, 13081, 4087, 8977, 3794, 863, -1046, 33, -36, 26, 62, 70, 72, 77, 85, 31, 30, 52
434974104, -677, 12423, 4113, 9834, 3953, 702, -1199, 104, 1460, -474, 62, 70, 72, 77, 85, 31, 30, 52
434989716, -677, 12423, 4113, 9834, 3953, 702, -1199, 104, 1460, -474, 77, 80, 82, 89, 180, 148, 95, 125
434990573, -677, 12423, 4113, 9834, 3953, 702, -1199, 104, 1460, -474, 77, 80, 82, 89, 180, 148, 95, 125
434996734, -714, 12196, 4194, 10079, 3875, 605, -1218, 112, 1864, -652, 77, 80, 82, 89, 180, 148, 95, 125
435004780, -714, 12196, 4194, 10079, 3875, 605, -1218, 112, 1864, -652, 97, 83, 78, 77, 125, 73, 88, 120
435005606, -714, 12196, 4194, 10079, 3875, 605, -1218, 112, 1864, -652, 97, 83, 78, 77, 125, 73, 88, 120
435021835, -732, 11924, 4306, 10352, 3747, 561, -1210, 106, 2129, -926, 97, 83, 78, 77, 125, 73, 88, 120
435022639, -230, 13017, 4028, 9093, 3771, 882, -1058, 27, -20, 40, 97, 83, 78, 77, 125, 73, 88, 120
435023451, -230, 13017, 4028, 9093, 3771, 882, -1058, 27, -20, 40, 47, 59, 69, 69, 80, 33, 34, 46
435024264, -230, 13017, 4028, 9093, 3771, 882, -1058, 27, -20, 40, 47, 59, 69, 69, 80, 33, 34, 46
435029357, -251, 12997, 4005, 9132, 3771, 875, -1034, 13, -20, 50, 47, 59, 69, 69, 80, 33, 34, 46
435030137, -251, 12997, 4005, 9132, 3771, 875, -1034, 13, -20, 50, 44, 66, 83, 66, 87, 35, 33, 44
435030960, -251, 12997, 4005, 9132, 3771, 875, -1034, 13, -20, 50, 44, 66, 83, 66, 87, 35, 33, 44
435031792, -251, 12997, 4005, 9132, 3771, 875, -1034, 13, -20, 50, 44, 66, 83, 66, 87, 35, 33, 44
435036733, -251, 12997, 4005, 9132, 3771, 875, -1034, 13, -20, 50, 44, 66, 83, 66, 87, 35, 33, 44
435037599, -251, 12997, 4005, 9132, 3771, 875, -1034, 13, -20, 50, 44, 66, 83, 66, 87, 35, 33, 44
435038384, -251, 12997, 4005, 9132, 3771, 875, -1034, 13, -20, 50, 44, 66, 83, 66, 87, 35, 33, 44
435039182, -251, 12997, 4005, 9132, 3771, 875, -1034, 13, -20, 50, 44, 66, 83, 66, 87, 35, 33, 44
435044234, -251, 12997, 4005, 9132, 3771, 875, -1034, 13, -20, 50, 44, 66, 83, 66, 87, 35, 33, 44
435045189, -269, 12980, 3980, 9167, 3779, 845, -1047, -14, -34, 41, 44, 66, 83, 66, 87, 35, 33, 44
435045983, -269, 12980, 3980, 9167, 3779, 845, -1047, -14, -34, 41, 42, 56, 72, 64, 88, 37, 33, 46
435046851, -269, 12980, 3980, 9167, 3779, 845, -1047, -14, -34, 41, 42, 56, 72, 64, 88, 37, 33, 46
435051808, -269, 12980, 3980, 9167, 3779, 845, -1047, -14, -34, 41, 42, 56, 72, 64, 88, 37, 33, 46
435052675, -269, 12980, 3980, 9167, 3779, 845, -1047, -14, -34, 41, 42, 56, 72, 64, 88, 37, 33, 46
435053514, -269, 12980, 3980, 9167, 3779, 845, -1047, -14, -34, 41, 42, 56, 72, 64, 88, 37, 33, 46
435054247, -269, 12980, 3980, 9167, 3779, 845, -1047, -14, -34, 41, 42, 56, 72, 64, 88, 37, 33, 46
435059208, -269, 12980, 3980, 9167, 3779, 845, -1047, -14, -34, 41, 42, 56, 72, 64, 88, 37, 33, 46
435060035, -269, 12980, 3980, 9167, 3779, 845, -1047, -14, -34, 41, 42, 56, 72, 64, 88, 37, 33, 46
435060833, -269, 12980, 3980, 9167, 3779, 845, -1047, -14, -34, 41, 42, 56, 72, 64, 88, 37, 33, 46
435061660, -269, 12980, 3980, 9167, 3779, 845, -1047, -14, -34, 41, 42, 56, 72, 64, 88, 37, 33, 46
435066720, -269, 12980, 3980, 9167, 3779, 845, -1047, -14, -34, 41, 42, 56, 72, 64, 88, 37, 33, 46
435067682, -285, 12963, 3956, 9200, 3787, 818, -1058, -20, -28, 27, 42, 56, 72, 64, 88, 37, 33, 46
435068463, -285, 12963, 3956, 9200, 3787, 818, -1058, -20, -28, 27, 43, 53, 70, 61, 98, 44, 32, 44
435069296, -285, 12963, 3956, 9200, 3787, 818, -1058, -20, -28, 27, 43, 53, 70, 61, 98, 44, 32, 44
435074327, -285, 12963, 3956, 9200, 3787, 818, -1058, -20, -28, 27, 43, 53, 70, 61, 98, 44, 32, 44
435075112, -285, 12963, 3956, 9200, 3787, 818, -1058, -20, -28, 27, 43, 53, 70, 61, 98, 44, 32, 44
435075899, -285, 12963, 3956, 9200, 3787, 818, -1058, -20, -28, 27, 43, 53, 70, 61, 98, 44, 32, 44
435076709, -285, 12963, 3956, 9200, 3787, 818, -1058, -20, -28, 27, 43, 53, 70, 61, 98, 44, 32, 44
435089225, -285, 12963, 3956, 9200, 3787, 818, -1058, -20, -28, 27, 43, 53, 70, 61, 98, 44, 32, 44
435090033, -285, 12963, 3956, 9200, 3787, 818, -1058, -20, -28, 27, 43, 53, 70, 61, 98, 44, 32, 44
435090863, -285, 12963, 3956, 9200, 3787, 818, -1058, -20, -28, 27, 43, 53, 70, 61, 98, 44, 32, 44
435091658, -285, 12963, 3956, 9200, 3787, 818, -1058, -20, -28, 27, 43, 53, 70, 61, 98, 44, 32, 44
435096773, -285, 12963, 3956, 9200, 3787, 818, -1058, -20, -28, 27, 43, 53, 70, 61, 98, 44, 32, 44
435097661, -305, 12947, 3933, 9232, 3808, 808, -1063, -9, -24, 29, 43, 53, 70, 61, 98, 44, 32, 44
435098585, -305, 12947, 3933, 9232, 3808, 808, -1063, -9, -24, 29, 65, 74, 92, 110, 108, 48, 33, 58
435099236, -305, 12947, 3933, 9232, 3808, 808, -1063, -9, -24, 29, 65, 74, 92, 110, 108, 48, 33, 58
435103699, -305, 12947, 3933, 9232, 3808, 808, -1063, -9, -24, 29, 65, 74, 92, 110, 108, 48, 33, 58
435104462, -305, 12947, 3933, 9232, 3808, 808, -1063, -9, -24, 29, 65, 74, 92, 110, 108, 48, 33, 58
435105291, -305, 12947, 3933, 9232, 3808, 808, -1063, -9, -24, 29, 65, 74, 92, 110, 108, 48, 33, 58
435106121, -305, 12947, 3933, 9232, 3808, 808, -1063, -9, -24, 29, 65, 74, 92, 110, 108, 48, 33, 58
435109736, -305, 12947, 3933, 9232, 3808, 808, -1063, -9, -24, 29, 94, 56, 50, 71, 138, 97, 71, 129
435110580, -305, 12947, 3933, 9232, 3808, 808, -1063, -9, -24, 29, 94, 56, 50, 71, 138, 97, 71, 129
435116685, -470, 9961, 5500, 11778, 3149, 935, -1051, 326, 2678, -2546, 94, 56, 50, 71, 138, 97, 71, 129
435124022, -470, 9961, 5500, 11778, 3149, 935, -1051, 326, 2678, -2546, 94, 63, 69, 94, 154, 108, 79, 121
435131566, -470, 9961, 5500, 11778, 3149, 935, -1051, 326, 2678, -2546, 94, 63, 69, 94, 154, 108, 79, 121
435139220, -310, 9445, 5834, 12044, 3050, 1021, -994, 304, 2780, -2881, 94, 63, 69, 94, 154, 108, 79, 121
435147183, -310, 9445, 5834, 12044, 3050, 1021, -994, 304, 2780, -2881, 79, 57, 76, 100, 154, 115, 78, 126
435148050, -310, 9445, 5834, 12044, 3050, 1021, -994, 304, 2780, -2881, 79, 57, 76, 100, 154, 115, 78, 126
435154159, -121, 8885, 6197, 12291, 2924, 1050, -999, 360, 2852, -3194, 79, 57, 76, 100, 154, 115, 78, 126
435169753, -121, 8885, 6197, 12291, 2924, 1050, -999, 360, 2852, -3194, 71, 75, 80, 101, 179, 115, 74, 151
435170599, -121, 8885, 6197, 12291, 2924, 1050, -999, 360, 2852, -3194, 71, 75, 80, 101, 179, 115, 74, 151
435176729, 124, 8272, 6550, 12533, 2717, 1252, -938, 147, 2941, -3509, 71, 75, 80, 101, 179, 115, 74, 151
435192881, 124, 8272, 6550, 12533, 2717, 1252, -938, 147, 2941, -3509, 69, 93, 101, 127, 197, 119, 77, 158
435193695, 124, 8272, 6550, 12533, 2717, 1252, -938, 147, 2941, -3509, 69, 93, 101, 127, 197, 119, 77, 158
435199225, 409, 7630, 6908, 12740, 2541, 1522, -996, 106, 2884, -3748, 69, 93, 101, 127, 197, 119, 77, 158
435207234, 409, 7630, 6908, 12740, 2541, 1522, -996, 106, 2884, -3748, 66, 92, 122, 139, 208, 119, 75, 150
435208072, 409, 7630, 6908, 12740, 2541, 1522, -996, 106, 2884, -3748, 66, 92, 122, 139, 208, 119, 75, 150
435214211, 748, 6954, 7251, 12920, 2156, 1524, -895, -51, 2819, -4026, 66, 92, 122, 139, 208, 119, 75, 150
435229785, 748, 6954, 7251, 12920, 2156, 1524, -895, -51, 2819, -4026, 63, 86, 128, 134, 279, 143, 78, 152
435230559, 748, 6954, 7251, 12920, 2156, 1524, -895, -51, 2819, -4026, 63, 86, 128, 134, 279, 143, 78, 152
435236715, 1114, 6282, 7540, 13071, 1681, 1472, -780, -273, 2621, -3995, 63, 86, 128, 134, 279, 143, 78, 152
435252221, 1114, 6282, 7540, 13071, 1681, 1472, -780, -273, 2621, -3995, 63, 91, 134, 140, 293, 141, 75, 143
435253046, 1114, 6282, 7540, 13071, 1681, 1472, -780, -273, 2621, -3995, 63, 91, 134, 140, 293, 141, 75, 143
435259192, 1502, 5641, 7752, 13200, 1213, 1538, -486, -580, 2306, -3830, 63, 91, 134, 140, 293, 141, 75, 143
435267242, 1502, 5641, 7752, 13200, 1213, 1538, -486, -580, 2306, -3830, 68, 82, 137, 149, 284, 142, 79, 143
435268033, 1502, 5641, 7752, 13200, 1213, 1538, -486, -580, 2306, -3830, 68, 82, 137, 149, 284, 142, 79, 143
435274170, 1866, 5049, 7893, 13309, 741, 1361, -157, -738, 2038, -3438, 68, 82, 137, 149, 284, 142, 79, 143
435289723, 1866, 5049, 7893, 13309, 741, 1361, -157, -738, 2038, -3438, 62, 62, 130, 170, 307, 147, 80, 145
435290572, 1866, 5049, 7893, 13309, 741, 1361, -157, -738, 2038, -3438, 62, 62, 130, 170, 307, 147, 80, 145
435296691, 2204, 4526, 8054, 13349, 397, 1195, -87, -366, 1664, -3200, 62, 62, 130, 170, 307, 147, 80, 145
435312227, 2204, 4526, 8054, 13349, 397, 1195, -87, -366, 1664, -3200, 73, 86, 119, 185, 315, 161, 90, 195
435313009, 2204, 4526, 8054, 13349, 397, 1195, -87, -366, 1664, -3200, 73, 86, 119, 185, 315, 161, 90, 195
435319168, 2518, 4132, 8258, 13297, 100, 811, -6, 251, 1013, -2853, 73, 86, 119, 185, 315, 161, 90, 195
435327237, 2518, 4132, 8258, 13297, 100, 811, -6, 251, 1013, -2853, 80, 94, 109, 180, 265, 144, 92, 253
435328035, 2518, 4132, 8258, 13297, 100, 811, -6, 251, 1013, -2853, 80, 94, 109, 180, 265, 144, 92, 253
435334213, 2789, 3883, 8516, 13154, -234, 753, 155, 966, 367, -2372, 80, 94, 109, 180, 265, 144, 92, 253
435349725, 2789, 3883, 8516, 13154, -234, 753, 155, 966, 367, -2372, 95, 108, 100, 182, 267, 154, 103, 269
435350558, 2789, 3883, 8516, 13154, -234, 753, 155, 966, 367, -2372, 95, 108, 100, 182, 267, 154, 103, 269
435364085, 2936, 3797, 8838, 12933, 18, 1062, 219, 1793, -30, -1526, 95, 108, 100, 182, 267, 154, 103, 269
435372199, 2936, 3797, 8838, 12933, 18, 1062, 219, 1793, -30, -1526, 92, 106, 95, 192, 305, 156, 118, 259
435373009, 2936, 3797, 8838, 12933, 18, 1062, 219, 1793, -30, -1526, 92, 106, 95, 192, 305, 156, 118, 259
435394089, 2970, 3828, 9181, 12674, 384, 1584, 228, 2256, -223, -779, 92, 106, 95, 192, 305, 156, 118, 259
435402208, 2970, 3828, 9181, 12674, 384, 1584, 228, 2256, -223, -779, 102, 107, 84, 161, 281, 160, 128, 258
435403057, 2970, 3828, 9181, 12674, 384, 1584, 228, 2256, -223, -779, 102, 107, 84, 161, 281, 160, 128, 258
435417299, 2925, 3914, 9472, 12442, 759, 1988, 124, 2096, -218, -205, 102, 107, 84, 161, 281, 160, 128, 258
435418112, 2817, 4044, 9684, 12261, 1010, 2174, -40, 1521, -126, 72, 102, 107, 84, 161, 281, 160, 128, 258
435424690, 2817, 4044, 9684, 12261, 1010, 2174, -40, 1521, -126, 72, 97, 90, 70, 133, 268, 149, 121, 228
435425548, 2817, 4044, 9684, 12261, 1010, 2174, -40, 1521, -126, 72, 97, 90, 70, 133, 268, 149, 121, 228
435447939, 2709, 4159, 9796, 12158, 1155, 2136, -215, 771, -34, 169, 97, 90, 70, 133, 268, 149, 121, 228
435448731, 2709, 4159, 9796, 12158, 1155, 2136, -215, 771, -34, 169, 87, 82, 63, 140, 256, 137, 114, 169
435449558, 2709, 4159, 9796, 12158, 1155, 2136, -215, 771, -34, 169, 87, 82, 63, 140, 256, 137, 114, 169
435469084, 2615, 4258, 9824, 12121, 1196, 2035, -340, 119, 10, 225, 87, 82, 63, 140, 256, 137, 114, 169
435477133, 2615, 4258, 9824, 12121, 1196, 2035, -340, 119, 10, 225, 71, 72, 68, 134, 233, 121, 107, 142
435478010, 2615, 4258, 9824, 12121, 1196, 2035, -340, 119, 10, 225, 71, 72, 68, 134, 233, 121, 107, 142
435491561, 2537, 4347, 9789, 12134, 1206, 1884, -416, -368, 18, 257, 71, 72, 68, 134, 233, 121, 107, 142
435500432, 2473, 4434, 9714, 12176, 1256, 1745, -444, -660, 4, 249, 71, 72, 68, 134, 233, 121, 107, 142
435501234, 2473, 4434, 9714, 12176, 1256, 1745, -444, -660, 4, 249, 75, 72, 67, 103, 169, 117, 92, 141
435502036, 2473, 4434, 9714, 12176, 1256, 1745, -444, -660, 4, 249, 75, 72, 67, 103, 169, 117, 92, 141
435521582, 2421, 4518, 9626, 12226, 1278, 1613, -446, -755, -11, 206, 75, 72, 67, 103, 169, 117, 92, 141
435529709, 2421, 4518, 9626, 12226, 1278, 1613, -446, -755, -11, 206, 64, 71, 63, 106, 148, 97, 72, 149
435530600, 2421, 4518, 9626, 12226, 1278, 1613, -446, -755, -11, 206, 64, 71, 63, 106, 148, 97, 72, 149
435544087, 2378, 4600, 9554, 12260, 1259, 1476, -476, -659, -35, 133, 64, 71, 63, 106, 148, 97, 72, 149
435552192, 2378, 4600, 9554, 12260, 1259, 1476, -476, -659, -35, 133, 60, 68, 67, 106, 135, 90, 69, 141
435553016, 2378, 4600, 9554, 12260, 1259, 1476, -476, -659, -35, 133, 60, 68, 67, 106, 135, 90, 69, 141
435566586, 2337, 4688, 9516, 12264, 1242, 1403, -544, -446, -71, 77, 60, 68, 67, 106, 135, 90, 69, 141
435574726, 2337, 4688, 9516, 12264, 1242, 1403, -544, -446, -71, 77, 63, 78, 80, 108, 136, 99, 65, 125
435575561, 2337, 4688, 9516, 12264, 1242, 1403, -544, -446, -71, 77, 63, 78, 80, 108, 136, 99, 65, 125
435606068, 2295, 4784, 9503, 12245, 1221, 1416, -554, -255, -124, 67, 63, 78, 80, 108, 136, 99, 65, 125
435606915, 2250, 4889, 9516, 12202, 1216, 1413, -585, -68, -165, 66, 63, 78, 80, 108, 136, 99, 65, 125
435607708, 2250, 4889, 9516, 12202, 1216, 1413, -585, -68, -165, 66, 68, 67, 77, 104, 143, 98, 84, 140
435608585, 2250, 4889, 9516, 12202, 1216, 1413, -585, -68, -165, 66, 68, 67, 77, 104, 143, 98, 84, 140
435619085, 2195, 5001, 9551, 12139, 1216, 1376, -605, 114, -181, 75, 68, 67, 77, 104, 143, 98, 84, 140
435627209, 2195, 5001, 9551, 12139, 1216, 1376, -605, 114, -181, 75, 67, 70, 78, 115, 143, 95, 82, 132
435628009, 2195, 5001, 9551, 12139, 1216, 1376, -605, 114, -181, 75, 67, 70, 78, 115, 143, 95, 82, 132
435650451, 2130, 5117, 9606, 12059, 1195, 1385, -617, 276, -181, 106, 67, 70, 78, 115, 143, 95, 82, 132
435651237, 2130, 5117, 9606, 12059, 1195, 1385, -617, 276, -181, 106, 67, 67, 78, 107, 136, 90, 81, 113
435652074, 2130, 5117, 9606, 12059, 1195, 1385, -617, 276, -181, 106, 67, 67, 78, 107, 136, 90, 81, 113
435671572, 2058, 5231, 9670, 11971, 1164, 1411, -629, 360, -170, 142, 67, 67, 78, 107, 136, 90, 81, 113
435679736, 2058, 5231, 9670, 11971, 1164, 1411, -629, 360, -170, 142, 69, 71, 79, 108, 139, 91, 85, 106
435680569, 2058, 5231, 9670, 11971, 1164, 1411, -629, 360, -170, 142, 69, 71, 79, 108, 139, 91, 85, 106
435694076, 1981, 5346, 9734, 11881, 1159, 1409, -633, 388, -163, 176, 69, 71, 79, 108, 139, 91, 85, 106
