Timestamp, Orientation x, Orientation y, Orientation z, Orientation w, Acceleration x, Acceleration y, Acceleration z, Rotation x, Rotation y, Rotation z, EMG 0, EMG 1, EMG 2, EMG 3, EMG 4, EMG 5, EMG 6, EMG 7
461793269, -975, 3267, 14562, 6688, 61, 1364, -894, -99, -24, 56, 0, 0, 0, 0, 0, 0, 0, 0
461801416, -1077, 3311, 14503, 6778, 1981, 2082, -774, -38, -60, 40, 0, 0, 0, 0, 0, 0, 0, 0
461802207, -1032, 3311, 14516, 6758, 325, 1884, -1988, -22, -60, 50, 0, 0, 0, 0, 0, 0, 0, 0
461815756, -913, 3289, 14547, 6719, -706, 1396, -1810, -60, -79, 74, 0, 0, 0, 0, 0, 0, 0, 0
461830738, -966, 3336, 14497, 6796, 1377, 1710, -696, -114, -134, 104, 0, 0, 0, 0, 0, 0, 0, 0
461853229, -985, 3359, 14472, 6835, 784, 1649, -1095, -76, -18, 117, 0, 0, 0, 0, 0, 0, 0, 0
461861372, -985, 3359, 14472, 6835, 784, 1649, -1095, -76, -18, 117, 52, 134, 58, 29, 27, 29, 30, 32
461862170, -985, 3359, 14472, 6835, 784, 1649, -1095, -76, -18, 117, 52, 134, 58, 29, 27, 29, 30, 32
461875688, -972, 3387, 14456, 6856, 667, 1789, -1207, -12, -150, 131, 52, 134, 58, 29, 27, 29, 30, 32
461883887, -972, 3387, 14456, 6856, 667, 1789, -1207, -12, -150, 131, 59, 171, 64, 34, 27, 31, 32, 33
461884682, -972, 3387, 14456, 6856, 667, 1789, -1207, -12, -150, 131, 59, 171, 64, 34, 27, 31, 32, 33
461900986, -964, 3424, 14435, 6883, 701, 1798, -1167, -29, -158, 177, 59, 171, 64, 34, 27, 31, 32, 33
461901829, -964, 3424, 14435, 6883, 701, 1798, -1167, -29, -158, 177, 59, 171, 64, 34, 27, 31, 32, 33
461902674, -975, 3267, 14562, 6688, 61, 1364, -894, -99, -24, 56, 59, 171, 64, 34, 27, 31, 32, 33
461903469, -1077, 3311, 14503, 6778, 1981, 2082, -774, -38, -60, 40, 59, 171, 64, 34, 27, 31, 32, 33
461908446, -1032, 3311, 14516, 6758, 325, 1884, -1988, -22, -60, 50, 59, 171, 64, 34, 27, 31, 32, 33
461909267, -913, 3289, 14547, 6719, -706, 1396, -1810, -60, -79, 74, 59, 171, 64, 34, 27, 31, 32, 33
461910110, -966, 3336, 14497, 6796, 1377, 1710, -696, -114, -134, 104, 59, 171, 64, 34, 27, 31, 32, 33
461910909, -966, 3336, 14497, 6796, 1377, 1710, -696, -114, -134, 104, 52, 134, 58, 29, 27, 29, 30, 32
461915949, -966, 3336, 14497, 6796, 1377, 1710, -696, -114, -134, 104, 59, 171, 64, 34, 27, 31, 32, 33
461916709, -966, 3336, 14497, 6796, 1377, 1710, -696, -114, -134, 104, 59, 171, 64, 34, 27, 31, 32, 33
461917599, -966, 3336, 14497, 6796, 1377, 1710, -696, -114, -134, 104, 59, 171, 64, 34, 27, 31, 32, 33
461918350, -966, 3336, 14497, 6796, 1377, 1710, -696, -114, -134, 104, 59, 171, 64, 34, 27, 31, 32, 33
461923306, -966, 3336, 14497, 6796, 1377, 1710, -696, -114, -134, 104, 59, 171, 64, 34, 27, 31, 32, 33
461924109, -966, 3336, 14497, 6796, 1377, 1710, -696, -114, -134, 104, 59, 171, 64, 34, 27, 31, 32, 33
461924956, -966, 3336, 14497, 6796, 1377, 1710, -696, -114, -134, 104, 59, 171, 64, 34, 27, 31, 32, 33
461925736, -966, 3336, 14497, 6796, 1377, 1710, -696, -114, -134, 104, 59, 171, 64, 34, 27, 31, 32, 33
461930886, -966, 3336, 14497, 6796, 1377, 1710, -696, -114, -134, 104, 59, 171, 64, 34, 27, 31, 32, 33
461931811, -964, 3424, 14435, 6883, 701, 1798, -1167, -29, -158, 177, 59, 171, 64, 34, 27, 31, 32, 33
461932649, -964, 3424, 14435, 6883, 701, 1798, -1167, -29, -158, 177, 67, 186, 72, 40, 39, 30, 33, 37
461933461, -964, 3424, 14435, 6883, 701, 1798, -1167, -29, -158, 177, 67, 186, 72, 40, 39, 30, 33, 37
461938462, -964, 3424, 14435, 6883, 701, 1798, -1167, -29, -158, 177, 67, 186, 72, 40, 39, 30, 33, 37
461939239, -964, 3424, 14435, 6883, 701, 1798, -1167, -29, -158, 177, 67, 186, 72, 40, 39, 30, 33, 37
461940088, -964, 3424, 14435, 6883, 701, 1798, -1167, -29, -158, 177, 67, 186, 72, 40, 39, 30, 33, 37
461940885, -964, 3424, 14435, 6883, 701, 1798, -1167, -29, -158, 177, 67, 186, 72, 40, 39, 30, 33, 37
461945840, -964, 3424, 14435, 6883, 701, 1798, -1167, -29, -158, 177, 67, 186, 72, 40, 39, 30, 33, 37
461946663, -964, 3424, 14435, 6883, 701, 1798, -1167, -29, -158, 177, 67, 186, 72, 40, 39, 30, 33, 37
461947462, -964, 3424, 14435, 6883, 701, 1798, -1167, -29, -158, 177, 67, 186, 72, 40, 39, 30, 33, 37
461948324, -964, 3424, 14435, 6883, 701, 1798, -1167, -29, -158, 177, 67, 186, 72, 40, 39, 30, 33, 37
461960824, -964, 3424, 14435, 6883, 701, 1798, -1167, -29, -158, 177, 67, 186, 72, 40, 39, 30, 33, 37
461961760, -1001, 3500, 14379, 6958, 1359, 1828, -769, -149, -239, 256, 67, 186, 72, 40, 39, 30, 33, 37
461962586, -1001, 3500, 14379, 6958, 1359, 1828, -769, -149, -239, 256, 89, 281, 85, 53, 71, 31, 35, 44
461963386, -1001, 3500, 14379, 6958, 1359, 1828, -769, -149, -239, 256, 89, 281, 85, 53, 71, 31, 35, 44
461968410, -1001, 3500, 14379, 6958, 1359, 1828, -769, -149, -239, 256, 89, 281, 85, 53, 71, 31, 35, 44
461969205, -1001, 3500, 14379, 6958, 1359, 1828, -769, -149, -239, 256, 89, 281, 85, 53, 71, 31, 35, 44
461969985, -1001, 3500, 14379, 6958, 1359, 1828, -769, -149, -239, 256, 89, 281, 85, 53, 71, 31, 35, 44
461970812, -1001, 3500, 14379, 6958, 1359, 1828, -769, -149, -239, 256, 89, 281, 85, 53, 71, 31, 35, 44
461975808, -1001, 3500, 14379, 6958, 1359, 1828, -769, -149, -239, 256, 89, 281, 85, 53, 71, 31, 35, 44
461976633, -1001, 3500, 14379, 6958, 1359, 1828, -769, -149, -239, 256, 89, 281, 85, 53, 71, 31, 35, 44
461977435, -1001, 3500, 14379, 6958, 1359, 1828, -769, -149, -239, 256, 89, 281, 85, 53, 71, 31, 35, 44
461978283, -1001, 3500, 14379, 6958, 1359, 1828, -769, -149, -239, 256, 89, 281, 85, 53, 71, 31, 35, 44
461983400, -1001, 3500, 14379, 6958, 1359, 1828, -769, -149, -239, 256, 89, 281, 85, 53, 71, 31, 35, 44
461984285, -1085, 3588, 14296, 7071, 1755, 1978, -329, -135, -178, 322, 89, 281, 85, 53, 71, 31, 35, 44
461985149, -1085, 3588, 14296, 7071, 1755, 1978, -329, -135, -178, 322, 100, 285, 90, 83, 170, 62, 43, 53
461985912, -1085, 3588, 14296, 7071, 1755, 1978, -329, -135, -178, 322, 100, 285, 90, 83, 170, 62, 43, 53
461990922, -1085, 3588, 14296, 7071, 1755, 1978, -329, -135, -178, 322, 100, 285, 90, 83, 170, 62, 43, 53
461991734, -1085, 3588, 14296, 7071, 1755, 1978, -329, -135, -178, 322, 100, 285, 90, 83, 170, 62, 43, 53
461992572, -1085, 3588, 14296, 7071, 1755, 1978, -329, -135, -178, 322, 100, 285, 90, 83, 170, 62, 43, 53
461993360, -1085, 3588, 14296, 7071, 1755, 1978, -329, -135, -178, 322, 100, 285, 90, 83, 170, 62, 43, 53
461998329, -1085, 3588, 14296, 7071, 1755, 1978, -329, -135, -178, 322, 100, 285, 90, 83, 170, 62, 43, 53
461999142, -1085, 3588, 14296, 7071, 1755, 1978, -329, -135, -178, 322, 100, 285, 90, 83, 170, 62, 43, 53
461999974, -1085, 3588, 14296, 7071, 1755, 1978, -329, -135, -178, 322, 100, 285, 90, 83, 170, 62, 43, 53
462000758, -1085, 3588, 14296, 7071, 1755, 1978, -329, -135, -178, 322, 100, 285, 90, 83, 170, 62, 43, 53
462005879, -1085, 3588, 14296, 7071, 1755, 1978, -329, -135, -178, 322, 100, 285, 90, 83, 170, 62, 43, 53
462006777, -1104, 3668, 14246, 7126, 1228, 2291, -1518, -229, -167, 379, 100, 285, 90, 83, 170, 62, 43, 53
462007566, -1104, 3668, 14246, 7126, 1228, 2291, -1518, -229, -167, 379, 102, 299, 87, 116, 193, 69, 50, 56
462008360, -1104, 3668, 14246, 7126, 1228, 2291, -1518, -229, -167, 379, 102, 299, 87, 116, 193, 69, 50, 56
462013160, -1104, 3668, 14246, 7126, 1228, 2291, -1518, -229, -167, 379, 102, 299, 87, 116, 193, 69, 50, 56
462014007, -1104, 3668, 14246, 7126, 1228, 2291, -1518, -229, -167, 379, 102, 299, 87, 116, 193, 69, 50, 56
462014808, -1104, 3668, 14246, 7126, 1228, 2291, -1518, -229, -167, 379, 102, 299, 87, 116, 193, 69, 50, 56
462020812, -1104, 3668, 14246, 7126, 1228, 2291, -1518, -229, -167, 379, 102, 299, 87, 116, 193, 69, 50, 56
462021608, -1104, 3668, 14246, 7126, 1228, 2291, -1518, -229, -167, 379, 102, 299, 87, 116, 193, 69, 50, 56
462022463, -1104, 3668, 14246, 7126, 1228, 2291, -1518, -229, -167, 379, 102, 299, 87, 116, 193, 69, 50, 56
462023240, -1104, 3668, 14246, 7126, 1228, 2291, -1518, -229, -167, 379, 102, 299, 87, 116, 193, 69, 50, 56
462028363, -1104, 3668, 14246, 7126, 1228, 2291, -1518, -229, -167, 379, 102, 299, 87, 116, 193, 69, 50, 56
462029184, -1104, 3668, 14246, 7126, 1228, 2291, -1518, -229, -167, 379, 102, 299, 87, 116, 193, 69, 50, 56
462030111, -1027, 3727, 14220, 7159, -124, 2014, -1639, -324, -149, 512, 102, 299, 87, 116, 193, 69, 50, 56
462030961, -1027, 3727, 14220, 7159, -124, 2014, -1639, -324, -149, 512, 103, 293, 95, 154, 272, 80, 51, 55
462035934, -1027, 3727, 14220, 7159, -124, 2014, -1639, -324, -149, 512, 103, 293, 95, 154, 272, 80, 51, 55
462036770, -1027, 3727, 14220, 7159, -124, 2014, -1639, -324, -149, 512, 103, 293, 95, 154, 272, 80, 51, 55
462037558, -1027, 3727, 14220, 7159, -124, 2014, -1639, -324, -149, 512, 103, 293, 95, 154, 272, 80, 51, 55
462038398, -1027, 3727, 14220, 7159, -124, 2014, -1639, -324, -149, 512, 103, 293, 95, 154, 272, 80, 51, 55
462043350, -1027, 3727, 14220, 7159, -124, 2014, -1639, -324, -149, 512, 103, 293, 95, 154, 272, 80, 51, 55
462044133, -1027, 3727, 14220, 7159, -124, 2014, -1639, -324, -149, 512, 103, 293, 95, 154, 272, 80, 51, 55
462044998, -1027, 3727, 14220, 7159, -124, 2014, -1639, -324, -149, 512, 103, 293, 95, 154, 272, 80, 51, 55
462045784, -1027, 3727, 14220, 7159, -124, 2014, -1639, -324, -149, 512, 103, 293, 95, 154, 272, 80, 51, 55
462050861, -1027, 3727, 14220, 7159, -124, 2014, -1639, -324, -149, 512, 103, 293, 95, 154, 272, 80, 51, 55
462051786, -1009, 3851, 14134, 7266, 805, 1910, -1084, -606, -301, 636, 103, 293, 95, 154, 272, 80, 51, 55
462052575, -1009, 3851, 14134, 7266, 805, 1910, -1084, -606, -301, 636, 115, 291, 111, 197, 324, 84, 54, 57
462053387, -1009, 3851, 14134, 7266, 805, 1910, -1084, -606, -301, 636, 115, 291, 111, 197, 324, 84, 54, 57
462058384, -1009, 3851, 14134, 7266, 805, 1910, -1084, -606, -301, 636, 115, 291, 111, 197, 324, 84, 54, 57
462059208, -1009, 3851, 14134, 7266, 805, 1910, -1084, -606, -301, 636, 115, 291, 111, 197, 324, 84, 54, 57
462060033, -1009, 3851, 14134, 7266, 805, 1910, -1084, -606, -301, 636, 115, 291, 111, 197, 324, 84, 54, 57
462060832, -1009, 3851, 14134, 7266, 805, 1910, -1084, -606, -301, 636, 115, 291, 111, 197, 324, 84, 54, 57
462065799, -1009, 3851, 14134, 7266, 805, 1910, -1084, -606, -301, 636, 115, 291, 111, 197, 324, 84, 54, 57
462066631, -1009, 3851, 14134, 7266, 805, 1910, -1084, -606, -301, 636, 115, 291, 111, 197, 324, 84, 54, 57
462067463, -1009, 3851, 14134, 7266, 805, 1910, -1084, -606, -301, 636, 115, 291, 111, 197, 324, 84, 54, 57
462068286, -1009, 3851, 14134, 7266, 805, 1910, -1084, -606, -301, 636, 115, 291, 111, 197, 324, 84, 54, 57
462073318, -1009, 3851, 14134, 7266, 805, 1910, -1084, -606, -301, 636, 115, 291, 111, 197, 324, 84, 54, 57
462074240, -1009, 3981, 14041, 7375, 885, 1944, -1111, -628, -232, 699, 115, 291, 111, 197, 324, 84, 54, 57
462075114, -1009, 3981, 14041, 7375, 885, 1944, -1111, -628, -232, 699, 102, 207, 111, 219, 357, 92, 72, 57
462075895, -1009, 3981, 14041, 7375, 885, 1944, -1111, -628, -232, 699, 102, 207, 111, 219, 357, 92, 72, 57
462080904, -1009, 3981, 14041, 7375, 885, 1944, -1111, -628, -232, 699, 102, 207, 111, 219, 357, 92, 72, 57
462081716, -1009, 3981, 14041, 7375, 885, 1944, -1111, -628, -232, 699, 102, 207, 111, 219, 357, 92, 72, 57
462082558, -1009, 3981, 14041, 7375, 885, 1944, -1111, -628, -232, 699, 102, 207, 111, 219, 357, 92, 72, 57
462083366, -1009, 3981, 14041, 7375, 885, 1944, -1111, -628, -232, 699, 102, 207, 111, 219, 357, 92, 72, 57
462088286, -1009, 3981, 14041, 7375, 885, 1944, -1111, -628, -232, 699, 102, 207, 111, 219, 357, 92, 72, 57
462089119, -1009, 3981, 14041, 7375, 885, 1944, -1111, -628, -232, 699, 102, 207, 111, 219, 357, 92, 72, 57
462089911, -1009, 3981, 14041, 7375, 885, 1944, -1111, -628, -232, 699, 102, 207, 111, 219, 357, 92, 72, 57
462090731, -1009, 3981, 14041, 7375, 885, 1944, -1111, -628, -232, 699, 102, 207, 111, 219, 357, 92, 72, 57
462095857, -1009, 3981, 14041, 7375, 885, 1944, -1111, -628, -232, 699, 102, 207, 111, 219, 357, 92, 72, 57
462096799, -1014, 4120, 13935, 7498, 982, 1890, -1025, -721, -242, 724, 102, 207, 111, 219, 357, 92, 72, 57
462097607, -1014, 4120, 13935, 7498, 982, 1890, -1025, -721, -242, 724, 113, 194, 118, 232, 368, 102, 113, 100
462098441, -1014, 4120, 13935, 7498, 982, 1890, -1025, -721, -242, 724, 113, 194, 118, 232, 368, 102, 113, 100
462103434, -1014, 4120, 13935, 7498, 982, 1890, -1025, -721, -242, 724, 113, 194, 118, 232, 368, 102, 113, 100
462104251, -1014, 4120, 13935, 7498, 982, 1890, -1025, -721, -242, 724, 113, 194, 118, 232, 368, 102, 113, 100
462105058, -1014, 4120, 13935, 7498, 982, 1890, -1025, -721, -242, 724, 113, 194, 118, 232, 368, 102, 113, 100
462105900, -1014, 4120, 13935, 7498, 982, 1890, -1025, -721, -242, 724, 113, 194, 118, 232, 368, 102, 113, 100
462110848, -1014, 4120, 13935, 7498, 982, 1890, -1025, -721, -242, 724, 113, 194, 118, 232, 368, 102, 113, 100
462111632, -1014, 4120, 13935, 7498, 982, 1890, -1025, -721, -242, 724, 113, 194, 118, 232, 368, 102, 113, 100
462112502, -1014, 4120, 13935, 7498, 982, 1890, -1025, -721, -242, 724, 113, 194, 118, 232, 368, 102, 113, 100
462113259, -1014, 4120, 13935, 7498, 982, 1890, -1025, -721, -242, 724, 113, 194, 118, 232, 368, 102, 113, 100
462118373, -1014, 4120, 13935, 7498, 982, 1890, -1025, -721, -242, 724, 113, 194, 118, 232, 368, 102, 113, 100
462119261, -1033, 4253, 13835, 7606, 1045, 1960, -1090, -631, -179, 728, 113, 194, 118, 232, 368, 102, 113, 100
462120110, -1033, 4253, 13835, 7606, 1045, 1960, -1090, -631, -179, 728, 116, 161, 123, 235, 386, 111, 160, 132
462120909, -1033, 4253, 13835, 7606, 1045, 1960, -1090, -631, -179, 728, 116, 161, 123, 235, 386, 111, 160, 132
462125948, -1033, 4253, 13835, 7606, 1045, 1960, -1090, -631, -179, 728, 116, 161, 123, 235, 386, 111, 160, 132
462126733, -1033, 4253, 13835, 7606, 1045, 1960, -1090, -631, -179, 728, 116, 161, 123, 235, 386, 111, 160, 132
462127584, -1033, 4253, 13835, 7606, 1045, 1960, -1090, -631, -179, 728, 116, 161, 123, 235, 386, 111, 160, 132
462128361, -1033, 4253, 13835, 7606, 1045, 1960, -1090, -631, -179, 728, 116, 161, 123, 235, 386, 111, 160, 132
462133308, -1033, 4253, 13835, 7606, 1045, 1960, -1090, -631, -179, 728, 116, 161, 123, 235, 386, 111, 160, 132
462134134, -1033, 4253, 13835, 7606, 1045, 1960, -1090, -631, -179, 728, 116, 161, 123, 235, 386, 111, 160, 132
462134947, -1033, 4253, 13835, 7606, 1045, 1960, -1090, -631, -179, 728, 116, 161, 123, 235, 386, 111, 160, 132
462135761, -1033, 4253, 13835, 7606, 1045, 1960, -1090, -631, -179, 728, 116, 161, 123, 235, 386, 111, 160, 132
462140809, -1033, 4253, 13835, 7606, 1045, 1960, -1090, -631, -179, 728, 116, 161, 123, 235, 386, 111, 160, 132
462141800, -1036, 4390, 13722, 7732, 1021, 2031, -1042, -758, -220, 753, 116, 161, 123, 235, 386, 111, 160, 132
462142558, -1036, 4390, 13722, 7732, 1021, 2031, -1042, -758, -220, 753, 116, 134, 123, 237, 363, 110, 183, 147
462143427, -1036, 4390, 13722, 7732, 1021, 2031, -1042, -758, -220, 753, 116, 134, 123, 237, 363, 110, 183, 147
462148405, -1036, 4390, 13722, 7732, 1021, 2031, -1042, -758, -220, 753, 116, 134, 123, 237, 363, 110, 183, 147
462149230, -1036, 4390, 13722, 7732, 1021, 2031, -1042, -758, -220, 753, 116, 134, 123, 237, 363, 110, 183, 147
462150008, -1036, 4390, 13722, 7732, 1021, 2031, -1042, -758, -220, 753, 116, 134, 123, 237, 363, 110, 183, 147
462150863, -1036, 4390, 13722, 7732, 1021, 2031, -1042, -758, -220, 753, 116, 134, 123, 237, 363, 110, 183, 147
462155834, -1036, 4390, 13722, 7732, 1021, 2031, -1042, -758, -220, 753, 116, 134, 123, 237, 363, 110, 183, 147
462156686, -1036, 4390, 13722, 7732, 1021, 2031, -1042, -758, -220, 753, 116, 134, 123, 237, 363, 110, 183, 147
462157461, -1036, 4390, 13722, 7732, 1021, 2031, -1042, -758, -220, 753, 116, 134, 123, 237, 363, 110, 183, 147
462158276, -1036, 4390, 13722, 7732, 1021, 2031, -1042, -758, -220, 753, 116, 134, 123, 237, 363, 110, 183, 147
462163374, -1036, 4390, 13722, 7732, 1021, 2031, -1042, -758, -220, 753, 116, 134, 123, 237, 363, 110, 183, 147
462164313, -999, 4547, 13596, 7867, 954, 1950, -950, -908, -428, 776, 116, 134, 123, 237, 363, 110, 183, 147
462165108, -999, 4547, 13596, 7867, 954, 1950, -950, -908, -428, 776, 100, 119, 112, 223, 358, 121, 190, 155
462165900, -999, 4547, 13596, 7867, 954, 1950, -950, -908, -428, 776, 100, 119, 112, 223, 358, 121, 190, 155
462170884, -999, 4547, 13596, 7867, 954, 1950, -950, -908, -428, 776, 100, 119, 112, 223, 358, 121, 190, 155
462171734, -999, 4547, 13596, 7867, 954, 1950, -950, -908, -428, 776, 100, 119, 112, 223, 358, 121, 190, 155
462172594, -999, 4547, 13596, 7867, 954, 1950, -950, -908, -428, 776, 100, 119, 112, 223, 358, 121, 190, 155
462173374, -999, 4547, 13596, 7867, 954, 1950, -950, -908, -428, 776, 100, 119, 112, 223, 358, 121, 190, 155
462178337, -999, 4547, 13596, 7867, 954, 1950, -950, -908, -428, 776, 100, 119, 112, 223, 358, 121, 190, 155
462179134, -999, 4547, 13596, 7867, 954, 1950, -950, -908, -428, 776, 100, 119, 112, 223, 358, 121, 190, 155
462179973, -999, 4547, 13596, 7867, 954, 1950, -950, -908, -428, 776, 100, 119, 112, 223, 358, 121, 190, 155
462180781, -999, 4547, 13596, 7867, 954, 1950, -950, -908, -428, 776, 100, 119, 112, 223, 358, 121, 190, 155
462185857, -999, 4547, 13596, 7867, 954, 1950, -950, -908, -428, 776, 100, 119, 112, 223, 358, 121, 190, 155
462186761, -961, 4707, 13481, 7975, 1053, 1881, -918, -767, -510, 726, 100, 119, 112, 223, 358, 121, 190, 155
462187591, -961, 4707, 13481, 7975, 1053, 1881, -918, -767, -510, 726, 121, 101, 113, 225, 384, 155, 234, 207
462188413, -961, 4707, 13481, 7975, 1053, 1881, -918, -767, -510, 726, 121, 101, 113, 225, 384, 155, 234, 207
462193388, -961, 4707, 13481, 7975, 1053, 1881, -918, -767, -510, 726, 121, 101, 113, 225, 384, 155, 234, 207
462194255, -961, 4707, 13481, 7975, 1053, 1881, -918, -767, -510, 726, 121, 101, 113, 225, 384, 155, 234, 207
462195064, -961, 4707, 13481, 7975, 1053, 1881, -918, -767, -510, 726, 121, 101, 113, 225, 384, 155, 234, 207
462195855, -961, 4707, 13481, 7975, 1053, 1881, -918, -767, -510, 726, 121, 101, 113, 225, 384, 155, 234, 207
462200811, -961, 4707, 13481, 7975, 1053, 1881, -918, -767, -510, 726, 121, 101, 113, 225, 384, 155, 234, 207
462201609, -961, 4707, 13481, 7975, 1053, 1881, -918, -767, -510, 726, 121, 101, 113, 225, 384, 155, 234, 207
462202438, -961, 4707, 13481, 7975, 1053, 1881, -918, -767, -510, 726, 121, 101, 113, 225, 384, 155, 234, 207
462203240, -961, 4707, 13481, 7975, 1053, 1881, -918, -767, -510, 726, 121, 101, 113, 225, 384, 155, 234, 207
462208399, -961, 4707, 13481, 7975, 1053, 1881, -918, -767, -510, 726, 121, 101, 113, 225, 384, 155, 234, 207
462209293, -936, 4859, 13376, 8063, 1160, 1926, -919, -634, -486, 691, 121, 101, 113, 225, 384, 155, 234, 207
462210149, -936, 4859, 13376, 8063, 1160, 1926, -919, -634, -486, 691, 112, 91, 103, 227, 367, 161, 232, 217
462210955, -936, 4859, 13376, 8063, 1160, 1926, -919, -634, -486, 691, 112, 91, 103, 227, 367, 161, 232, 217
462215940, -936, 4859, 13376, 8063, 1160, 1926, -919, -634, -486, 691, 112, 91, 103, 227, 367, 161, 232, 217
462216784, -936, 4859, 13376, 8063, 1160, 1926, -919, -634, -486, 691, 112, 91, 103, 227, 367, 161, 232, 217
462217558, -936, 4859, 13376, 8063, 1160, 1926, -919, -634, -486, 691, 112, 91, 103, 227, 367, 161, 232, 217
462218408, -936, 4859, 13376, 8063, 1160, 1926, -919, -634, -486, 691, 112, 91, 103, 227, 367, 161, 232, 217
462223333, -936, 4859, 13376, 8063, 1160, 1926, -919, -634, -486, 691, 112, 91, 103, 227, 367, 161, 232, 217
462224173, -936, 4859, 13376, 8063, 1160, 1926, -919, -634, -486, 691, 112, 91, 103, 227, 367, 161, 232, 217
462224960, -936, 4859, 13376, 8063, 1160, 1926, -919, -634, -486, 691, 112, 91, 103, 227, 367, 161, 232, 217
462225787, -936, 4859, 13376, 8063, 1160, 1926, -919, -634, -486, 691, 112, 91, 103, 227, 367, 161, 232, 217
462230849, -936, 4859, 13376, 8063, 1160, 1926, -919, -634, -486, 691, 112, 91, 103, 227, 367, 161, 232, 217
462231798, -918, 4998, 13273, 8149, 1318, 1903, -996, -649, -435, 578, 112, 91, 103, 227, 367, 161, 232, 217
462232610, -918, 4998, 13273, 8149, 1318, 1903, -996, -649, -435, 578, 107, 72, 96, 228, 387, 155, 202, 202
462233411, -918, 4998, 13273, 8149, 1318, 1903, -996, -649, -435, 578, 107, 72, 96, 228, 387, 155, 202, 202
462238436, -918, 4998, 13273, 8149, 1318, 1903, -996, -649, -435, 578, 107, 72, 96, 228, 387, 155, 202, 202
462239239, -918, 4998, 13273, 8149, 1318, 1903, -996, -649, -435, 578, 107, 72, 96, 228, 387, 155, 202, 202
462240073, -918, 4998, 13273, 8149, 1318, 1903, -996, -649, -435, 578, 107, 72, 96, 228, 387, 155, 202, 202
462240859, -918, 4998, 13273, 8149, 1318, 1903, -996, -649, -435, 578, 107, 72, 96, 228, 387, 155, 202, 202
462245823, -918, 4998, 13273, 8149, 1318, 1903, -996, -649, -435, 578, 107, 72, 96, 228, 387, 155, 202, 202
462246628, -918, 4998, 13273, 8149, 1318, 1903, -996, -649, -435, 578, 107, 72, 96, 228, 387, 155, 202, 202
462247436, -918, 4998, 13273, 8149, 1318, 1903, -996, -649, -435, 578, 107, 72, 96, 228, 387, 155, 202, 202
462248237, -918, 4998, 13273, 8149, 1318, 1903, -996, -649, -435, 578, 107, 72, 96, 228, 387, 155, 202, 202
462253336, -918, 4998, 13273, 8149, 1318, 1903, -996, -649, -435, 578, 107, 72, 96, 228, 387, 155, 202, 202
462254253, -903, 5102, 13186, 8228, 1392, 1771, -1007, -607, -351, 358, 107, 72, 96, 228, 387, 155, 202, 202
462255071, -903, 5102, 13186, 8228, 1392, 1771, -1007, -607, -351, 358, 103, 71, 94, 212, 380, 167, 189, 194
462255883, -903, 5102, 13186, 8228, 1392, 1771, -1007, -607, -351, 358, 103, 71, 94, 212, 380, 167, 189, 194
462260911, -903, 5102, 13186, 8228, 1392, 1771, -1007, -607, -351, 358, 103, 71, 94, 212, 380, 167, 189, 194
462261709, -903, 5102, 13186, 8228, 1392, 1771, -1007, -607, -351, 358, 103, 71, 94, 212, 380, 167, 189, 194
462262599, -903, 5102, 13186, 8228, 1392, 1771, -1007, -607, -351, 358, 103, 71, 94, 212, 380, 167, 189, 194
462263336, -903, 5102, 13186, 8228, 1392, 1771, -1007, -607, -351, 358, 103, 71, 94, 212, 380, 167, 189, 194
462268301, -903, 5102, 13186, 8228, 1392, 1771, -1007, -607, -351, 358, 103, 71, 94, 212, 380, 167, 189, 194
462269103, -903, 5102, 13186, 8228, 1392, 1771, -1007, -607, -351, 358, 103, 71, 94, 212, 380, 167, 189, 194
462269912, -903, 5102, 13186, 8228, 1392, 1771, -1007, -607, -351, 358, 103, 71, 94, 212, 380, 167, 189, 194
462270739, -903, 5102, 13186, 8228, 1392, 1771, -1007, -607, -351, 358, 103, 71, 94, 212, 380, 167, 189, 194
462275854, -903, 5102, 13186, 8228, 1392, 1771, -1007, -607, -351, 358, 103, 71, 94, 212, 380, 167, 189, 194
462276825, -876, 5155, 13119, 8305, 1393, 1718, -892, -526, -288, 38, 103, 71, 94, 212, 380, 167, 189, 194
462277608, -876, 5155, 13119, 8305, 1393, 1718, -892, -526, -288, 38, 103, 71, 93, 194, 352, 164, 208, 192
462278452, -876, 5155, 13119, 8305, 1393, 1718, -892, -526, -288, 38, 103, 71, 93, 194, 352, 164, 208, 192
462283434, -876, 5155, 13119, 8305, 1393, 1718, -892, -526, -288, 38, 103, 71, 93, 194, 352, 164, 208, 192
462284279, -876, 5155, 13119, 8305, 1393, 1718, -892, -526, -288, 38, 103, 71, 93, 194, 352, 164, 208, 192
462285059, -876, 5155, 13119, 8305, 1393, 1718, -892, -526, -288, 38, 103, 71, 93, 194, 352, 164, 208, 192
462285924, -876, 5155, 13119, 8305, 1393, 1718, -892, -526, -288, 38, 103, 71, 93, 194, 352, 164, 208, 192
462290810, -876, 5155, 13119, 8305, 1393, 1718, -892, -526, -288, 38, 103, 71, 93, 194, 352, 164, 208, 192
462291675, -876, 5155, 13119, 8305, 1393, 1718, -892, -526, -288, 38, 103, 71, 93, 194, 352, 164, 208, 192
462292483, -876, 5155, 13119, 8305, 1393, 1718, -892, -526, -288, 38, 103, 71, 93, 194, 352, 164, 208, 192
462293298, -876, 5155, 13119, 8305, 1393, 1718, -892, -526, -288, 38, 103, 71, 93, 194, 352, 164, 208, 192
462298352, -876, 5155, 13119, 8305, 1393, 1718, -892, -526, -288, 38, 103, 71, 93, 194, 352, 164, 208, 192
462299261, -830, 5151, 13080, 8372, 1332, 1749, -911, -428, -216, -289, 103, 71, 93, 194, 352, 164, 208, 192
462300124, -830, 5151, 13080, 8372, 1332, 1749, -911, -428, -216, -289, 75, 68, 84, 169, 286, 131, 171, 138
462300909, -830, 5151, 13080, 8372, 1332, 1749, -911, -428, -216, -289, 75, 68, 84, 169, 286, 131, 171, 138
462305938, -830, 5151, 13080, 8372, 1332, 1749, -911, -428, -216, -289, 75, 68, 84, 169, 286, 131, 171, 138
462306708, -830, 5151, 13080, 8372, 1332, 1749, -911, -428, -216, -289, 75, 68, 84, 169, 286, 131, 171, 138
462307598, -830, 5151, 13080, 8372, 1332, 1749, -911, -428, -216, -289, 75, 68, 84, 169, 286, 131, 171, 138
462308362, -830, 5151, 13080, 8372, 1332, 1749, -911, -428, -216, -289, 75, 68, 84, 169, 286, 131, 171, 138
462313349, -830, 5151, 13080, 8372, 1332, 1749, -911, -428, -216, -289, 75, 68, 84, 169, 286, 131, 171, 138
462314109, -830, 5151, 13080, 8372, 1332, 1749, -911, -428, -216, -289, 75, 68, 84, 169, 286, 131, 171, 138
462314973, -830, 5151, 13080, 8372, 1332, 1749, -911, -428, -216, -289, 75, 68, 84, 169, 286, 131, 171, 138
462315734, -830, 5151, 13080, 8372, 1332, 1749, -911, -428, -216, -289, 75, 68, 84, 169, 286, 131, 171, 138
462320820, -830, 5151, 13080, 8372, 1332, 1749, -911, -428, -216, -289, 75, 68, 84, 169, 286, 131, 171, 138
462321735, -763, 5091, 13063, 8442, 1167, 1652, -949, -452, -90, -599, 75, 68, 84, 169, 286, 131, 171, 138
462322587, -763, 5091, 13063, 8442, 1167, 1652, -949, -452, -90, -599, 55, 63, 81, 142, 269, 106, 204, 111
462323409, -763, 5091, 13063, 8442, 1167, 1652, -949, -452, -90, -599, 55, 63, 81, 142, 269, 106, 204, 111
462328384, -763, 5091, 13063, 8442, 1167, 1652, -949, -452, -90, -599, 55, 63, 81, 142, 269, 106, 204, 111
462329248, -763, 5091, 13063, 8442, 1167, 1652, -949, -452, -90, -599, 55, 63, 81, 142, 269, 106, 204, 111
462330031, -763, 5091, 13063, 8442, 1167, 1652, -949, -452, -90, -599, 55, 63, 81, 142, 269, 106, 204, 111
462330844, -763, 5091, 13063, 8442, 1167, 1652, -949, -452, -90, -599, 55, 63, 81, 142, 269, 106, 204, 111
462335841, -763, 5091, 13063, 8442, 1167, 1652, -949, -452, -90, -599, 55, 63, 81, 142, 269, 106, 204, 111
462336638, -763, 5091, 13063, 8442, 1167, 1652, -949, -452, -90, -599, 55, 63, 81, 142, 269, 106, 204, 111
462337507, -763, 5091, 13063, 8442, 1167, 1652, -949, -452, -90, -599, 55, 63, 81, 142, 269, 106, 204, 111
462338297, -763, 5091, 13063, 8442, 1167, 1652, -949, -452, -90, -599, 55, 63, 81, 142, 269, 106, 204, 111
462343338, -763, 5091, 13063, 8442, 1167, 1652, -949, -452, -90, -599, 55, 63, 81, 142, 269, 106, 204, 111
462344287, -683, 4981, 13068, 8506, 945, 1594, -974, -413, 37, -830, 55, 63, 81, 142, 269, 106, 204, 111
462345110, -683, 4981, 13068, 8506, 945, 1594, -974, -413, 37, -830, 49, 77, 84, 122, 213, 104, 213, 108
462345899, -683, 4981, 13068, 8506, 945, 1594, -974, -413, 37, -830, 49, 77, 84, 122, 213, 104, 213, 108
462350907, -683, 4981, 13068, 8506, 945, 1594, -974, -413, 37, -830, 49, 77, 84, 122, 213, 104, 213, 108
462351745, -683, 4981, 13068, 8506, 945, 1594, -974, -413, 37, -830, 49, 77, 84, 122, 213, 104, 213, 108
462352559, -683, 4981, 13068, 8506, 945, 1594, -974, -413, 37, -830, 49, 77, 84, 122, 213, 104, 213, 108
462353390, -683, 4981, 13068, 8506, 945, 1594, -974, -413, 37, -830, 49, 77, 84, 122, 213, 104, 213, 108
462358308, -683, 4981, 13068, 8506, 945, 1594, -974, -413, 37, -830, 49, 77, 84, 122, 213, 104, 213, 108
462359173, -683, 4981, 13068, 8506, 945, 1594, -974, -413, 37, -830, 49, 77, 84, 122, 213, 104, 213, 108
462359935, -683, 4981, 13068, 8506, 945, 1594, -974, -413, 37, -830, 49, 77, 84, 122, 213, 104, 213, 108
462360776, -683, 4981, 13068, 8506, 945, 1594, -974, -413, 37, -830, 49, 77, 84, 122, 213, 104, 213, 108
462365833, -683, 4981, 13068, 8506, 945, 1594, -974, -413, 37, -830, 49, 77, 84, 122, 213, 104, 213, 108
462366788, -587, 4840, 13090, 8560, 709, 1479, -1009, -393, 92, -977, 49, 77, 84, 122, 213, 104, 213, 108
462367583, -587, 4840, 13090, 8560, 709, 1479, -1009, -393, 92, -977, 96, 218, 97, 110, 184, 79, 216, 118
462368428, -587, 4840, 13090, 8560, 709, 1479, -1009, -393, 92, -977, 96, 218, 97, 110, 184, 79, 216, 118
462373383, -587, 4840, 13090, 8560, 709, 1479, -1009, -393, 92, -977, 96, 218, 97, 110, 184, 79, 216, 118
462374248, -587, 4840, 13090, 8560, 709, 1479, -1009, -393, 92, -977, 96, 218, 97, 110, 184, 79, 216, 118
462375034, -587, 4840, 13090, 8560, 709, 1479, -1009, -393, 92, -977, 96, 218, 97, 110, 184, 79, 216, 118
462375853, -587, 4840, 13090, 8560, 709, 1479, -1009, -393, 92, -977, 96, 218, 97, 110, 184, 79, 216, 118
462380806, -587, 4840, 13090, 8560, 709, 1479, -1009, -393, 92, -977, 96, 218, 97, 110, 184, 79, 216, 118
462381608, -587, 4840, 13090, 8560, 709, 1479, -1009, -393, 92, -977, 96, 218, 97, 110, 184, 79, 216, 118
462382425, -587, 4840, 13090, 8560, 709, 1479, -1009, -393, 92, -977, 96, 218, 97, 110, 184, 79, 216, 118
462383282, -587, 4840, 13090, 8560, 709, 1479, -1009, -393, 92, -977, 96, 218, 97, 110, 184, 79, 216, 118
462388309, -587, 4840, 13090, 8560, 709, 1479, -1009, -393, 92, -977, 96, 218, 97, 110, 184, 79, 216, 118
462389263, -483, 4696, 13136, 8578, 359, 1328, -977, -201, 76, -938, 96, 218, 97, 110, 184, 79, 216, 118
462390058, -483, 4696, 13136, 8578, 359, 1328, -977, -201, 76, -938, 167, 407, 132, 114, 163, 70, 207, 132
462390901, -483, 4696, 13136, 8578, 359, 1328, -977, -201, 76, -938, 167, 407, 132, 114, 163, 70, 207, 132
462395934, -483, 4696, 13136, 8578, 359, 1328, -977, -201, 76, -938, 167, 407, 132, 114, 163, 70, 207, 132
462396791, -483, 4696, 13136, 8578, 359, 1328, -977, -201, 76, -938, 167, 407, 132, 114, 163, 70, 207, 132
462397566, -483, 4696, 13136, 8578, 359, 1328, -977, -201, 76, -938, 167, 407, 132, 114, 163, 70, 207, 132
462398399, -483, 4696, 13136, 8578, 359, 1328, -977, -201, 76, -938, 167, 407, 132, 114, 163, 70, 207, 132
462410836, -483, 4696, 13136, 8578, 359, 1328, -977, -201, 76, -938, 167, 407, 132, 114, 163, 70, 207, 132
462411608, -483, 4696, 13136, 8578, 359, 1328, -977, -201, 76, -938, 167, 407, 132, 114, 163, 70, 207, 132
462412476, -483, 4696, 13136, 8578, 359, 1328, -977, -201, 76, -938, 167, 407, 132, 114, 163, 70, 207, 132
462413262, -483, 4696, 13136, 8578, 359, 1328, -977, -201, 76, -938, 167, 407, 132, 114, 163, 70, 207, 132
462418331, -483, 4696, 13136, 8578, 359, 1328, -977, -201, 76, -938, 167, 407, 132, 114, 163, 70, 207, 132
462419268, -370, 4619, 13189, 8543, -48, 1181, -916, 25, -169, -524, 167, 407, 132, 114, 163, 70, 207, 132
462420059, -370, 4619, 13189, 8543, -48, 1181, -916, 25, -169, -524, 203, 466, 160, 113, 165, 64, 190, 126
462420877, -370, 4619, 13189, 8543, -48, 1181, -916, 25, -169, -524, 167, 407, 132, 114, 163, 70, 207, 132
462425913, -370, 4619, 13189, 8543, -48, 1181, -916, 25, -169, -524, 203, 466, 160, 113, 165, 64, 190, 126
462426739, -370, 4619, 13189, 8543, -48, 1181, -916, 25, -169, -524, 203, 466, 160, 113, 165, 64, 190, 126
462427580, -370, 4619, 13189, 8543, -48, 1181, -916, 25, -169, -524, 203, 466, 160, 113, 165, 64, 190, 126
462428369, -370, 4619, 13189, 8543, -48, 1181, -916, 25, -169, -524, 203, 466, 160, 113, 165, 64, 190, 126
462433272, -370, 4619, 13189, 8543, -48, 1181, -916, 25, -169, -524, 203, 466, 160, 113, 165, 64, 190, 126
462434081, -370, 4619, 13189, 8543, -48, 1181, -916, 25, -169, -524, 203, 466, 160, 113, 165, 64, 190, 126
462434905, -370, 4619, 13189, 8543, -48, 1181, -916, 25, -169, -524, 203, 466, 160, 113, 165, 64, 190, 126
462435733, -370, 4619, 13189, 8543, -48, 1181, -916, 25, -169, -524, 203, 466, 160, 113, 165, 64, 190, 126
462440880, -370, 4619, 13189, 8543, -48, 1181, -916, 25, -169, -524, 203, 466, 160, 113, 165, 64, 190, 126
462441830, -274, 4650, 13230, 8467, -160, 1030, -717, 240, -483, 58, 203, 466, 160, 113, 165, 64, 190, 126
462442635, -274, 4650, 13230, 8467, -160, 1030, -717, 240, -483, 58, 225, 497, 170, 107, 156, 76, 153, 133
462443412, -274, 4650, 13230, 8467, -160, 1030, -717, 240, -483, 58, 225, 497, 170, 107, 156, 76, 153, 133
462448462, -274, 4650, 13230, 8467, -160, 1030, -717, 240, -483, 58, 225, 497, 170, 107, 156, 76, 153, 133
462449241, -274, 4650, 13230, 8467, -160, 1030, -717, 240, -483, 58, 225, 497, 170, 107, 156, 76, 153, 133
462450081, -274, 4650, 13230, 8467, -160, 1030, -717, 240, -483, 58, 225, 497, 170, 107, 156, 76, 153, 133
462450858, -274, 4650, 13230, 8467, -160, 1030, -717, 240, -483, 58, 225, 497, 170, 107, 156, 76, 153, 133
462455809, -274, 4650, 13230, 8467, -160, 1030, -717, 240, -483, 58, 225, 497, 170, 107, 156, 76, 153, 133
462456647, -274, 4650, 13230, 8467, -160, 1030, -717, 240, -483, 58, 225, 497, 170, 107, 156, 76, 153, 133
462457437, -274, 4650, 13230, 8467, -160, 1030, -717, 240, -483, 58, 225, 497, 170, 107, 156, 76, 153, 133
462458305, -274, 4650, 13230, 8467, -160, 1030, -717, 240, -483, 58, 225, 497, 170, 107, 156, 76, 153, 133
462463340, -274, 4650, 13230, 8467, -160, 1030, -717, 240, -483, 58, 225, 497, 170, 107, 156, 76, 153, 133
462464299, -234, 4782, 13270, 8331, 22, 1083, -630, 655, -685, 608, 225, 497, 170, 107, 156, 76, 153, 133
462465111, -234, 4782, 13270, 8331, 22, 1083, -630, 655, -685, 608, 241, 527, 177, 96, 127, 72, 143, 140
462465905, -234, 4782, 13270, 8331, 22, 1083, -630, 655, -685, 608, 241, 527, 177, 96, 127, 72, 143, 140
462470923, -234, 4782, 13270, 8331, 22, 1083, -630, 655, -685, 608, 241, 527, 177, 96, 127, 72, 143, 140
462471749, -234, 4782, 13270, 8331, 22, 1083, -630, 655, -685, 608, 241, 527, 177, 96, 127, 72, 143, 140
462472559, -234, 4782, 13270, 8331, 22, 1083, -630, 655, -685, 608, 241, 527, 177, 96, 127, 72, 143, 140
462473344, -234, 4782, 13270, 8331, 22, 1083, -630, 655, -685, 608, 241, 527, 177, 96, 127, 72, 143, 140
462478303, -234, 4782, 13270, 8331, 22, 1083, -630, 655, -685, 608, 241, 527, 177, 96, 127, 72, 143, 140
462479109, -234, 4782, 13270, 8331, 22, 1083, -630, 655, -685, 608, 241, 527, 177, 96, 127, 72, 143, 140
462479964, -234, 4782, 13270, 8331, 22, 1083, -630, 655, -685, 608, 241, 527, 177, 96, 127, 72, 143, 140
462480734, -234, 4782, 13270, 8331, 22, 1083, -630, 655, -685, 608, 241, 527, 177, 96, 127, 72, 143, 140
462485850, -234, 4782, 13270, 8331, 22, 1083, -630, 655, -685, 608, 241, 527, 177, 96, 127, 72, 143, 140
462486736, -251, 4985, 13308, 8149, 289, 1390, -568, 1078, -776, 1043, 241, 527, 177, 96, 127, 72, 143, 140
462487598, -251, 4985, 13308, 8149, 289, 1390, -568, 1078, -776, 1043, 232, 535, 177, 99, 122, 72, 140, 134
462488362, -251, 4985, 13308, 8149, 289, 1390, -568, 1078, -776, 1043, 232, 535, 177, 99, 122, 72, 140, 134
462493425, -251, 4985, 13308, 8149, 289, 1390, -568, 1078, -776, 1043, 232, 535, 177, 99, 122, 72, 140, 134
462494183, -251, 4985, 13308, 8149, 289, 1390, -568, 1078, -776, 1043, 232, 535, 177, 99, 122, 72, 140, 134
462495025, -251, 4985, 13308, 8149, 289, 1390, -568, 1078, -776, 1043, 232, 535, 177, 99, 122, 72, 140, 134
462495817, -251, 4985, 13308, 8149, 289, 1390, -568, 1078, -776, 1043, 232, 535, 177, 99, 122, 72, 140, 134
462500758, -251, 4985, 13308, 8149, 289, 1390, -568, 1078, -776, 1043, 232, 535, 177, 99, 122, 72, 140, 134
462501584, -251, 4985, 13308, 8149, 289, 1390, -568, 1078, -776, 1043, 232, 535, 177, 99, 122, 72, 140, 134
462502441, -251, 4985, 13308, 8149, 289, 1390, -568, 1078, -776, 1043, 232, 535, 177, 99, 122, 72, 140, 134
462503217, -251, 4985, 13308, 8149, 289, 1390, -568, 1078, -776, 1043, 232, 535, 177, 99, 122, 72, 140, 134
462508336, -251, 4985, 13308, 8149, 289, 1390, -568, 1078, -776, 1043, 232, 535, 177, 99, 122, 72, 140, 134
462509289, -312, 5251, 13336, 7930, 425, 1794, -657, 1396, -838, 1511, 232, 535, 177, 99, 122, 72, 140, 134
462510083, -312, 5251, 13336, 7930, 425, 1794, -657, 1396, -838, 1511, 196, 426, 167, 121, 157, 95, 133, 126
462510908, -312, 5251, 13336, 7930, 425, 1794, -657, 1396, -838, 1511, 196, 426, 167, 121, 157, 95, 133, 126
462515920, -312, 5251, 13336, 7930, 425, 1794, -657, 1396, -838, 1511, 196, 426, 167, 121, 157, 95, 133, 126
462516733, -312, 5251, 13336, 7930, 425, 1794, -657, 1396, -838, 1511, 196, 426, 167, 121, 157, 95, 133, 126
462517588, -312, 5251, 13336, 7930, 425, 1794, -657, 1396, -838, 1511, 196, 426, 167, 121, 157, 95, 133, 126
462518362, -312, 5251, 13336, 7930, 425, 1794, -657, 1396, -838, 1511, 196, 426, 167, 121, 157, 95, 133, 126
462523335, -312, 5251, 13336, 7930, 425, 1794, -657, 1396, -838, 1511, 196, 426, 167, 121, 157, 95, 133, 126
462524133, -312, 5251, 13336, 7930, 425, 1794, -657, 1396, -838, 1511, 196, 426, 167, 121, 157, 95, 133, 126
462524963, -312, 5251, 13336, 7930, 425, 1794, -657, 1396, -838, 1511, 196, 426, 167, 121, 157, 95, 133, 126
462525759, -312, 5251, 13336, 7930, 425, 1794, -657, 1396, -838, 1511, 196, 426, 167, 121, 157, 95, 133, 126
462530848, -312, 5251, 13336, 7930, 425, 1794, -657, 1396, -838, 1511, 196, 426, 167, 121, 157, 95, 133, 126
462531762, -415, 5615, 13334, 7675, 512, 1947, -624, 1389, -981, 2010, 196, 426, 167, 121, 157, 95, 133, 126
462532557, -415, 5615, 13334, 7675, 512, 1947, -624, 1389, -981, 2010, 168, 375, 178, 137, 164, 102, 186, 149
462533386, -415, 5615, 13334, 7675, 512, 1947, -624, 1389, -981, 2010, 168, 375, 178, 137, 164, 102, 186, 149
462538381, -415, 5615, 13334, 7675, 512, 1947, -624, 1389, -981, 2010, 168, 375, 178, 137, 164, 102, 186, 149
462539235, -415, 5615, 13334, 7675, 512, 1947, -624, 1389, -981, 2010, 168, 375, 178, 137, 164, 102, 186, 149
462540036, -415, 5615, 13334, 7675, 512, 1947, -624, 1389, -981, 2010, 168, 375, 178, 137, 164, 102, 186, 149
462540836, -415, 5615, 13334, 7675, 512, 1947, -624, 1389, -981, 2010, 168, 375, 178, 137, 164, 102, 186, 149
462545786, -415, 5615, 13334, 7675, 512, 1947, -624, 1389, -981, 2010, 168, 375, 178, 137, 164, 102, 186, 149
462546618, -415, 5615, 13334, 7675, 512, 1947, -624, 1389, -981, 2010, 168, 375, 178, 137, 164, 102, 186, 149
462547412, -415, 5615, 13334, 7675, 512, 1947, -624, 1389, -981, 2010, 168, 375, 178, 137, 164, 102, 186, 149
462548261, -415, 5615, 13334, 7675, 512, 1947, -624, 1389, -981, 2010, 168, 375, 178, 137, 164, 102, 186, 149
462560848, -415, 5615, 13334, 7675, 512, 1947, -624, 1389, -981, 2010, 168, 375, 178, 137, 164, 102, 186, 149
462561761, -532, 6058, 13287, 7408, 750, 2182, -555, 1376, -1165, 2493, 168, 375, 178, 137, 164, 102, 186, 149
462562623, -532, 6058, 13287, 7408, 750, 2182, -555, 1376, -1165, 2493, 171, 352, 188, 193, 178, 100, 213, 159
462563387, -532, 6058, 13287, 7408, 750, 2182, -555, 1376, -1165, 2493, 171, 352, 188, 193, 178, 100, 213, 159
462568450, -532, 6058, 13287, 7408, 750, 2182, -555, 1376, -1165, 2493, 171, 352, 188, 193, 178, 100, 213, 159
462569275, -532, 6058, 13287, 7408, 750, 2182, -555, 1376, -1165, 2493, 171, 352, 188, 193, 178, 100, 213, 159
462570042, -532, 6058, 13287, 7408, 750, 2182, -555, 1376, -1165, 2493, 171, 352, 188, 193, 178, 100, 213, 159
462570900, -532, 6058, 13287, 7408, 750, 2182, -555, 1376, -1165, 2493, 171, 352, 188, 193, 178, 100, 213, 159
462575820, -532, 6058, 13287, 7408, 750, 2182, -555, 1376, -1165, 2493, 171, 352, 188, 193, 178, 100, 213, 159
462576635, -532, 6058, 13287, 7408, 750, 2182, -555, 1376, -1165, 2493, 171, 352, 188, 193, 178, 100, 213, 159
462577437, -532, 6058, 13287, 7408, 750, 2182, -555, 1376, -1165, 2493, 171, 352, 188, 193, 178, 100, 213, 159
462578279, -532, 6058, 13287, 7408, 750, 2182, -555, 1376, -1165, 2493, 171, 352, 188, 193, 178, 100, 213, 159
462583328, -532, 6058, 13287, 7408, 750, 2182, -555, 1376, -1165, 2493, 171, 352, 188, 193, 178, 100, 213, 159
462584235, -680, 6553, 13205, 7116, 1043, 2369, -622, 1478, -1218, 2886, 171, 352, 188, 193, 178, 100, 213, 159
462585099, -680, 6553, 13205, 7116, 1043, 2369, -622, 1478, -1218, 2886, 174, 327, 188, 202, 190, 107, 216, 157
462585886, -680, 6553, 13205, 7116, 1043, 2369, -622, 1478, -1218, 2886, 174, 327, 188, 202, 190, 107, 216, 157
462590884, -680, 6553, 13205, 7116, 1043, 2369, -622, 1478, -1218, 2886, 174, 327, 188, 202, 190, 107, 216, 157
462591745, -680, 6553, 13205, 7116, 1043, 2369, -622, 1478, -1218, 2886, 174, 327, 188, 202, 190, 107, 216, 157
462592564, -680, 6553, 13205, 7116, 1043, 2369, -622, 1478, -1218, 2886, 174, 327, 188, 202, 190, 107, 216, 157
462593343, -680, 6553, 13205, 7116, 1043, 2369, -622, 1478, -1218, 2886, 174, 327, 188, 202, 190, 107, 216, 157
462598286, -680, 6553, 13205, 7116, 1043, 2369, -622, 1478, -1218, 2886, 174, 327, 188, 202, 190, 107, 216, 157
462599086, -680, 6553, 13205, 7116, 1043, 2369, -622, 1478, -1218, 2886, 174, 327, 188, 202, 190, 107, 216, 157
462599910, -680, 6553, 13205, 7116, 1043, 2369, -622, 1478, -1218, 2886, 174, 327, 188, 202, 190, 107, 216, 157
462600706, -680, 6553, 13205, 7116, 1043, 2369, -622, 1478, -1218, 2886, 174, 327, 188, 202, 190, 107, 216, 157
462605832, -680, 6553, 13205, 7116, 1043, 2369, -622, 1478, -1218, 2886, 174, 327, 188, 202, 190, 107, 216, 157
462606825, -853, 7079, 13074, 6828, 1252, 2522, -716, 1407, -1178, 3204, 174, 327, 188, 202, 190, 107, 216, 157
462607609, -853, 7079, 13074, 6828, 1252, 2522, -716, 1407, -1178, 3204, 203, 314, 187, 198, 190, 111, 229, 176
462608441, -853, 7079, 13074, 6828, 1252, 2522, -716, 1407, -1178, 3204, 203, 314, 187, 198, 190, 111, 229, 176
462613409, -853, 7079, 13074, 6828, 1252, 2522, -716, 1407, -1178, 3204, 203, 314, 187, 198, 190, 111, 229, 176
462614281, -853, 7079, 13074, 6828, 1252, 2522, -716, 1407, -1178, 3204, 203, 314, 187, 198, 190, 111, 229, 176
462615081, -853, 7079, 13074, 6828, 1252, 2522, -716, 1407, -1178, 3204, 203, 314, 187, 198, 190, 111, 229, 176
462615886, -853, 7079, 13074, 6828, 1252, 2522, -716, 1407, -1178, 3204, 203, 314, 187, 198, 190, 111, 229, 176
462620809, -853, 7079, 13074, 6828, 1252, 2522, -716, 1407, -1178, 3204, 203, 314, 187, 198, 190, 111, 229, 176
462621674, -853, 7079, 13074, 6828, 1252, 2522, -716, 1407, -1178, 3204, 203, 314, 187, 198, 190, 111, 229, 176
462622436, -853, 7079, 13074, 6828, 1252, 2522, -716, 1407, -1178, 3204, 203, 314, 187, 198, 190, 111, 229, 176
462623304, -853, 7079, 13074, 6828, 1252, 2522, -716, 1407, -1178, 3204, 203, 314, 187, 198, 190, 111, 229, 176
462627431, -853, 7079, 13074, 6828, 1252, 2522, -716, 1407, -1178, 3204, 203, 314, 187, 198, 190, 111, 229, 176
462628382, -1035, 7630, 12891, 6553, 1534, 2694, -878, 1259, -1164, 3464, 203, 314, 187, 198, 190, 111, 229, 176
462635905, -1035, 7630, 12891, 6553, 1534, 2694, -878, 1259, -1164, 3464, 235, 435, 214, 189, 171, 93, 233, 174
462636747, -1035, 7630, 12891, 6553, 1534, 2694, -878, 1259, -1164, 3464, 235, 435, 214, 189, 171, 93, 233, 174
462637559, -1035, 7630, 12891, 6553, 1534, 2694, -878, 1259, -1164, 3464, 235, 435, 214, 189, 171, 93, 233, 174
462638387, -1035, 7630, 12891, 6553, 1534, 2694, -878, 1259, -1164, 3464, 235, 435, 214, 189, 171, 93, 233, 174
462643286, -1035, 7630, 12891, 6553, 1534, 2694, -878, 1259, -1164, 3464, 235, 435, 214, 189, 171, 93, 233, 174
462644119, -1035, 7630, 12891, 6553, 1534, 2694, -878, 1259, -1164, 3464, 235, 435, 214, 189, 171, 93, 233, 174
462644910, -1035, 7630, 12891, 6553, 1534, 2694, -878, 1259, -1164, 3464, 235, 435, 214, 189, 171, 93, 233, 174
462645774, -1035, 7630, 12891, 6553, 1534, 2694, -878, 1259, -1164, 3464, 235, 435, 214, 189, 171, 93, 233, 174
462650805, -1035, 7630, 12891, 6553, 1534, 2694, -878, 1259, -1164, 3464, 235, 435, 214, 189, 171, 93, 233, 174
462651758, -1226, 8203, 12642, 6309, 1789, 2679, -1012, 995, -1083, 3745, 235, 435, 214, 189, 171, 93, 233, 174
462652559, -1226, 8203, 12642, 6309, 1789, 2679, -1012, 995, -1083, 3745, 261, 481, 228, 210, 186, 90, 205, 179
462653388, -1226, 8203, 12642, 6309, 1789, 2679, -1012, 995, -1083, 3745, 261, 481, 228, 210, 186, 90, 205, 179
462658360, -1226, 8203, 12642, 6309, 1789, 2679, -1012, 995, -1083, 3745, 261, 481, 228, 210, 186, 90, 205, 179
462659223, -1226, 8203, 12642, 6309, 1789, 2679, -1012, 995, -1083, 3745, 261, 481, 228, 210, 186, 90, 205, 179
462660008, -1226, 8203, 12642, 6309, 1789, 2679, -1012, 995, -1083, 3745, 261, 481, 228, 210, 186, 90, 205, 179
462660849, -1226, 8203, 12642, 6309, 1789, 2679, -1012, 995, -1083, 3745, 261, 481, 228, 210, 186, 90, 205, 179
462665808, -1226, 8203, 12642, 6309, 1789, 2679, -1012, 995, -1083, 3745, 261, 481, 228, 210, 186, 90, 205, 179
462666674, -1226, 8203, 12642, 6309, 1789, 2679, -1012, 995, -1083, 3745, 261, 481, 228, 210, 186, 90, 205, 179
462667462, -1226, 8203, 12642, 6309, 1789, 2679, -1012, 995, -1083, 3745, 261, 481, 228, 210, 186, 90, 205, 179
462668298, -1226, 8203, 12642, 6309, 1789, 2679, -1012, 995, -1083, 3745, 261, 481, 228, 210, 186, 90, 205, 179
462673364, -1226, 8203, 12642, 6309, 1789, 2679, -1012, 995, -1083, 3745, 261, 481, 228, 210, 186, 90, 205, 179
462674259, -1438, 8797, 12318, 6102, 2129, 2749, -1082, 743, -930, 4082, 261, 481, 228, 210, 186, 90, 205, 179
462675097, -1438, 8797, 12318, 6102, 2129, 2749, -1082, 743, -930, 4082, 268, 529, 234, 173, 161, 84, 180, 191
462675911, -1438, 8797, 12318, 6102, 2129, 2749, -1082, 743, -930, 4082, 268, 529, 234, 173, 161, 84, 180, 191
462680917, -1438, 8797, 12318, 6102, 2129, 2749, -1082, 743, -930, 4082, 268, 529, 234, 173, 161, 84, 180, 191
462681708, -1438, 8797, 12318, 6102, 2129, 2749, -1082, 743, -930, 4082, 268, 529, 234, 173, 161, 84, 180, 191
462682555, -1438, 8797, 12318, 6102, 2129, 2749, -1082, 743, -930, 4082, 268, 529, 234, 173, 161, 84, 180, 191
462683389, -1438, 8797, 12318, 6102, 2129, 2749, -1082, 743, -930, 4082, 268, 529, 234, 173, 161, 84, 180, 191
462688314, -1438, 8797, 12318, 6102, 2129, 2749, -1082, 743, -930, 4082, 268, 529, 234, 173, 161, 84, 180, 191
462689130, -1438, 8797, 12318, 6102, 2129, 2749, -1082, 743, -930, 4082, 268, 529, 234, 173, 161, 84, 180, 191
462689963, -1438, 8797, 12318, 6102, 2129, 2749, -1082, 743, -930, 4082, 268, 529, 234, 173, 161, 84, 180, 191
462690748, -1438, 8797, 12318, 6102, 2129, 2749, -1082, 743, -930, 4082, 268, 529, 234, 173, 161, 84, 180, 191
462695806, -1438, 8797, 12318, 6102, 2129, 2749, -1082, 743, -930, 4082, 268, 529, 234, 173, 161, 84, 180, 191
462696746, -1648, 9429, 11897, 5937, 2495, 2805, -1231, 348, -860, 4524, 268, 529, 234, 173, 161, 84, 180, 191
462697584, -1648, 9429, 11897, 5937, 2495, 2805, -1231, 348, -860, 4524, 272, 530, 244, 185, 165, 86, 193, 209
462698410, -1648, 9429, 11897, 5937, 2495, 2805, -1231, 348, -860, 4524, 272, 530, 244, 185, 165, 86, 193, 209
462703360, -1648, 9429, 11897, 5937, 2495, 2805, -1231, 348, -860, 4524, 272, 530, 244, 185, 165, 86, 193, 209
462704228, -1648, 9429, 11897, 5937, 2495, 2805, -1231, 348, -860, 4524, 272, 530, 244, 185, 165, 86, 193, 209
462705008, -1648, 9429, 11897, 5937, 2495, 2805, -1231, 348, -860, 4524, 272, 530, 244, 185, 165, 86, 193, 209
462705873, -1648, 9429, 11897, 5937, 2495, 2805, -1231, 348, -860, 4524, 272, 530, 244, 185, 165, 86, 193, 209
462710806, -1648, 9429, 11897, 5937, 2495, 2805, -1231, 348, -860, 4524, 272, 530, 244, 185, 165, 86, 193, 209
462711605, -1648, 9429, 11897, 5937, 2495, 2805, -1231, 348, -860, 4524, 272, 530, 244, 185, 165, 86, 193, 209
462712424, -1648, 9429, 11897, 5937, 2495, 2805, -1231, 348, -860, 4524, 272, 530, 244, 185, 165, 86, 193, 209
462713237, -1648, 9429, 11897, 5937, 2495, 2805, -1231, 348, -860, 4524, 272, 530, 244, 185, 165, 86, 193, 209
462718284, -1648, 9429, 11897, 5937, 2495, 2805, -1231, 348, -860, 4524, 272, 530, 244, 185, 165, 86, 193, 209
462719246, -1826, 10099, 11359, 5836, 2912, 2791, -1164, -258, -839, 4968, 272, 530, 244, 185, 165, 86, 193, 209
462720032, -1826, 10099, 11359, 5836, 2912, 2791, -1164, -258, -839, 4968, 265, 499, 247, 199, 178, 86, 207, 229
462720901, -1826, 10099, 11359, 5836, 2912, 2791, -1164, -258, -839, 4968, 265, 499, 247, 199, 178, 86, 207, 229
462725908, -1826, 10099, 11359, 5836, 2912, 2791, -1164, -258, -839, 4968, 265, 499, 247, 199, 178, 86, 207, 229
462726747, -1826, 10099, 11359, 5836, 2912, 2791, -1164, -258, -839, 4968, 265, 499, 247, 199, 178, 86, 207, 229
462727559, -1826, 10099, 11359, 5836, 2912, 2791, -1164, -258, -839, 4968, 265, 499, 247, 199, 178, 86, 207, 229
462728391, -1826, 10099, 11359, 5836, 2912, 2791, -1164, -258, -839, 4968, 265, 499, 247, 199, 178, 86, 207, 229
462740787, -1826, 10099, 11359, 5836, 2912, 2791, -1164, -258, -839, 4968, 265, 499, 247, 199, 178, 86, 207, 229
462741599, -1826, 10099, 11359, 5836, 2912, 2791, -1164, -258, -839, 4968, 265, 499, 247, 199, 178, 86, 207, 229
462742387, -1826, 10099, 11359, 5836, 2912, 2791, -1164, -258, -839, 4968, 265, 499, 247, 199, 178, 86, 207, 229
462743209, -1826, 10099, 11359, 5836, 2912, 2791, -1164, -258, -839, 4968, 265, 499, 247, 199, 178, 86, 207, 229
462748325, -1826, 10099, 11359, 5836, 2912, 2791, -1164, -258, -839, 4968, 265, 499, 247, 199, 178, 86, 207, 229
462749235, -1932, 10773, 10724, 5798, 3267, 2573, -995, -954, -894, 5133, 265, 499, 247, 199, 178, 86, 207, 229
462750099, -1932, 10773, 10724, 5798, 3267, 2573, -995, -954, -894, 5133, 248, 398, 223, 216, 191, 90, 194, 229
462750848, -1932, 10773, 10724, 5798, 3267, 2573, -995, -954, -894, 5133, 248, 398, 223, 216, 191, 90, 194, 229
462755873, -1932, 10773, 10724, 5798, 3267, 2573, -995, -954, -894, 5133, 248, 398, 223, 216, 191, 90, 194, 229
462756682, -1932, 10773, 10724, 5798, 3267, 2573, -995, -954, -894, 5133, 248, 398, 223, 216, 191, 90, 194, 229
462757558, -1932, 10773, 10724, 5798, 3267, 2573, -995, -954, -894, 5133, 248, 398, 223, 216, 191, 90, 194, 229
462758353, -1932, 10773, 10724, 5798, 3267, 2573, -995, -954, -894, 5133, 248, 398, 223, 216, 191, 90, 194, 229
462763259, -1932, 10773, 10724, 5798, 3267, 2573, -995, -954, -894, 5133, 248, 398, 223, 216, 191, 90, 194, 229
462764113, -1932, 10773, 10724, 5798, 3267, 2573, -995, -954, -894, 5133, 248, 398, 223, 216, 191, 90, 194, 229
462764883, -1932, 10773, 10724, 5798, 3267, 2573, -995, -954, -894, 5133, 248, 398, 223, 216, 191, 90, 194, 229
462765748, -1932, 10773, 10724, 5798, 3267, 2573, -995, -954, -894, 5133, 248, 398, 223, 216, 191, 90, 194, 229
462769936, -1932, 10773, 10724, 5798, 3267, 2573, -995, -954, -894, 5133, 248, 398, 223, 216, 191, 90, 194, 229
462770907, -1960, 11413, 10035, 5797, 3300, 2358, -1082, -1476, -934, 5035, 248, 398, 223, 216, 191, 90, 194, 229
462771684, -1960, 11413, 10035, 5797, 3300, 2358, -1082, -1476, -934, 5035, 233, 336, 185, 187, 168, 89, 185, 221
462778432, -1960, 11413, 10035, 5797, 3300, 2358, -1082, -1476, -934, 5035, 233, 336, 185, 187, 168, 89, 185, 221
462779233, -1960, 11413, 10035, 5797, 3300, 2358, -1082, -1476, -934, 5035, 233, 336, 185, 187, 168, 89, 185, 221
462780059, -1960, 11413, 10035, 5797, 3300, 2358, -1082, -1476, -934, 5035, 233, 336, 185, 187, 168, 89, 185, 221
462780859, -1960, 11413, 10035, 5797, 3300, 2358, -1082, -1476, -934, 5035, 233, 336, 185, 187, 168, 89, 185, 221
462785840, -1960, 11413, 10035, 5797, 3300, 2358, -1082, -1476, -934, 5035, 233, 336, 185, 187, 168, 89, 185, 221
462786632, -1960, 11413, 10035, 5797, 3300, 2358, -1082, -1476, -934, 5035, 233, 336, 185, 187, 168, 89, 185, 221
462787437, -1960, 11413, 10035, 5797, 3300, 2358, -1082, -1476, -934, 5035, 233, 336, 185, 187, 168, 89, 185, 221
462788266, -1960, 11413, 10035, 5797, 3300, 2358, -1082, -1476, -934, 5035, 233, 336, 185, 187, 168, 89, 185, 221
462793309, -1960, 11413, 10035, 5797, 3300, 2358, -1082, -1476, -934, 5035, 233, 336, 185, 187, 168, 89, 185, 221
462794259, -1901, 12018, 9311, 5803, 3217, 1982, -1102, -1926, -1103, 4859, 233, 336, 185, 187, 168, 89, 185, 221
462795056, -1901, 12018, 9311, 5803, 3217, 1982, -1102, -1926, -1103, 4859, 218, 260, 172, 187, 203, 94, 184, 202
462795894, -1901, 12018, 9311, 5803, 3217, 1982, -1102, -1926, -1103, 4859, 218, 260, 172, 187, 203, 94, 184, 202
462800883, -1901, 12018, 9311, 5803, 3217, 1982, -1102, -1926, -1103, 4859, 218, 260, 172, 187, 203, 94, 184, 202
462801748, -1901, 12018, 9311, 5803, 3217, 1982, -1102, -1926, -1103, 4859, 218, 260, 172, 187, 203, 94, 184, 202
462802560, -1901, 12018, 9311, 5803, 3217, 1982, -1102, -1926, -1103, 4859, 218, 260, 172, 187, 203, 94, 184, 202
462803346, -1901, 12018, 9311, 5803, 3217, 1982, -1102, -1926, -1103, 4859, 218, 260, 172, 187, 203, 94, 184, 202
462808286, -1901, 12018, 9311, 5803, 3217, 1982, -1102, -1926, -1103, 4859, 218, 260, 172, 187, 203, 94, 184, 202
462809069, -1901, 12018, 9311, 5803, 3217, 1982, -1102, -1926, -1103, 4859, 218, 260, 172, 187, 203, 94, 184, 202
462809886, -1901, 12018, 9311, 5803, 3217, 1982, -1102, -1926, -1103, 4859, 218, 260, 172, 187, 203, 94, 184, 202
462810708, -1901, 12018, 9311, 5803, 3217, 1982, -1102, -1926, -1103, 4859, 218, 260, 172, 187, 203, 94, 184, 202
462815758, -1901, 12018, 9311, 5803, 3217, 1982, -1102, -1926, -1103, 4859, 218, 260, 172, 187, 203, 94, 184, 202
462816710, -1817, 12575, 8574, 5785, 3044, 1489, -1216, -1988, -1149, 4706, 218, 260, 172, 187, 203, 94, 184, 202
462817533, -1817, 12575, 8574, 5785, 3044, 1489, -1216, -1988, -1149, 4706, 216, 258, 181, 181, 211, 101, 172, 196
462818379, -1817, 12575, 8574, 5785, 3044, 1489, -1216, -1988, -1149, 4706, 218, 260, 172, 187, 203, 94, 184, 202
462823383, -1817, 12575, 8574, 5785, 3044, 1489, -1216, -1988, -1149, 4706, 216, 258, 181, 181, 211, 101, 172, 196
462824176, -1817, 12575, 8574, 5785, 3044, 1489, -1216, -1988, -1149, 4706, 216, 258, 181, 181, 211, 101, 172, 196
462825000, -1817, 12575, 8574, 5785, 3044, 1489, -1216, -1988, -1149, 4706, 216, 258, 181, 181, 211, 101, 172, 196
462825809, -1817, 12575, 8574, 5785, 3044, 1489, -1216, -1988, -1149, 4706, 216, 258, 181, 181, 211, 101, 172, 196
462830832, -1817, 12575, 8574, 5785, 3044, 1489, -1216, -1988, -1149, 4706, 216, 258, 181, 181, 211, 101, 172, 196
462831634, -1817, 12575, 8574, 5785, 3044, 1489, -1216, -1988, -1149, 4706, 216, 258, 181, 181, 211, 101, 172, 196
462832449, -1817, 12575, 8574, 5785, 3044, 1489, -1216, -1988, -1149, 4706, 216, 258, 181, 181, 211, 101, 172, 196
462833265, -1817, 12575, 8574, 5785, 3044, 1489, -1216, -1988, -1149, 4706, 216, 258, 181, 181, 211, 101, 172, 196
462838331, -1817, 12575, 8574, 5785, 3044, 1489, -1216, -1988, -1149, 4706, 216, 258, 181, 181, 211, 101, 172, 196
462839258, -1763, 13065, 7858, 5733, 2977, 1220, -1312, -1703, -1079, 4487, 216, 258, 181, 181, 211, 101, 172, 196
462840111, -1763, 13065, 7858, 5733, 2977, 1220, -1312, -1703, -1079, 4487, 200, 239, 168, 170, 210, 103, 128, 156
462840877, -1763, 13065, 7858, 5733, 2977, 1220, -1312, -1703, -1079, 4487, 200, 239, 168, 170, 210, 103, 128, 156
462845918, -1763, 13065, 7858, 5733, 2977, 1220, -1312, -1703, -1079, 4487, 200, 239, 168, 170, 210, 103, 128, 156
462846728, -1763, 13065, 7858, 5733, 2977, 1220, -1312, -1703, -1079, 4487, 200, 239, 168, 170, 210, 103, 128, 156
462847559, -1763, 13065, 7858, 5733, 2977, 1220, -1312, -1703, -1079, 4487, 200, 239, 168, 170, 210, 103, 128, 156
462848365, -1763, 13065, 7858, 5733, 2977, 1220, -1312, -1703, -1079, 4487, 200, 239, 168, 170, 210, 103, 128, 156
462853284, -1763, 13065, 7858, 5733, 2977, 1220, -1312, -1703, -1079, 4487, 200, 239, 168, 170, 210, 103, 128, 156
462854149, -1763, 13065, 7858, 5733, 2977, 1220, -1312, -1703, -1079, 4487, 200, 239, 168, 170, 210, 103, 128, 156
462854955, -1763, 13065, 7858, 5733, 2977, 1220, -1312, -1703, -1079, 4487, 200, 239, 168, 170, 210, 103, 128, 156
462855745, -1763, 13065, 7858, 5733, 2977, 1220, -1312, -1703, -1079, 4487, 200, 239, 168, 170, 210, 103, 128, 156
462860809, -1763, 13065, 7858, 5733, 2977, 1220, -1312, -1703, -1079, 4487, 200, 239, 168, 170, 210, 103, 128, 156
462861763, -1730, 13484, 7171, 5672, 3021, 986, -1352, -1502, -949, 4208, 200, 239, 168, 170, 210, 103, 128, 156
462862558, -1730, 13484, 7171, 5672, 3021, 986, -1352, -1502, -949, 4208, 191, 219, 167, 147, 198, 104, 145, 159
462863371, -1730, 13484, 7171, 5672, 3021, 986, -1352, -1502, -949, 4208, 191, 219, 167, 147, 198, 104, 145, 159
462868425, -1730, 13484, 7171, 5672, 3021, 986, -1352, -1502, -949, 4208, 191, 219, 167, 147, 198, 104, 145, 159
462869187, -1730, 13484, 7171, 5672, 3021, 986, -1352, -1502, -949, 4208, 191, 219, 167, 147, 198, 104, 145, 159
462870048, -1730, 13484, 7171, 5672, 3021, 986, -1352, -1502, -949, 4208, 191, 219, 167, 147, 198, 104, 145, 159
462870857, -1730, 13484, 7171, 5672, 3021, 986, -1352, -1502, -949, 4208, 191, 219, 167, 147, 198, 104, 145, 159
462875774, -1730, 13484, 7171, 5672, 3021, 986, -1352, -1502, -949, 4208, 191, 219, 167, 147, 198, 104, 145, 159
462876608, -1730, 13484, 7171, 5672, 3021, 986, -1352, -1502, -949, 4208, 191, 219, 167, 147, 198, 104, 145, 159
462877387, -1730, 13484, 7171, 5672, 3021, 986, -1352, -1502, -949, 4208, 191, 219, 167, 147, 198, 104, 145, 159
462878235, -1730, 13484, 7171, 5672, 3021, 986, -1352, -1502, -949, 4208, 191, 219, 167, 147, 198, 104, 145, 159
462883342, -1730, 13484, 7171, 5672, 3021, 986, -1352, -1502, -949, 4208, 191, 219, 167, 147, 198, 104, 145, 159
462884288, -1702, 13813, 6577, 5609, 3111, 757, -1338, -1255, -835, 3552, 191, 219, 167, 147, 198, 104, 145, 159
462885125, -1702, 13813, 6577, 5609, 3111, 757, -1338, -1255, -835, 3552, 217, 270, 209, 157, 197, 109, 143, 171
462885909, -1702, 13813, 6577, 5609, 3111, 757, -1338, -1255, -835, 3552, 217, 270, 209, 157, 197, 109, 143, 171
462890930, -1702, 13813, 6577, 5609, 3111, 757, -1338, -1255, -835, 3552, 217, 270, 209, 157, 197, 109, 143, 171
462891733, -1702, 13813, 6577, 5609, 3111, 757, -1338, -1255, -835, 3552, 217, 270, 209, 157, 197, 109, 143, 171
462892584, -1702, 13813, 6577, 5609, 3111, 757, -1338, -1255, -835, 3552, 217, 270, 209, 157, 197, 109, 143, 171
462893362, -1702, 13813, 6577, 5609, 3111, 757, -1338, -1255, -835, 3552, 217, 270, 209, 157, 197, 109, 143, 171
462898328, -1702, 13813, 6577, 5609, 3111, 757, -1338, -1255, -835, 3552, 217, 270, 209, 157, 197, 109, 143, 171
462899116, -1702, 13813, 6577, 5609, 3111, 757, -1338, -1255, -835, 3552, 217, 270, 209, 157, 197, 109, 143, 171
462899933, -1702, 13813, 6577, 5609, 3111, 757, -1338, -1255, -835, 3552, 217, 270, 209, 157, 197, 109, 143, 171
462900781, -1702, 13813, 6577, 5609, 3111, 757, -1338, -1255, -835, 3552, 217, 270, 209, 157, 197, 109, 143, 171
462905809, -1702, 13813, 6577, 5609, 3111, 757, -1338, -1255, -835, 3552, 217, 270, 209, 157, 197, 109, 143, 171
462906752, -1655, 14048, 6133, 5542, 3099, 531, -1366, -1015, -808, 2592, 217, 270, 209, 157, 197, 109, 143, 171
462907534, -1655, 14048, 6133, 5542, 3099, 531, -1366, -1015, -808, 2592, 210, 250, 222, 149, 160, 104, 116, 161
462908398, -1655, 14048, 6133, 5542, 3099, 531, -1366, -1015, -808, 2592, 210, 250, 222, 149, 160, 104, 116, 161
462913406, -1655, 14048, 6133, 5542, 3099, 531, -1366, -1015, -808, 2592, 210, 250, 222, 149, 160, 104, 116, 161
462914207, -1655, 14048, 6133, 5542, 3099, 531, -1366, -1015, -808, 2592, 210, 250, 222, 149, 160, 104, 116, 161
462915030, -1655, 14048, 6133, 5542, 3099, 531, -1366, -1015, -808, 2592, 210, 250, 222, 149, 160, 104, 116, 161
462915833, -1655, 14048, 6133, 5542, 3099, 531, -1366, -1015, -808, 2592, 210, 250, 222, 149, 160, 104, 116, 161
462920810, -1655, 14048, 6133, 5542, 3099, 531, -1366, -1015, -808, 2592, 210, 250, 222, 149, 160, 104, 116, 161
462921608, -1655, 14048, 6133, 5542, 3099, 531, -1366, -1015, -808, 2592, 210, 250, 222, 149, 160, 104, 116, 161
462922431, -1655, 14048, 6133, 5542, 3099, 531, -1366, -1015, -808, 2592, 210, 250, 222, 149, 160, 104, 116, 161
462923261, -1655, 14048, 6133, 5542, 3099, 531, -1366, -1015, -808, 2592, 210, 250, 222, 149, 160, 104, 116, 161
462928283, -1655, 14048, 6133, 5542, 3099, 531, -1366, -1015, -808, 2592, 210, 250, 222, 149, 160, 104, 116, 161
462929277, -1597, 14206, 5827, 5485, 2953, 516, -1568, -791, -686, 1742, 210, 250, 222, 149, 160, 104, 116, 161
462930055, -1597, 14206, 5827, 5485, 2953, 516, -1568, -791, -686, 1742, 185, 217, 201, 137, 132, 90, 104, 141
462930901, -1597, 14206, 5827, 5485, 2953, 516, -1568, -791, -686, 1742, 185, 217, 201, 137, 132, 90, 104, 141
462935861, -1597, 14206, 5827, 5485, 2953, 516, -1568, -791, -686, 1742, 185, 217, 201, 137, 132, 90, 104, 141
462936724, -1597, 14206, 5827, 5485, 2953, 516, -1568, -791, -686, 1742, 185, 217, 201, 137, 132, 90, 104, 141
462937580, -1597, 14206, 5827, 5485, 2953, 516, -1568, -791, -686, 1742, 185, 217, 201, 137, 132, 90, 104, 141
462938272, -1597, 14206, 5827, 5485, 2953, 516, -1568, -791, -686, 1742, 185, 217, 201, 137, 132, 90, 104, 141
462943258, -1597, 14206, 5827, 5485, 2953, 516, -1568, -791, -686, 1742, 185, 217, 201, 137, 132, 90, 104, 141
462944095, -1597, 14206, 5827, 5485, 2953, 516, -1568, -791, -686, 1742, 185, 217, 201, 137, 132, 90, 104, 141
462944883, -1597, 14206, 5827, 5485, 2953, 516, -1568, -791, -686, 1742, 185, 217, 201, 137, 132, 90, 104, 141
462945720, -1597, 14206, 5827, 5485, 2953, 516, -1568, -791, -686, 1742, 185, 217, 201, 137, 132, 90, 104, 141
462950835, -1597, 14206, 5827, 5485, 2953, 516, -1568, -791, -686, 1742, 185, 217, 201, 137, 132, 90, 104, 141
462951774, -1558, 14279, 5573, 5572, 2984, 520, -1479, -702, -356, 1341, 185, 217, 201, 137, 132, 90, 104, 141
462952584, -1558, 14279, 5573, 5572, 2984, 520, -1479, -702, -356, 1341, 199, 227, 206, 135, 114, 78, 109, 150
462953408, -1558, 14279, 5573, 5572, 2984, 520, -1479, -702, -356, 1341, 199, 227, 206, 135, 114, 78, 109, 150
462958409, -1558, 14279, 5573, 5572, 2984, 520, -1479, -702, -356, 1341, 199, 227, 206, 135, 114, 78, 109, 150
462959255, -1558, 14279, 5573, 5572, 2984, 520, -1479, -702, -356, 1341, 199, 227, 206, 135, 114, 78, 109, 150
462960036, -1558, 14279, 5573, 5572, 2984, 520, -1479, -702, -356, 1341, 199, 227, 206, 135, 114, 78, 109, 150
462960861, -1558, 14279, 5573, 5572, 2984, 520, -1479, -702, -356, 1341, 199, 227, 206, 135, 114, 78, 109, 150
462965809, -1558, 14279, 5573, 5572, 2984, 520, -1479, -702, -356, 1341, 199, 227, 206, 135, 114, 78, 109, 150
462966637, -1558, 14279, 5573, 5572, 2984, 520, -1479, -702, -356, 1341, 199, 227, 206, 135, 114, 78, 109, 150
462967436, -1558, 14279, 5573, 5572, 2984, 520, -1479, -702, -356, 1341, 199, 227, 206, 135, 114, 78, 109, 150
462968261, -1558, 14279, 5573, 5572, 2984, 520, -1479, -702, -356, 1341, 199, 227, 206, 135, 114, 78, 109, 150
462973312, -1558, 14279, 5573, 5572, 2984, 520, -1479, -702, -356, 1341, 199, 227, 206, 135, 114, 78, 109, 150
462974237, -1534, 14303, 5386, 5698, 3115, 509, -1465, -560, -122, 925, 199, 227, 206, 135, 114, 78, 109, 150
462975060, -1534, 14303, 5386, 5698, 3115, 509, -1465, -560, -122, 925, 196, 221, 199, 127, 107, 66, 85, 147
462975885, -1534, 14303, 5386, 5698, 3115, 509, -1465, -560, -122, 925, 196, 221, 199, 127, 107, 66, 85, 147
462980886, -1534, 14303, 5386, 5698, 3115, 509, -1465, -560, -122, 925, 196, 221, 199, 127, 107, 66, 85, 147
462981711, -1534, 14303, 5386, 5698, 3115, 509, -1465, -560, -122, 925, 196, 221, 199, 127, 107, 66, 85, 147
462982561, -1534, 14303, 5386, 5698, 3115, 509, -1465, -560, -122, 925, 196, 221, 199, 127, 107, 66, 85, 147
462983335, -1534, 14303, 5386, 5698, 3115, 509, -1465, -560, -122, 925, 196, 221, 199, 127, 107, 66, 85, 147
462988283, -1534, 14303, 5386, 5698, 3115, 509, -1465, -560, -122, 925, 196, 221, 199, 127, 107, 66, 85, 147
462989124, -1534, 14303, 5386, 5698, 3115, 509, -1465, -560, -122, 925, 196, 221, 199, 127, 107, 66, 85, 147
462989931, -1534, 14303, 5386, 5698, 3115, 509, -1465, -560, -122, 925, 196, 221, 199, 127, 107, 66, 85, 147
462990706, -1534, 14303, 5386, 5698, 3115, 509, -1465, -560, -122, 925, 196, 221, 199, 127, 107, 66, 85, 147
462995819, -1534, 14303, 5386, 5698, 3115, 509, -1465, -560, -122, 925, 196, 221, 199, 127, 107, 66, 85, 147
462996772, -1515, 14288, 5278, 5839, 3178, 519, -1420, -396, -10, 468, 196, 221, 199, 127, 107, 66, 85, 147
462997602, -1515, 14288, 5278, 5839, 3178, 519, -1420, -396, -10, 468, 157, 147, 151, 134, 117, 53, 83, 125
462998369, -1515, 14288, 5278, 5839, 3178, 519, -1420, -396, -10, 468, 157, 147, 151, 134, 117, 53, 83, 125
463003391, -1515, 14288, 5278, 5839, 3178, 519, -1420, -396, -10, 468, 157, 147, 151, 134, 117, 53, 83, 125
463004184, -1515, 14288, 5278, 5839, 3178, 519, -1420, -396, -10, 468, 157, 147, 151, 134, 117, 53, 83, 125
463004975, -1515, 14288, 5278, 5839, 3178, 519, -1420, -396, -10, 468, 157, 147, 151, 134, 117, 53, 83, 125
463005799, -1515, 14288, 5278, 5839, 3178, 519, -1420, -396, -10, 468, 157, 147, 151, 134, 117, 53, 83, 125
463025782, -1515, 14288, 5278, 5839, 3178, 519, -1420, -396, -10, 468, 157, 147, 151, 134, 117, 53, 83, 125
463026627, -1515, 14288, 5278, 5839, 3178, 519, -1420, -396, -10, 468, 157, 147, 151, 134, 117, 53, 83, 125
463027428, -1515, 14288, 5278, 5839, 3178, 519, -1420, -396, -10, 468, 157, 147, 151, 134, 117, 53, 83, 125
463028209, -1515, 14288, 5278, 5839, 3178, 519, -1420, -396, -10, 468, 157, 147, 151, 134, 117, 53, 83, 125
463033311, -1515, 14288, 5278, 5839, 3178, 519, -1420, -396, -10, 468, 157, 147, 151, 134, 117, 53, 83, 125
463034213, -1487, 14245, 5223, 6001, 3277, 542, -1335, -352, 65, 130, 157, 147, 151, 134, 117, 53, 83, 125
463035061, -1487, 14245, 5223, 6001, 3277, 542, -1335, -352, 65, 130, 150, 143, 131, 136, 111, 49, 82, 119
463035833, -1487, 14245, 5223, 6001, 3277, 542, -1335, -352, 65, 130, 150, 143, 131, 136, 111, 49, 82, 119
463040849, -1487, 14245, 5223, 6001, 3277, 542, -1335, -352, 65, 130, 150, 143, 131, 136, 111, 49, 82, 119
463041659, -1487, 14245, 5223, 6001, 3277, 542, -1335, -352, 65, 130, 150, 143, 131, 136, 111, 49, 82, 119
463042573, -1487, 14245, 5223, 6001, 3277, 542, -1335, -352, 65, 130, 150, 143, 131, 136, 111, 49, 82, 119
463043258, -1487, 14245, 5223, 6001, 3277, 542, -1335, -352, 65, 130, 150, 143, 131, 136, 111, 49, 82, 119
463048334, -1487, 14245, 5223, 6001, 3277, 542, -1335, -352, 65, 130, 150, 143, 131, 136, 111, 49, 82, 119
463049108, -1487, 14245, 5223, 6001, 3277, 542, -1335, -352, 65, 130, 150, 143, 131, 136, 111, 49, 82, 119
463049976, -1487, 14245, 5223, 6001, 3277, 542, -1335, -352, 65, 130, 150, 143, 131, 136, 111, 49, 82, 119
463050734, -1487, 14245, 5223, 6001, 3277, 542, -1335, -352, 65, 130, 150, 143, 131, 136, 111, 49, 82, 119
463055827, -1487, 14245, 5223, 6001, 3277, 542, -1335, -352, 65, 130, 150, 143, 131, 136, 111, 49, 82, 119
463056768, -1470, 14174, 5220, 6172, 3356, 563, -1259, -202, 134, -170, 150, 143, 131, 136, 111, 49, 82, 119
463057558, -1470, 14174, 5220, 6172, 3356, 563, -1259, -202, 134, -170, 151, 147, 138, 136, 108, 59, 82, 121
463058426, -1470, 14174, 5220, 6172, 3356, 563, -1259, -202, 134, -170, 151, 147, 138, 136, 108, 59, 82, 121
463063384, -1470, 14174, 5220, 6172, 3356, 563, -1259, -202, 134, -170, 151, 147, 138, 136, 108, 59, 82, 121
463064212, -1470, 14174, 5220, 6172, 3356, 563, -1259, -202, 134, -170, 151, 147, 138, 136, 108, 59, 82, 121
463065010, -1470, 14174, 5220, 6172, 3356, 563, -1259, -202, 134, -170, 151, 147, 138, 136, 108, 59, 82, 121
463065832, -1470, 14174, 5220, 6172, 3356, 563, -1259, -202, 134, -170, 151, 147, 138, 136, 108, 59, 82, 121
463070782, -1470, 14174, 5220, 6172, 3356, 563, -1259, -202, 134, -170, 151, 147, 138, 136, 108, 59, 82, 121
463071621, -1470, 14174, 5220, 6172, 3356, 563, -1259, -202, 134, -170, 151, 147, 138, 136, 108, 59, 82, 121
463072411, -1470, 14174, 5220, 6172, 3356, 563, -1259, -202, 134, -170, 151, 147, 138, 136, 108, 59, 82, 121
463073255, -1470, 14174, 5220, 6172, 3356, 563, -1259, -202, 134, -170, 151, 147, 138, 136, 108, 59, 82, 121
463078297, -1470, 14174, 5220, 6172, 3356, 563, -1259, -202, 134, -170, 151, 147, 138, 136, 108, 59, 82, 121
463079266, -1469, 14080, 5253, 6357, 3394, 669, -1209, -25, 264, -334, 151, 147, 138, 136, 108, 59, 82, 121
463080047, -1469, 14080, 5253, 6357, 3394, 669, -1209, -25, 264, -334, 128, 127, 132, 132, 113, 62, 73, 110
463080888, -1469, 14080, 5253, 6357, 3394, 669, -1209, -25, 264, -334, 128, 127, 132, 132, 113, 62, 73, 110
463085864, -1469, 14080, 5253, 6357, 3394, 669, -1209, -25, 264, -334, 128, 127, 132, 132, 113, 62, 73, 110
463086683, -1469, 14080, 5253, 6357, 3394, 669, -1209, -25, 264, -334, 128, 127, 132, 132, 113, 62, 73, 110
463087599, -1469, 14080, 5253, 6357, 3394, 669, -1209, -25, 264, -334, 128, 127, 132, 132, 113, 62, 73, 110
463088262, -1469, 14080, 5253, 6357, 3394, 669, -1209, -25, 264, -334, 128, 127, 132, 132, 113, 62, 73, 110
463093299, -1469, 14080, 5253, 6357, 3394, 669, -1209, -25, 264, -334, 128, 127, 132, 132, 113, 62, 73, 110
463094105, -1469, 14080, 5253, 6357, 3394, 669, -1209, -25, 264, -334, 128, 127, 132, 132, 113, 62, 73, 110
463094924, -1469, 14080, 5253, 6357, 3394, 669, -1209, -25, 264, -334, 128, 127, 132, 132, 113, 62, 73, 110
463095709, -1469, 14080, 5253, 6357, 3394, 669, -1209, -25, 264, -334, 128, 127, 132, 132, 113, 62, 73, 110
463100861, -1469, 14080, 5253, 6357, 3394, 669, -1209, -25, 264, -334, 128, 127, 132, 132, 113, 62, 73, 110
463101761, -1478, 13976, 5299, 6544, 3433, 711, -1125, 55, 308, -388, 128, 127, 132, 132, 113, 62, 73, 110
463102624, -1478, 13976, 5299, 6544, 3433, 711, -1125, 55, 308, -388, 119, 125, 132, 136, 113, 72, 73, 116
463103387, -1478, 13976, 5299, 6544, 3433, 711, -1125, 55, 308, -388, 119, 125, 132, 136, 113, 72, 73, 116
463106192, -1478, 13976, 5299, 6544, 3433, 711, -1125, 55, 308, -388, 119, 125, 132, 136, 113, 72, 73, 116
463115784, -1478, 13976, 5299, 6544, 3433, 711, -1125, 55, 308, -388, 119, 125, 132, 136, 113, 72, 73, 116
463116592, -1478, 13976, 5299, 6544, 3433, 711, -1125, 55, 308, -388, 119, 125, 132, 136, 113, 72, 73, 116
463117389, -1478, 13976, 5299, 6544, 3433, 711, -1125, 55, 308, -388, 119, 125, 132, 136, 113, 72, 73, 116
463118208, -1478, 13976, 5299, 6544, 3433, 711, -1125, 55, 308, -388, 119, 125, 132, 136, 113, 72, 73, 116
463123286, -1478, 13976, 5299, 6544, 3433, 711, -1125, 55, 308, -388, 119, 125, 132, 136, 113, 72, 73, 116
463124149, -1478, 13976, 5299, 6544, 3433, 711, -1125, 55, 308, -388, 119, 125, 132, 136, 113, 72, 73, 116
463124934, -1478, 13976, 5299, 6544, 3433, 711, -1125, 55, 308, -388, 119, 125, 132, 136, 113, 72, 73, 116
463125757, -1478, 13976, 5299, 6544, 3433, 711, -1125, 55, 308, -388, 119, 125, 132, 136, 113, 72, 73, 116
463130858, -1478, 13976, 5299, 6544, 3433, 711, -1125, 55, 308, -388, 104, 112, 153, 131, 95, 74, 109, 142
463131680, -1478, 13976, 5299, 6544, 3433, 711, -1125, 55, 308, -388, 104, 112, 153, 131, 95, 74, 109, 142
463132558, -1478, 13976, 5299, 6544, 3433, 711, -1125, 55, 308, -388, 104, 112, 153, 131, 95, 74, 109, 142
463133235, -1478, 13976, 5299, 6544, 3433, 711, -1125, 55, 308, -388, 104, 112, 153, 131, 95, 74, 109, 142
463138306, -1478, 13976, 5299, 6544, 3433, 711, -1125, 55, 308, -388, 104, 112, 153, 131, 95, 74, 109, 142
463139148, -1478, 13976, 5299, 6544, 3433, 711, -1125, 55, 308, -388, 104, 112, 153, 131, 95, 74, 109, 142
463139933, -1478, 13976, 5299, 6544, 3433, 711, -1125, 55, 308, -388, 104, 112, 153, 131, 95, 74, 109, 142
463140799, -1478, 13976, 5299, 6544, 3433, 711, -1125, 55, 308, -388, 104, 112, 153, 131, 95, 74, 109, 142
463145808, -1478, 13976, 5299, 6544, 3433, 711, -1125, 55, 308, -388, 104, 112, 153, 131, 95, 74, 109, 142
463146774, -1504, 13763, 5405, 6893, 3645, 797, -953, 143, 157, -429, 104, 112, 153, 131, 95, 74, 109, 142
463147579, -1504, 13763, 5405, 6893, 3645, 797, -953, 143, 157, -429, 102, 95, 145, 122, 95, 75, 110, 149
463148427, -1504, 13763, 5405, 6893, 3645, 797, -953, 143, 157, -429, 102, 95, 145, 122, 95, 75, 110, 149
463153390, -1504, 13763, 5405, 6893, 3645, 797, -953, 143, 157, -429, 102, 95, 145, 122, 95, 75, 110, 149
463154232, -1504, 13763, 5405, 6893, 3645, 797, -953, 143, 157, -429, 102, 95, 145, 122, 95, 75, 110, 149
463155008, -1504, 13763, 5405, 6893, 3645, 797, -953, 143, 157, -429, 102, 95, 145, 122, 95, 75, 110, 149
463155860, -1504, 13763, 5405, 6893, 3645, 797, -953, 143, 157, -429, 102, 95, 145, 122, 95, 75, 110, 149
463160786, -1504, 13763, 5405, 6893, 3645, 797, -953, 143, 157, -429, 102, 95, 145, 122, 95, 75, 110, 149
463161618, -1504, 13763, 5405, 6893, 3645, 797, -953, 143, 157, -429, 102, 95, 145, 122, 95, 75, 110, 149
463162413, -1504, 13763, 5405, 6893, 3645, 797, -953, 143, 157, -429, 102, 95, 145, 122, 95, 75, 110, 149
463163260, -1504, 13763, 5405, 6893, 3645, 797, -953, 143, 157, -429, 102, 95, 145, 122, 95, 75, 110, 149
463168283, -1504, 13763, 5405, 6893, 3645, 797, -953, 143, 157, -429, 102, 95, 145, 122, 95, 75, 110, 149
463169230, -1520, 13658, 5461, 7052, 3719, 853, -928, 187, 124, -402, 102, 95, 145, 122, 95, 75, 110, 149
463170075, -1520, 13658, 5461, 7052, 3719, 853, -928, 187, 124, -402, 105, 97, 138, 124, 91, 67, 109, 149
463170856, -1520, 13658, 5461, 7052, 3719, 853, -928, 187, 124, -402, 105, 97, 138, 124, 91, 67, 109, 149
463175868, -1520, 13658, 5461, 7052, 3719, 853, -928, 187, 124, -402, 105, 97, 138, 124, 91, 67, 109, 149
463176701, -1520, 13658, 5461, 7052, 3719, 853, -928, 187, 124, -402, 105, 97, 138, 124, 91, 67, 109, 149
463177570, -1520, 13658, 5461, 7052, 3719, 853, -928, 187, 124, -402, 105, 97, 138, 124, 91, 67, 109, 149
463178304, -1520, 13658, 5461, 7052, 3719, 853, -928, 187, 124, -402, 105, 97, 138, 124, 91, 67, 109, 149
463183248, -1520, 13658, 5461, 7052, 3719, 853, -928, 187, 124, -402, 105, 97, 138, 124, 91, 67, 109, 149
463184083, -1520, 13658, 5461, 7052, 3719, 853, -928, 187, 124, -402, 105, 97, 138, 124, 91, 67, 109, 149
463184912, -1520, 13658, 5461, 7052, 3719, 853, -928, 187, 124, -402, 105, 97, 138, 124, 91, 67, 109, 149
463185709, -1520, 13658, 5461, 7052, 3719, 853, -928, 187, 124, -402, 105, 97, 138, 124, 91, 67, 109, 149
463190825, -1520, 13658, 5461, 7052, 3719, 853, -928, 187, 124, -402, 105, 97, 138, 124, 91, 67, 109, 149
463191711, -1541, 13558, 5507, 7203, 3814, 856, -894, 188, 80, -354, 105, 97, 138, 124, 91, 67, 109, 149
463192600, -1541, 13558, 5507, 7203, 3814, 856, -894, 188, 80, -354, 106, 97, 136, 123, 92, 70, 104, 145
463193337, -1541, 13558, 5507, 7203, 3814, 856, -894, 188, 80, -354, 106, 97, 136, 123, 92, 70, 104, 145
463198369, -1541, 13558, 5507, 7203, 3814, 856, -894, 188, 80, -354, 106, 97, 136, 123, 92, 70, 104, 145
463199159, -1541, 13558, 5507, 7203, 3814, 856, -894, 188, 80, -354, 106, 97, 136, 123, 92, 70, 104, 145
463200011, -1541, 13558, 5507, 7203, 3814, 856, -894, 188, 80, -354, 106, 97, 136, 123, 92, 70, 104, 145
463200783, -1541, 13558, 5507, 7203, 3814, 856, -894, 188, 80, -354, 106, 97, 136, 123, 92, 70, 104, 145
463205821, -1541, 13558, 5507, 7203, 3814, 856, -894, 188, 80, -354, 106, 97, 136, 123, 92, 70, 104, 145
463206670, -1541, 13558, 5507, 7203, 3814, 856, -894, 188, 80, -354, 106, 97, 136, 123, 92, 70, 104, 145
463207463, -1541, 13558, 5507, 7203, 3814, 856, -894, 188, 80, -354, 106, 97, 136, 123, 92, 70, 104, 145
463208261, -1541, 13558, 5507, 7203, 3814, 856, -894, 188, 80, -354, 106, 97, 136, 123, 92, 70, 104, 145
463213313, -1541, 13558, 5507, 7203, 3814, 856, -894, 188, 80, -354, 106, 97, 136, 123, 92, 70, 104, 145
463214219, -1557, 13465, 5544, 7344, 3850, 852, -867, 155, 29, -318, 106, 97, 136, 123, 92, 70, 104, 145
463215034, -1557, 13465, 5544, 7344, 3850, 852, -867, 155, 29, -318, 98, 92, 133, 116, 85, 58, 102, 132
463215858, -1557, 13465, 5544, 7344, 3850, 852, -867, 155, 29, -318, 98, 92, 133, 116, 85, 58, 102, 132
463220884, -1557, 13465, 5544, 7344, 3850, 852, -867, 155, 29, -318, 98, 92, 133, 116, 85, 58, 102, 132
463221749, -1557, 13465, 5544, 7344, 3850, 852, -867, 155, 29, -318, 98, 92, 133, 116, 85, 58, 102, 132
463222580, -1557, 13465, 5544, 7344, 3850, 852, -867, 155, 29, -318, 98, 92, 133, 116, 85, 58, 102, 132
463223377, -1557, 13465, 5544, 7344, 3850, 852, -867, 155, 29, -318, 98, 92, 133, 116, 85, 58, 102, 132
463228295, -1557, 13465, 5544, 7344, 3850, 852, -867, 155, 29, -318, 98, 92, 133, 116, 85, 58, 102, 132
463229085, -1557, 13465, 5544, 7344, 3850, 852, -867, 155, 29, -318, 98, 92, 133, 116, 85, 58, 102, 132
463229910, -1557, 13465, 5544, 7344, 3850, 852, -867, 155, 29, -318, 98, 92, 133, 116, 85, 58, 102, 132
463230711, -1557, 13465, 5544, 7344, 3850, 852, -867, 155, 29, -318, 98, 92, 133, 116, 85, 58, 102, 132
463235775, -1557, 13465, 5544, 7344, 3850, 852, -867, 155, 29, -318, 98, 92, 133, 116, 85, 58, 102, 132
463236712, -1574, 13381, 5577, 7468, 3814, 844, -909, 158, -5, -281, 98, 92, 133, 116, 85, 58, 102, 132
463237533, -1574, 13381, 5577, 7468, 3814, 844, -909, 158, -5, -281, 88, 86, 97, 82, 93, 52, 58, 93
463238336, -1574, 13381, 5577, 7468, 3814, 844, -909, 158, -5, -281, 88, 86, 97, 82, 93, 52, 58, 93
463243348, -1574, 13381, 5577, 7468, 3814, 844, -909, 158, -5, -281, 88, 86, 97, 82, 93, 52, 58, 93
463244199, -1574, 13381, 5577, 7468, 3814, 844, -909, 158, -5, -281, 88, 86, 97, 82, 93, 52, 58, 93
463244983, -1574, 13381, 5577, 7468, 3814, 844, -909, 158, -5, -281, 88, 86, 97, 82, 93, 52, 58, 93
463245815, -1574, 13381, 5577, 7468, 3814, 844, -909, 158, -5, -281, 88, 86, 97, 82, 93, 52, 58, 93
463250756, -1574, 13381, 5577, 7468, 3814, 844, -909, 158, -5, -281, 88, 86, 97, 82, 93, 52, 58, 93
463251556, -1574, 13381, 5577, 7468, 3814, 844, -909, 158, -5, -281, 88, 86, 97, 82, 93, 52, 58, 93
463252385, -1574, 13381, 5577, 7468, 3814, 844, -909, 158, -5, -281, 88, 86, 97, 82, 93, 52, 58, 93
463253207, -1574, 13381, 5577, 7468, 3814, 844, -909, 158, -5, -281, 88, 86, 97, 82, 93, 52, 58, 93
463258359, -1574, 13381, 5577, 7468, 3814, 844, -909, 158, -5, -281, 88, 86, 97, 82, 93, 52, 58, 93
463259264, -1588, 13305, 5604, 7581, 3761, 845, -942, 132, -15, -241, 88, 86, 97, 82, 93, 52, 58, 93
463260070, -1588, 13305, 5604, 7581, 3761, 845, -942, 132, -15, -241, 76, 79, 77, 71, 117, 50, 47, 73
463260895, -1588, 13305, 5604, 7581, 3761, 845, -942, 132, -15, -241, 76, 79, 77, 71, 117, 50, 47, 73
463265909, -1588, 13305, 5604, 7581, 3761, 845, -942, 132, -15, -241, 76, 79, 77, 71, 117, 50, 47, 73
463266737, -1588, 13305, 5604, 7581, 3761, 845, -942, 132, -15, -241, 76, 79, 77, 71, 117, 50, 47, 73
463267558, -1588, 13305, 5604, 7581, 3761, 845, -942, 132, -15, -241, 76, 79, 77, 71, 117, 50, 47, 73
463268341, -1588, 13305, 5604, 7581, 3761, 845, -942, 132, -15, -241, 76, 79, 77, 71, 117, 50, 47, 73
463273283, -1588, 13305, 5604, 7581, 3761, 845, -942, 132, -15, -241, 76, 79, 77, 71, 117, 50, 47, 73
463274150, -1588, 13305, 5604, 7581, 3761, 845, -942, 132, -15, -241, 76, 79, 77, 71, 117, 50, 47, 73
463274909, -1588, 13305, 5604, 7581, 3761, 845, -942, 132, -15, -241, 76, 79, 77, 71, 117, 50, 47, 73
463275744, -1588, 13305, 5604, 7581, 3761, 845, -942, 132, -15, -241, 76, 79, 77, 71, 117, 50, 47, 73
463280809, -1588, 13305, 5604, 7581, 3761, 845, -942, 132, -15, -241, 76, 79, 77, 71, 117, 50, 47, 73
463281766, -1594, 13230, 5629, 7691, 3660, 850, -963, 89, 28, -249, 76, 79, 77, 71, 117, 50, 47, 73
463282559, -1594, 13230, 5629, 7691, 3660, 850, -963, 89, 28, -249, 56, 58, 63, 50, 116, 50, 48, 64
463283402, -1594, 13230, 5629, 7691, 3660, 850, -963, 89, 28, -249, 56, 58, 63, 50, 116, 50, 48, 64
463288386, -1594, 13230, 5629, 7691, 3660, 850, -963, 89, 28, -249, 56, 58, 63, 50, 116, 50, 48, 64
463289194, -1594, 13230, 5629, 7691, 3660, 850, -963, 89, 28, -249, 56, 58, 63, 50, 116, 50, 48, 64
463290007, -1594, 13230, 5629, 7691, 3660, 850, -963, 89, 28, -249, 56, 58, 63, 50, 116, 50, 48, 64
463290807, -1594, 13230, 5629, 7691, 3660, 850, -963, 89, 28, -249, 56, 58, 63, 50, 116, 50, 48, 64
463295757, -1594, 13230, 5629, 7691, 3660, 850, -963, 89, 28, -249, 56, 58, 63, 50, 116, 50, 48, 64
463296630, -1594, 13230, 5629, 7691, 3660, 850, -963, 89, 28, -249, 56, 58, 63, 50, 116, 50, 48, 64
463297393, -1594, 13230, 5629, 7691, 3660, 850, -963, 89, 28, -249, 56, 58, 63, 50, 116, 50, 48, 64
463298238, -1594, 13230, 5629, 7691, 3660, 850, -963, 89, 28, -249, 56, 58, 63, 50, 116, 50, 48, 64
463303279, -1594, 13230, 5629, 7691, 3660, 850, -963, 89, 28, -249, 56, 58, 63, 50, 116, 50, 48, 64
463304197, -1596, 13145, 5663, 7811, 3549, 859, -977, 72, 155, -324, 56, 58, 63, 50, 116, 50, 48, 64
463305033, -1596, 13145, 5663, 7811, 3549, 859, -977, 72, 155, -324, 43, 52, 57, 45, 107, 41, 55, 49
463305854, -1596, 13145, 5663, 7811, 3549, 859, -977, 72, 155, -324, 43, 52, 57, 45, 107, 41, 55, 49
