Timestamp, Orientation x, Orientation y, Orientation z, Orientation w, Acceleration x, Acceleration y, Acceleration z, Rotation x, Rotation y, Rotation z, EMG 0, EMG 1, EMG 2, EMG 3, EMG 4, EMG 5, EMG 6, EMG 7
407780661, -482, 7096, 13412, 6160, 1437, 2260, -1218, 271, -105, 135, 0, 0, 0, 0, 0, 0, 0, 0
407781459, -502, 7112, 13380, 6209, 1454, 2283, -1218, 250, -137, 189, 0, 0, 0, 0, 0, 0, 0, 0
407802508, -517, 7138, 13340, 6263, 1489, 2317, -1197, 216, -175, 240, 0, 0, 0, 0, 0, 0, 0, 0
407817483, -530, 7175, 13296, 6314, 1501, 2317, -1181, 213, -217, 295, 0, 0, 0, 0, 0, 0, 0, 0
407839947, -539, 7222, 13249, 6359, 1508, 2341, -1136, 231, -276, 355, 0, 0, 0, 0, 0, 0, 0, 0
407855598, -539, 7222, 13249, 6359, 1508, 2341, -1136, 231, -276, 355, 41, 85, 40, 48, 78, 63, 75, 27
407856387, -539, 7222, 13249, 6359, 1508, 2341, -1136, 231, -276, 355, 41, 85, 40, 48, 78, 63, 75, 27
407862583, -548, 7287, 13204, 6378, 1547, 2363, -1201, 343, -371, 433, 41, 85, 40, 48, 78, 63, 75, 27
407870583, -548, 7287, 13204, 6378, 1547, 2363, -1201, 343, -371, 433, 47, 80, 42, 57, 103, 84, 95, 34
407871438, -548, 7287, 13204, 6378, 1547, 2363, -1201, 343, -371, 433, 47, 80, 42, 57, 103, 84, 95, 34
407877577, -558, 7368, 13152, 6390, 1580, 2392, -1243, 356, -418, 528, 47, 80, 42, 57, 103, 84, 95, 34
407893083, -558, 7368, 13152, 6390, 1580, 2392, -1243, 356, -418, 528, 49, 84, 42, 63, 139, 88, 113, 36
407893935, -558, 7368, 13152, 6390, 1580, 2392, -1243, 356, -418, 528, 49, 84, 42, 63, 139, 88, 113, 36
407900061, -564, 7466, 13091, 6401, 1594, 2408, -1281, 320, -469, 632, 49, 84, 42, 63, 139, 88, 113, 36
407908099, -564, 7466, 13091, 6401, 1594, 2408, -1281, 320, -469, 632, 48, 81, 42, 67, 183, 95, 119, 41
407908916, -564, 7466, 13091, 6401, 1594, 2408, -1281, 320, -469, 632, 48, 81, 42, 67, 183, 95, 119, 41
407922502, -567, 7574, 13023, 6412, 1621, 2357, -1258, 286, -509, 676, 48, 81, 42, 67, 183, 95, 119, 41
407930626, -567, 7574, 13023, 6412, 1621, 2357, -1258, 286, -509, 676, 48, 83, 46, 75, 254, 113, 123, 42
407931388, -567, 7574, 13023, 6412, 1621, 2357, -1258, 286, -509, 676, 48, 83, 46, 75, 254, 113, 123, 42
407937590, -577, 7687, 12958, 6409, 1652, 2276, -1242, 344, -540, 689, 48, 83, 46, 75, 254, 113, 123, 42
407953083, -577, 7687, 12958, 6409, 1652, 2276, -1242, 344, -540, 689, 49, 84, 49, 96, 275, 112, 122, 43
407953895, -577, 7687, 12958, 6409, 1652, 2276, -1242, 344, -540, 689, 49, 84, 49, 96, 275, 112, 122, 43
407960046, -591, 7800, 12902, 6384, 1686, 2341, -1264, 505, -589, 698, 49, 84, 49, 96, 275, 112, 122, 43
407968083, -591, 7800, 12902, 6384, 1686, 2341, -1264, 505, -589, 698, 50, 71, 51, 97, 300, 107, 105, 38
407968935, -591, 7800, 12902, 6384, 1686, 2341, -1264, 505, -589, 698, 50, 71, 51, 97, 300, 107, 105, 38
407982491, -611, 7912, 12852, 6346, 1726, 2276, -1301, 557, -600, 681, 50, 71, 51, 97, 300, 107, 105, 38
407990607, -611, 7912, 12852, 6346, 1726, 2276, -1301, 557, -600, 681, 55, 68, 60, 106, 312, 144, 86, 41
407991401, -611, 7912, 12852, 6346, 1726, 2276, -1301, 557, -600, 681, 55, 68, 60, 106, 312, 144, 86, 41
407997594, -632, 8015, 12810, 6298, 1750, 2344, -1344, 654, -604, 641, 55, 68, 60, 106, 312, 144, 86, 41
408013156, -632, 8015, 12810, 6298, 1750, 2344, -1344, 654, -604, 641, 74, 89, 71, 109, 297, 170, 101, 72
408013927, -632, 8015, 12810, 6298, 1750, 2344, -1344, 654, -604, 641, 74, 89, 71, 109, 297, 170, 101, 72
408020085, -660, 8116, 12769, 6249, 1771, 2363, -1426, 668, -567, 656, 74, 89, 71, 109, 297, 170, 101, 72
408028093, -660, 8116, 12769, 6249, 1771, 2363, -1426, 668, -567, 656, 88, 96, 75, 109, 254, 235, 125, 107
408028885, -660, 8116, 12769, 6249, 1771, 2363, -1426, 668, -567, 656, 88, 96, 75, 109, 254, 235, 125, 107
408043011, -683, 8214, 12717, 6225, 1783, 2447, -1470, 555, -496, 692, 88, 96, 75, 109, 254, 235, 125, 107
408050575, -683, 8214, 12717, 6225, 1783, 2447, -1470, 555, -496, 692, 92, 96, 75, 97, 244, 248, 133, 115
408051363, -683, 8214, 12717, 6225, 1783, 2447, -1470, 555, -496, 692, 92, 96, 75, 97, 244, 248, 133, 115
408057562, -686, 8308, 12645, 6246, 1785, 2541, -1473, 294, -443, 707, 92, 96, 75, 97, 244, 248, 133, 115
408073090, -686, 8308, 12645, 6246, 1785, 2541, -1473, 294, -443, 707, 96, 94, 75, 96, 238, 257, 155, 134
408073909, -686, 8308, 12645, 6246, 1785, 2541, -1473, 294, -443, 707, 96, 94, 75, 96, 238, 257, 155, 134
408080041, -652, 8391, 12557, 6316, 1813, 2478, -1433, -72, -443, 594, 96, 94, 75, 96, 238, 257, 155, 134
408088078, -652, 8391, 12557, 6316, 1813, 2478, -1433, -72, -443, 594, 147, 100, 89, 98, 219, 332, 279, 275
408088908, -652, 8391, 12557, 6316, 1813, 2478, -1433, -72, -443, 594, 147, 100, 89, 98, 219, 332, 279, 275
408102483, -614, 8470, 12473, 6381, 1864, 2382, -1392, -98, -491, 519, 147, 100, 89, 98, 219, 332, 279, 275
408110584, -614, 8470, 12473, 6381, 1864, 2382, -1392, -98, -491, 519, 186, 126, 107, 130, 246, 430, 381, 376
408111428, -614, 8470, 12473, 6381, 1864, 2382, -1392, -98, -491, 519, 186, 126, 107, 130, 246, 430, 381, 376
408117561, -539, 8559, 12410, 6393, 1756, 2378, -1205, 125, -834, 461, 186, 126, 107, 130, 246, 430, 381, 376
408133062, -539, 8559, 12410, 6393, 1756, 2378, -1205, 125, -834, 461, 213, 126, 109, 138, 261, 604, 515, 496
408133867, -539, 8559, 12410, 6393, 1756, 2378, -1205, 125, -834, 461, 213, 126, 109, 138, 261, 604, 515, 496
408140012, -528, 8641, 12359, 6381, 1723, 2295, -1581, 291, -516, 530, 213, 126, 109, 138, 261, 604, 515, 496
408148110, -528, 8641, 12359, 6381, 1723, 2295, -1581, 291, -516, 530, 239, 138, 113, 137, 251, 662, 554, 557
408148905, -528, 8641, 12359, 6381, 1723, 2295, -1581, 291, -516, 530, 239, 138, 113, 137, 251, 662, 554, 557
408165169, -522, 8740, 12245, 6466, 1844, 2569, -1460, -110, -288, 828, 239, 138, 113, 137, 251, 662, 554, 557
408166015, -548, 7287, 13204, 6378, 1547, 2363, -1201, 343, -371, 433, 239, 138, 113, 137, 251, 662, 554, 557
408166783, -548, 7287, 13204, 6378, 1547, 2363, -1201, 343, -371, 433, 47, 80, 42, 57, 103, 84, 95, 34
408167606, -548, 7287, 13204, 6378, 1547, 2363, -1201, 343, -371, 433, 47, 80, 42, 57, 103, 84, 95, 34
408172735, -558, 7368, 13152, 6390, 1580, 2392, -1243, 356, -418, 528, 47, 80, 42, 57, 103, 84, 95, 34
408173601, -558, 7368, 13152, 6390, 1580, 2392, -1243, 356, -418, 528, 49, 84, 42, 63, 139, 88, 113, 36
408174379, -558, 7368, 13152, 6390, 1580, 2392, -1243, 356, -418, 528, 49, 84, 42, 63, 139, 88, 113, 36
408175228, -558, 7368, 13152, 6390, 1580, 2392, -1243, 356, -418, 528, 49, 84, 42, 63, 139, 88, 113, 36
408180096, -558, 7368, 13152, 6390, 1580, 2392, -1243, 356, -418, 528, 49, 84, 42, 63, 139, 88, 113, 36
408180911, -558, 7368, 13152, 6390, 1580, 2392, -1243, 356, -418, 528, 49, 84, 42, 63, 139, 88, 113, 36
408181709, -558, 7368, 13152, 6390, 1580, 2392, -1243, 356, -418, 528, 49, 84, 42, 63, 139, 88, 113, 36
408182599, -558, 7368, 13152, 6390, 1580, 2392, -1243, 356, -418, 528, 49, 84, 42, 63, 139, 88, 113, 36
408187631, -558, 7368, 13152, 6390, 1580, 2392, -1243, 356, -418, 528, 49, 84, 42, 63, 139, 88, 113, 36
408188588, -564, 7466, 13091, 6401, 1594, 2408, -1281, 320, -469, 632, 49, 84, 42, 63, 139, 88, 113, 36
408189339, -564, 7466, 13091, 6401, 1594, 2408, -1281, 320, -469, 632, 48, 81, 42, 67, 183, 95, 119, 41
408190199, -564, 7466, 13091, 6401, 1594, 2408, -1281, 320, -469, 632, 48, 81, 42, 67, 183, 95, 119, 41
408195159, -564, 7466, 13091, 6401, 1594, 2408, -1281, 320, -469, 632, 48, 81, 42, 67, 183, 95, 119, 41
408196000, -564, 7466, 13091, 6401, 1594, 2408, -1281, 320, -469, 632, 48, 81, 42, 67, 183, 95, 119, 41
408196784, -564, 7466, 13091, 6401, 1594, 2408, -1281, 320, -469, 632, 48, 81, 42, 67, 183, 95, 119, 41
408197635, -564, 7466, 13091, 6401, 1594, 2408, -1281, 320, -469, 632, 48, 81, 42, 67, 183, 95, 119, 41
408202555, -564, 7466, 13091, 6401, 1594, 2408, -1281, 320, -469, 632, 48, 81, 42, 67, 183, 95, 119, 41
408203375, -564, 7466, 13091, 6401, 1594, 2408, -1281, 320, -469, 632, 48, 81, 42, 67, 183, 95, 119, 41
408204210, -564, 7466, 13091, 6401, 1594, 2408, -1281, 320, -469, 632, 48, 81, 42, 67, 183, 95, 119, 41
408204983, -564, 7466, 13091, 6401, 1594, 2408, -1281, 320, -469, 632, 48, 81, 42, 67, 183, 95, 119, 41
408210144, -564, 7466, 13091, 6401, 1594, 2408, -1281, 320, -469, 632, 48, 81, 42, 67, 183, 95, 119, 41
408211060, -567, 7574, 13023, 6412, 1621, 2357, -1258, 286, -509, 676, 48, 81, 42, 67, 183, 95, 119, 41
408211881, -567, 7574, 13023, 6412, 1621, 2357, -1258, 286, -509, 676, 48, 83, 46, 75, 254, 113, 123, 42
408212683, -567, 7574, 13023, 6412, 1621, 2357, -1258, 286, -509, 676, 48, 83, 46, 75, 254, 113, 123, 42
408217706, -567, 7574, 13023, 6412, 1621, 2357, -1258, 286, -509, 676, 48, 83, 46, 75, 254, 113, 123, 42
408218559, -567, 7574, 13023, 6412, 1621, 2357, -1258, 286, -509, 676, 48, 83, 46, 75, 254, 113, 123, 42
408219343, -567, 7574, 13023, 6412, 1621, 2357, -1258, 286, -509, 676, 48, 83, 46, 75, 254, 113, 123, 42
408220155, -567, 7574, 13023, 6412, 1621, 2357, -1258, 286, -509, 676, 48, 83, 46, 75, 254, 113, 123, 42
408225124, -567, 7574, 13023, 6412, 1621, 2357, -1258, 286, -509, 676, 48, 83, 46, 75, 254, 113, 123, 42
408225908, -567, 7574, 13023, 6412, 1621, 2357, -1258, 286, -509, 676, 48, 83, 46, 75, 254, 113, 123, 42
408226735, -567, 7574, 13023, 6412, 1621, 2357, -1258, 286, -509, 676, 48, 83, 46, 75, 254, 113, 123, 42
408227557, -567, 7574, 13023, 6412, 1621, 2357, -1258, 286, -509, 676, 48, 83, 46, 75, 254, 113, 123, 42
408232624, -567, 7574, 13023, 6412, 1621, 2357, -1258, 286, -509, 676, 48, 83, 46, 75, 254, 113, 123, 42
408233549, -577, 7687, 12958, 6409, 1652, 2276, -1242, 344, -540, 689, 48, 83, 46, 75, 254, 113, 123, 42
408234315, -577, 7687, 12958, 6409, 1652, 2276, -1242, 344, -540, 689, 49, 84, 49, 96, 275, 112, 122, 43
408235133, -577, 7687, 12958, 6409, 1652, 2276, -1242, 344, -540, 689, 49, 84, 49, 96, 275, 112, 122, 43
408240160, -577, 7687, 12958, 6409, 1652, 2276, -1242, 344, -540, 689, 49, 84, 49, 96, 275, 112, 122, 43
408241023, -577, 7687, 12958, 6409, 1652, 2276, -1242, 344, -540, 689, 49, 84, 49, 96, 275, 112, 122, 43
408241822, -577, 7687, 12958, 6409, 1652, 2276, -1242, 344, -540, 689, 49, 84, 49, 96, 275, 112, 122, 43
408242620, -577, 7687, 12958, 6409, 1652, 2276, -1242, 344, -540, 689, 49, 84, 49, 96, 275, 112, 122, 43
408247589, -577, 7687, 12958, 6409, 1652, 2276, -1242, 344, -540, 689, 49, 84, 49, 96, 275, 112, 122, 43
408248386, -577, 7687, 12958, 6409, 1652, 2276, -1242, 344, -540, 689, 49, 84, 49, 96, 275, 112, 122, 43
408249212, -577, 7687, 12958, 6409, 1652, 2276, -1242, 344, -540, 689, 49, 84, 49, 96, 275, 112, 122, 43
408250022, -577, 7687, 12958, 6409, 1652, 2276, -1242, 344, -540, 689, 49, 84, 49, 96, 275, 112, 122, 43
408255125, -577, 7687, 12958, 6409, 1652, 2276, -1242, 344, -540, 689, 49, 84, 49, 96, 275, 112, 122, 43
408256033, -591, 7800, 12902, 6384, 1686, 2341, -1264, 505, -589, 698, 49, 84, 49, 96, 275, 112, 122, 43
408256825, -591, 7800, 12902, 6384, 1686, 2341, -1264, 505, -589, 698, 50, 71, 51, 97, 300, 107, 105, 38
408257634, -591, 7800, 12902, 6384, 1686, 2341, -1264, 505, -589, 698, 50, 71, 51, 97, 300, 107, 105, 38
408262670, -591, 7800, 12902, 6384, 1686, 2341, -1264, 505, -589, 698, 50, 71, 51, 97, 300, 107, 105, 38
408263482, -591, 7800, 12902, 6384, 1686, 2341, -1264, 505, -589, 698, 50, 71, 51, 97, 300, 107, 105, 38
408264306, -591, 7800, 12902, 6384, 1686, 2341, -1264, 505, -589, 698, 50, 71, 51, 97, 300, 107, 105, 38
408265083, -591, 7800, 12902, 6384, 1686, 2341, -1264, 505, -589, 698, 50, 71, 51, 97, 300, 107, 105, 38
408270138, -591, 7800, 12902, 6384, 1686, 2341, -1264, 505, -589, 698, 50, 71, 51, 97, 300, 107, 105, 38
408270911, -591, 7800, 12902, 6384, 1686, 2341, -1264, 505, -589, 698, 50, 71, 51, 97, 300, 107, 105, 38
408271736, -591, 7800, 12902, 6384, 1686, 2341, -1264, 505, -589, 698, 50, 71, 51, 97, 300, 107, 105, 38
408272560, -591, 7800, 12902, 6384, 1686, 2341, -1264, 505, -589, 698, 50, 71, 51, 97, 300, 107, 105, 38
408277635, -591, 7800, 12902, 6384, 1686, 2341, -1264, 505, -589, 698, 50, 71, 51, 97, 300, 107, 105, 38
408278561, -611, 7912, 12852, 6346, 1726, 2276, -1301, 557, -600, 681, 50, 71, 51, 97, 300, 107, 105, 38
408279406, -611, 7912, 12852, 6346, 1726, 2276, -1301, 557, -600, 681, 55, 68, 60, 106, 312, 144, 86, 41
408280183, -611, 7912, 12852, 6346, 1726, 2276, -1301, 557, -600, 681, 55, 68, 60, 106, 312, 144, 86, 41
408285211, -611, 7912, 12852, 6346, 1726, 2276, -1301, 557, -600, 681, 55, 68, 60, 106, 312, 144, 86, 41
408286008, -611, 7912, 12852, 6346, 1726, 2276, -1301, 557, -600, 681, 55, 68, 60, 106, 312, 144, 86, 41
408286834, -611, 7912, 12852, 6346, 1726, 2276, -1301, 557, -600, 681, 55, 68, 60, 106, 312, 144, 86, 41
408287623, -611, 7912, 12852, 6346, 1726, 2276, -1301, 557, -600, 681, 55, 68, 60, 106, 312, 144, 86, 41
408292599, -611, 7912, 12852, 6346, 1726, 2276, -1301, 557, -600, 681, 55, 68, 60, 106, 312, 144, 86, 41
408293386, -611, 7912, 12852, 6346, 1726, 2276, -1301, 557, -600, 681, 55, 68, 60, 106, 312, 144, 86, 41
408294235, -611, 7912, 12852, 6346, 1726, 2276, -1301, 557, -600, 681, 55, 68, 60, 106, 312, 144, 86, 41
408295033, -611, 7912, 12852, 6346, 1726, 2276, -1301, 557, -600, 681, 74, 89, 71, 109, 297, 170, 101, 72
408300124, -611, 7912, 12852, 6346, 1726, 2276, -1301, 557, -600, 681, 74, 89, 71, 109, 297, 170, 101, 72
408301036, -660, 8116, 12769, 6249, 1771, 2363, -1426, 668, -567, 656, 74, 89, 71, 109, 297, 170, 101, 72
408301873, -660, 8116, 12769, 6249, 1771, 2363, -1426, 668, -567, 656, 88, 96, 75, 109, 254, 235, 125, 107
408302680, -660, 8116, 12769, 6249, 1771, 2363, -1426, 668, -567, 656, 88, 96, 75, 109, 254, 235, 125, 107
408307685, -660, 8116, 12769, 6249, 1771, 2363, -1426, 668, -567, 656, 88, 96, 75, 109, 254, 235, 125, 107
408308558, -660, 8116, 12769, 6249, 1771, 2363, -1426, 668, -567, 656, 88, 96, 75, 109, 254, 235, 125, 107
408309250, -660, 8116, 12769, 6249, 1771, 2363, -1426, 668, -567, 656, 88, 96, 75, 109, 254, 235, 125, 107
408310108, -660, 8116, 12769, 6249, 1771, 2363, -1426, 668, -567, 656, 88, 96, 75, 109, 254, 235, 125, 107
408315085, -660, 8116, 12769, 6249, 1771, 2363, -1426, 668, -567, 656, 88, 96, 75, 109, 254, 235, 125, 107
408315857, -660, 8116, 12769, 6249, 1771, 2363, -1426, 668, -567, 656, 88, 96, 75, 109, 254, 235, 125, 107
408316723, -660, 8116, 12769, 6249, 1771, 2363, -1426, 668, -567, 656, 88, 96, 75, 109, 254, 235, 125, 107
408317558, -660, 8116, 12769, 6249, 1771, 2363, -1426, 668, -567, 656, 88, 96, 75, 109, 254, 235, 125, 107
408322599, -660, 8116, 12769, 6249, 1771, 2363, -1426, 668, -567, 656, 88, 96, 75, 109, 254, 235, 125, 107
408323572, -683, 8214, 12717, 6225, 1783, 2447, -1470, 555, -496, 692, 88, 96, 75, 109, 254, 235, 125, 107
408324343, -683, 8214, 12717, 6225, 1783, 2447, -1470, 555, -496, 692, 92, 96, 75, 97, 244, 248, 133, 115
408325132, -683, 8214, 12717, 6225, 1783, 2447, -1470, 555, -496, 692, 92, 96, 75, 97, 244, 248, 133, 115
408330161, -683, 8214, 12717, 6225, 1783, 2447, -1470, 555, -496, 692, 92, 96, 75, 97, 244, 248, 133, 115
408330958, -683, 8214, 12717, 6225, 1783, 2447, -1470, 555, -496, 692, 92, 96, 75, 97, 244, 248, 133, 115
408331766, -683, 8214, 12717, 6225, 1783, 2447, -1470, 555, -496, 692, 92, 96, 75, 97, 244, 248, 133, 115
408332592, -683, 8214, 12717, 6225, 1783, 2447, -1470, 555, -496, 692, 92, 96, 75, 97, 244, 248, 133, 115
408337583, -683, 8214, 12717, 6225, 1783, 2447, -1470, 555, -496, 692, 92, 96, 75, 97, 244, 248, 133, 115
408338453, -683, 8214, 12717, 6225, 1783, 2447, -1470, 555, -496, 692, 92, 96, 75, 97, 244, 248, 133, 115
408339214, -683, 8214, 12717, 6225, 1783, 2447, -1470, 555, -496, 692, 92, 96, 75, 97, 244, 248, 133, 115
408340075, -683, 8214, 12717, 6225, 1783, 2447, -1470, 555, -496, 692, 92, 96, 75, 97, 244, 248, 133, 115
408345113, -683, 8214, 12717, 6225, 1783, 2447, -1470, 555, -496, 692, 92, 96, 75, 97, 244, 248, 133, 115
408346029, -686, 8308, 12645, 6246, 1785, 2541, -1473, 294, -443, 707, 92, 96, 75, 97, 244, 248, 133, 115
408346848, -686, 8308, 12645, 6246, 1785, 2541, -1473, 294, -443, 707, 96, 94, 75, 96, 238, 257, 155, 134
408347633, -686, 8308, 12645, 6246, 1785, 2541, -1473, 294, -443, 707, 96, 94, 75, 96, 238, 257, 155, 134
408352675, -686, 8308, 12645, 6246, 1785, 2541, -1473, 294, -443, 707, 96, 94, 75, 96, 238, 257, 155, 134
408353555, -686, 8308, 12645, 6246, 1785, 2541, -1473, 294, -443, 707, 96, 94, 75, 96, 238, 257, 155, 134
408354234, -686, 8308, 12645, 6246, 1785, 2541, -1473, 294, -443, 707, 96, 94, 75, 96, 238, 257, 155, 134
408355148, -686, 8308, 12645, 6246, 1785, 2541, -1473, 294, -443, 707, 96, 94, 75, 96, 238, 257, 155, 134
408360080, -686, 8308, 12645, 6246, 1785, 2541, -1473, 294, -443, 707, 96, 94, 75, 96, 238, 257, 155, 134
408360924, -686, 8308, 12645, 6246, 1785, 2541, -1473, 294, -443, 707, 96, 94, 75, 96, 238, 257, 155, 134
408361711, -686, 8308, 12645, 6246, 1785, 2541, -1473, 294, -443, 707, 96, 94, 75, 96, 238, 257, 155, 134
408362567, -686, 8308, 12645, 6246, 1785, 2541, -1473, 294, -443, 707, 96, 94, 75, 96, 238, 257, 155, 134
408367600, -686, 8308, 12645, 6246, 1785, 2541, -1473, 294, -443, 707, 96, 94, 75, 96, 238, 257, 155, 134
408368560, -652, 8391, 12557, 6316, 1813, 2478, -1433, -72, -443, 594, 96, 94, 75, 96, 238, 257, 155, 134
408369354, -652, 8391, 12557, 6316, 1813, 2478, -1433, -72, -443, 594, 147, 100, 89, 98, 219, 332, 279, 275
408370141, -652, 8391, 12557, 6316, 1813, 2478, -1433, -72, -443, 594, 147, 100, 89, 98, 219, 332, 279, 275
408375160, -652, 8391, 12557, 6316, 1813, 2478, -1433, -72, -443, 594, 147, 100, 89, 98, 219, 332, 279, 275
408375987, -652, 8391, 12557, 6316, 1813, 2478, -1433, -72, -443, 594, 147, 100, 89, 98, 219, 332, 279, 275
408376827, -652, 8391, 12557, 6316, 1813, 2478, -1433, -72, -443, 594, 147, 100, 89, 98, 219, 332, 279, 275
408377647, -652, 8391, 12557, 6316, 1813, 2478, -1433, -72, -443, 594, 147, 100, 89, 98, 219, 332, 279, 275
408382564, -652, 8391, 12557, 6316, 1813, 2478, -1433, -72, -443, 594, 147, 100, 89, 98, 219, 332, 279, 275
408383370, -652, 8391, 12557, 6316, 1813, 2478, -1433, -72, -443, 594, 147, 100, 89, 98, 219, 332, 279, 275
408384256, -652, 8391, 12557, 6316, 1813, 2478, -1433, -72, -443, 594, 147, 100, 89, 98, 219, 332, 279, 275
408385021, -652, 8391, 12557, 6316, 1813, 2478, -1433, -72, -443, 594, 147, 100, 89, 98, 219, 332, 279, 275
408390108, -652, 8391, 12557, 6316, 1813, 2478, -1433, -72, -443, 594, 147, 100, 89, 98, 219, 332, 279, 275
408391087, -614, 8470, 12473, 6381, 1864, 2382, -1392, -98, -491, 519, 147, 100, 89, 98, 219, 332, 279, 275
408391858, -614, 8470, 12473, 6381, 1864, 2382, -1392, -98, -491, 519, 186, 126, 107, 130, 246, 430, 381, 376
408392664, -614, 8470, 12473, 6381, 1864, 2382, -1392, -98, -491, 519, 186, 126, 107, 130, 246, 430, 381, 376
408396799, -614, 8470, 12473, 6381, 1864, 2382, -1392, -98, -491, 519, 186, 126, 107, 130, 246, 430, 381, 376
408397630, -614, 8470, 12473, 6381, 1864, 2382, -1392, -98, -491, 519, 186, 126, 107, 130, 246, 430, 381, 376
408398440, -614, 8470, 12473, 6381, 1864, 2382, -1392, -98, -491, 519, 186, 126, 107, 130, 246, 430, 381, 376
408405084, -614, 8470, 12473, 6381, 1864, 2382, -1392, -98, -491, 519, 186, 126, 107, 130, 246, 430, 381, 376
408405869, -614, 8470, 12473, 6381, 1864, 2382, -1392, -98, -491, 519, 186, 126, 107, 130, 246, 430, 381, 376
408406718, -614, 8470, 12473, 6381, 1864, 2382, -1392, -98, -491, 519, 186, 126, 107, 130, 246, 430, 381, 376
408407558, -614, 8470, 12473, 6381, 1864, 2382, -1392, -98, -491, 519, 186, 126, 107, 130, 246, 430, 381, 376
408412610, -614, 8470, 12473, 6381, 1864, 2382, -1392, -98, -491, 519, 186, 126, 107, 130, 246, 430, 381, 376
408413411, -614, 8470, 12473, 6381, 1864, 2382, -1392, -98, -491, 519, 186, 126, 107, 130, 246, 430, 381, 376
408414342, -539, 8559, 12410, 6393, 1756, 2378, -1205, 125, -834, 461, 186, 126, 107, 130, 246, 430, 381, 376
408415159, -539, 8559, 12410, 6393, 1756, 2378, -1205, 125, -834, 461, 213, 126, 109, 138, 261, 604, 515, 496
408420195, -539, 8559, 12410, 6393, 1756, 2378, -1205, 125, -834, 461, 213, 126, 109, 138, 261, 604, 515, 496
408420979, -539, 8559, 12410, 6393, 1756, 2378, -1205, 125, -834, 461, 213, 126, 109, 138, 261, 604, 515, 496
408421841, -539, 8559, 12410, 6393, 1756, 2378, -1205, 125, -834, 461, 213, 126, 109, 138, 261, 604, 515, 496
408422641, -539, 8559, 12410, 6393, 1756, 2378, -1205, 125, -834, 461, 213, 126, 109, 138, 261, 604, 515, 496
408427580, -539, 8559, 12410, 6393, 1756, 2378, -1205, 125, -834, 461, 213, 126, 109, 138, 261, 604, 515, 496
408428363, -539, 8559, 12410, 6393, 1756, 2378, -1205, 125, -834, 461, 213, 126, 109, 138, 261, 604, 515, 496
408429197, -539, 8559, 12410, 6393, 1756, 2378, -1205, 125, -834, 461, 213, 126, 109, 138, 261, 604, 515, 496
408430009, -539, 8559, 12410, 6393, 1756, 2378, -1205, 125, -834, 461, 213, 126, 109, 138, 261, 604, 515, 496
408435099, -539, 8559, 12410, 6393, 1756, 2378, -1205, 125, -834, 461, 213, 126, 109, 138, 261, 604, 515, 496
408436011, -528, 8641, 12359, 6381, 1723, 2295, -1581, 291, -516, 530, 213, 126, 109, 138, 261, 604, 515, 496
408436838, -528, 8641, 12359, 6381, 1723, 2295, -1581, 291, -516, 530, 239, 138, 113, 137, 251, 662, 554, 557
408437655, -528, 8641, 12359, 6381, 1723, 2295, -1581, 291, -516, 530, 213, 126, 109, 138, 261, 604, 515, 496
408442636, -528, 8641, 12359, 6381, 1723, 2295, -1581, 291, -516, 530, 239, 138, 113, 137, 251, 662, 554, 557
408443463, -528, 8641, 12359, 6381, 1723, 2295, -1581, 291, -516, 530, 239, 138, 113, 137, 251, 662, 554, 557
408444282, -528, 8641, 12359, 6381, 1723, 2295, -1581, 291, -516, 530, 239, 138, 113, 137, 251, 662, 554, 557
408445083, -528, 8641, 12359, 6381, 1723, 2295, -1581, 291, -516, 530, 239, 138, 113, 137, 251, 662, 554, 557
408450091, -528, 8641, 12359, 6381, 1723, 2295, -1581, 291, -516, 530, 239, 138, 113, 137, 251, 662, 554, 557
408450951, -528, 8641, 12359, 6381, 1723, 2295, -1581, 291, -516, 530, 239, 138, 113, 137, 251, 662, 554, 557
408451756, -528, 8641, 12359, 6381, 1723, 2295, -1581, 291, -516, 530, 239, 138, 113, 137, 251, 662, 554, 557
408452580, -528, 8641, 12359, 6381, 1723, 2295, -1581, 291, -516, 530, 239, 138, 113, 137, 251, 662, 554, 557
408457609, -528, 8641, 12359, 6381, 1723, 2295, -1581, 291, -516, 530, 239, 138, 113, 137, 251, 662, 554, 557
408458587, -522, 8740, 12245, 6466, 1844, 2569, -1460, -110, -288, 828, 239, 138, 113, 137, 251, 662, 554, 557
408459362, -522, 8740, 12245, 6466, 1844, 2569, -1460, -110, -288, 828, 248, 140, 115, 135, 241, 750, 571, 585
408460223, -522, 8740, 12245, 6466, 1844, 2569, -1460, -110, -288, 828, 248, 140, 115, 135, 241, 750, 571, 585
408465205, -522, 8740, 12245, 6466, 1844, 2569, -1460, -110, -288, 828, 248, 140, 115, 135, 241, 750, 571, 585
408465994, -522, 8740, 12245, 6466, 1844, 2569, -1460, -110, -288, 828, 248, 140, 115, 135, 241, 750, 571, 585
408466810, -522, 8740, 12245, 6466, 1844, 2569, -1460, -110, -288, 828, 248, 140, 115, 135, 241, 750, 571, 585
408467673, -522, 8740, 12245, 6466, 1844, 2569, -1460, -110, -288, 828, 248, 140, 115, 135, 241, 750, 571, 585
408472604, -522, 8740, 12245, 6466, 1844, 2569, -1460, -110, -288, 828, 248, 140, 115, 135, 241, 750, 571, 585
408473413, -522, 8740, 12245, 6466, 1844, 2569, -1460, -110, -288, 828, 248, 140, 115, 135, 241, 750, 571, 585
408474209, -522, 8740, 12245, 6466, 1844, 2569, -1460, -110, -288, 828, 248, 140, 115, 135, 241, 750, 571, 585
408475048, -522, 8740, 12245, 6466, 1844, 2569, -1460, -110, -288, 828, 248, 140, 115, 135, 241, 750, 571, 585
408480097, -522, 8740, 12245, 6466, 1844, 2569, -1460, -110, -288, 828, 248, 140, 115, 135, 241, 750, 571, 585
408481039, -529, 8851, 12106, 6575, 2096, 2325, -1206, -259, -330, 852, 248, 140, 115, 135, 241, 750, 571, 585
408481834, -529, 8851, 12106, 6575, 2096, 2325, -1206, -259, -330, 852, 223, 134, 144, 162, 249, 757, 550, 552
408482698, -529, 8851, 12106, 6575, 2096, 2325, -1206, -259, -330, 852, 223, 134, 144, 162, 249, 757, 550, 552
408487654, -529, 8851, 12106, 6575, 2096, 2325, -1206, -259, -330, 852, 223, 134, 144, 162, 249, 757, 550, 552
408488505, -529, 8851, 12106, 6575, 2096, 2325, -1206, -259, -330, 852, 223, 134, 144, 162, 249, 757, 550, 552
408489287, -529, 8851, 12106, 6575, 2096, 2325, -1206, -259, -330, 852, 223, 134, 144, 162, 249, 757, 550, 552
408490099, -529, 8851, 12106, 6575, 2096, 2325, -1206, -259, -330, 852, 223, 134, 144, 162, 249, 757, 550, 552
408493733, -529, 8851, 12106, 6575, 2096, 2325, -1206, -259, -330, 852, 223, 134, 144, 162, 249, 757, 550, 552
408494583, -529, 8851, 12106, 6575, 2096, 2325, -1206, -259, -330, 852, 223, 134, 144, 162, 249, 757, 550, 552
408495383, -529, 8851, 12106, 6575, 2096, 2325, -1206, -259, -330, 852, 223, 134, 144, 162, 249, 757, 550, 552
408508142, 1195, 8300, 7626, 11829, 1632, 913, -365, -1230, 859, -17, 223, 134, 144, 162, 249, 757, 550, 552
408508951, 1195, 8300, 7626, 11829, 1632, 913, -365, -1230, 859, -17, 664, 280, 206, 234, 611, 839, 332, 289
408514934, 1195, 8300, 7626, 11829, 1632, 913, -365, -1230, 859, -17, 664, 280, 206, 234, 611, 839, 332, 289
408522573, 1157, 8237, 7593, 11898, 1631, 1071, -393, -434, 734, -161, 664, 280, 206, 234, 611, 839, 332, 289
408530583, 1157, 8237, 7593, 11898, 1631, 1071, -393, -434, 734, -161, 658, 268, 195, 226, 603, 747, 323, 254
408531439, 1157, 8237, 7593, 11898, 1631, 1071, -393, -434, 734, -161, 658, 268, 195, 226, 603, 747, 323, 254
408537561, 1141, 8205, 7582, 11929, 1659, 1441, -405, -313, 464, -127, 658, 268, 195, 226, 603, 747, 323, 254
408553158, 1141, 8205, 7582, 11929, 1659, 1441, -405, -313, 464, -127, 657, 252, 184, 199, 527, 738, 311, 238
408553922, 1141, 8205, 7582, 11929, 1659, 1441, -405, -313, 464, -127, 657, 252, 184, 199, 527, 738, 311, 238
408560059, 1135, 8207, 7530, 11961, 1771, 1286, -334, -471, 271, -66, 657, 252, 184, 199, 527, 738, 311, 238
408575566, 1135, 8207, 7530, 11961, 1771, 1286, -334, -471, 271, -66, 638, 241, 185, 186, 477, 710, 308, 234
408576419, 1135, 8207, 7530, 11961, 1771, 1286, -334, -471, 271, -66, 638, 241, 185, 186, 477, 710, 308, 234
408582581, 1119, 8242, 7481, 11969, 1881, 1129, -276, -320, 82, -49, 638, 241, 185, 186, 477, 710, 308, 234
408590584, 1119, 8242, 7481, 11969, 1881, 1129, -276, -320, 82, -49, 534, 167, 162, 164, 331, 655, 266, 202
408591416, 1119, 8242, 7481, 11969, 1881, 1129, -276, -320, 82, -49, 534, 167, 162, 164, 331, 655, 266, 202
408597571, 1090, 8289, 7474, 11944, 1884, 1211, -213, -1, -36, -60, 534, 167, 162, 164, 331, 655, 266, 202
408613067, 1090, 8289, 7474, 11944, 1884, 1211, -213, -1, -36, -60, 440, 148, 124, 132, 301, 430, 215, 173
408613884, 1090, 8289, 7474, 11944, 1884, 1211, -213, -1, -36, -60, 440, 148, 124, 132, 301, 430, 215, 173
408620076, 1053, 8347, 7491, 11895, 1853, 1196, -276, 170, -110, -65, 440, 148, 124, 132, 301, 430, 215, 173
408635558, 1053, 8347, 7491, 11895, 1853, 1196, -276, 170, -110, -65, 427, 141, 117, 112, 300, 413, 192, 165
408636428, 1053, 8347, 7491, 11895, 1853, 1196, -276, 170, -110, -65, 427, 141, 117, 112, 300, 413, 192, 165
408642564, 1008, 8413, 7524, 11832, 1835, 1174, -269, 309, -165, -54, 427, 141, 117, 112, 300, 413, 192, 165
408650572, 1008, 8413, 7524, 11832, 1835, 1174, -269, 309, -165, -54, 409, 138, 134, 141, 328, 382, 184, 158
408651381, 1008, 8413, 7524, 11832, 1835, 1174, -269, 309, -165, -54, 409, 138, 134, 141, 328, 382, 184, 158
408657590, 954, 8481, 7569, 11759, 1916, 1300, -253, 414, -195, -33, 409, 138, 134, 141, 328, 382, 184, 158
408673109, 954, 8481, 7569, 11759, 1916, 1300, -253, 414, -195, -33, 282, 113, 126, 143, 346, 307, 168, 133
408673909, 954, 8481, 7569, 11759, 1916, 1300, -253, 414, -195, -33, 282, 113, 126, 143, 346, 307, 168, 133
408680056, 904, 8543, 7610, 11691, 1978, 1357, -276, 381, -170, -46, 282, 113, 126, 143, 346, 307, 168, 133
408695606, 904, 8543, 7610, 11691, 1978, 1357, -276, 381, -170, -46, 290, 123, 124, 141, 340, 294, 179, 127
408696364, 904, 8543, 7610, 11691, 1978, 1357, -276, 381, -170, -46, 290, 123, 124, 141, 340, 294, 179, 127
408702575, 858, 8593, 7644, 11636, 2040, 1383, -263, 310, -112, -83, 290, 123, 124, 141, 340, 294, 179, 127
408710558, 858, 8593, 7644, 11636, 2040, 1383, -263, 310, -112, -83, 289, 110, 118, 143, 413, 289, 167, 118
408711411, 858, 8593, 7644, 11636, 2040, 1383, -263, 310, -112, -83, 289, 110, 118, 143, 413, 289, 167, 118
408717561, 821, 8633, 7671, 11591, 2040, 1419, -271, 236, -72, -98, 289, 110, 118, 143, 413, 289, 167, 118
408733072, 821, 8633, 7671, 11591, 2040, 1419, -271, 236, -72, -98, 266, 108, 120, 145, 415, 254, 163, 132
408733842, 821, 8633, 7671, 11591, 2040, 1419, -271, 236, -72, -98, 266, 108, 120, 145, 415, 254, 163, 132
408739989, 793, 8664, 7688, 11559, 2008, 1413, -276, 134, -34, -118, 266, 108, 120, 145, 415, 254, 163, 132
408755553, 793, 8664, 7688, 11559, 2008, 1413, -276, 134, -34, -118, 252, 109, 98, 109, 388, 240, 149, 120
408756358, 793, 8664, 7688, 11559, 2008, 1413, -276, 134, -34, -118, 252, 109, 98, 109, 388, 240, 149, 120
408762553, 774, 8687, 7697, 11538, 1980, 1404, -277, 45, 2, -129, 252, 109, 98, 109, 388, 240, 149, 120
408778763, 774, 8687, 7697, 11538, 1980, 1404, -277, 45, 2, -129, 247, 107, 91, 103, 357, 235, 128, 117
408779569, 774, 8687, 7697, 11538, 1980, 1404, -277, 45, 2, -129, 247, 107, 91, 103, 357, 235, 128, 117
408780563, 757, 8706, 7695, 11525, 1936, 1359, -274, -22, 31, -112, 247, 107, 91, 103, 357, 235, 128, 117
408793084, 757, 8706, 7695, 11525, 1936, 1359, -274, -22, 31, -112, 221, 85, 80, 119, 385, 227, 108, 116
408793948, 757, 8706, 7695, 11525, 1936, 1359, -274, -22, 31, -112, 221, 85, 80, 119, 385, 227, 108, 116
408800061, 740, 8723, 7692, 11515, 1894, 1318, -295, -39, 56, -107, 221, 85, 80, 119, 385, 227, 108, 116
408815603, 740, 8723, 7692, 11515, 1894, 1318, -295, -39, 56, -107, 233, 88, 80, 118, 311, 199, 125, 149
408816391, 740, 8723, 7692, 11515, 1894, 1318, -295, -39, 56, -107, 233, 88, 80, 118, 311, 199, 125, 149
408822590, 718, 8742, 7692, 11503, 1842, 1309, -314, -13, 56, -74, 233, 88, 80, 118, 311, 199, 125, 149
