Timestamp, Orientation x, Orientation y, Orientation z, Orientation w, Acceleration x, Acceleration y, Acceleration z, Rotation x, Rotation y, Rotation z, EMG 0, EMG 1, EMG 2, EMG 3, EMG 4, EMG 5, EMG 6, EMG 7
350536480, -7637, 6294, 9320, 9144, 2358, 741, 176, -74, -17, -65, 0, 0, 0, 0, 0, 0, 0, 0
350537271, -7625, 6289, 9321, 9157, 2363, 744, 171, -52, -15, -54, 0, 0, 0, 0, 0, 0, 0, 0
350550725, -7614, 6286, 9323, 9166, 2401, 723, 143, -41, -11, -65, 0, 0, 0, 0, 0, 0, 0, 0
350558286, -7606, 6282, 9325, 9173, 2422, 687, 140, -19, 0, -75, 0, 0, 0, 0, 0, 0, 0, 0
350580773, -7599, 6279, 9330, 9176, 2447, 666, 110, -8, 0, -77, 0, 0, 0, 0, 0, 0, 0, 0
350612164, -7595, 6274, 9337, 9176, 2467, 675, 102, 16, 9, -77, 0, 0, 0, 0, 0, 0, 0, 0
350612924, -7595, 6274, 9337, 9176, 2467, 675, 102, 16, 9, -77, 159, 82, 97, 74, 64, 111, 46, 77
350613738, -7595, 6274, 9337, 9176, 2467, 675, 102, 16, 9, -77, 159, 82, 97, 74, 64, 111, 46, 77
350620356, -7591, 6270, 9345, 9173, 2478, 663, 83, 35, 8, -74, 159, 82, 97, 74, 64, 111, 46, 77
350621272, -7591, 6270, 9345, 9173, 2478, 663, 83, 35, 8, -74, 159, 85, 103, 76, 64, 104, 52, 58
350621965, -7591, 6270, 9345, 9173, 2478, 663, 83, 35, 8, -74, 159, 85, 103, 76, 64, 104, 52, 58
350622815, -7591, 6270, 9345, 9173, 2478, 663, 83, 35, 8, -74, 159, 85, 103, 76, 64, 104, 52, 58
350634578, -7591, 6270, 9345, 9173, 2478, 663, 83, 35, 8, -74, 159, 85, 103, 76, 64, 104, 52, 58
350635370, -7591, 6270, 9345, 9173, 2478, 663, 83, 35, 8, -74, 159, 85, 103, 76, 64, 104, 52, 58
350636166, -7591, 6270, 9345, 9173, 2478, 663, 83, 35, 8, -74, 159, 85, 103, 76, 64, 104, 52, 58
350643497, -7587, 6265, 9353, 9173, 2483, 679, 111, 23, -3, -76, 159, 85, 103, 76, 64, 104, 52, 58
350644291, -7587, 6265, 9353, 9173, 2483, 679, 111, 23, -3, -76, 141, 88, 108, 69, 64, 103, 53, 66
350645115, -7587, 6265, 9353, 9173, 2483, 679, 111, 23, -3, -76, 141, 88, 108, 69, 64, 103, 53, 66
350645949, -7587, 6265, 9353, 9173, 2483, 679, 111, 23, -3, -76, 141, 88, 108, 69, 64, 103, 53, 66
350650873, -7587, 6265, 9353, 9173, 2483, 679, 111, 23, -3, -76, 141, 88, 108, 69, 64, 103, 53, 66
350651696, -7587, 6265, 9353, 9173, 2483, 679, 111, 23, -3, -76, 141, 88, 108, 69, 64, 103, 53, 66
350652516, -7587, 6265, 9353, 9173, 2483, 679, 111, 23, -3, -76, 141, 88, 108, 69, 64, 103, 53, 66
350653317, -7587, 6265, 9353, 9173, 2483, 679, 111, 23, -3, -76, 141, 88, 108, 69, 64, 103, 53, 66
350655688, -7587, 6265, 9353, 9173, 2483, 679, 111, 23, -3, -76, 141, 88, 108, 69, 64, 103, 53, 66
350666035, -7582, 6259, 9357, 9176, 2494, 699, 109, 4, 15, -76, 141, 88, 108, 69, 64, 103, 53, 66
350666817, -7582, 6259, 9357, 9176, 2494, 699, 109, 4, 15, -76, 159, 103, 108, 76, 63, 101, 52, 69
350667638, -7582, 6259, 9357, 9176, 2494, 699, 109, 4, 15, -76, 159, 103, 108, 76, 63, 101, 52, 69
350668462, -7582, 6259, 9357, 9176, 2494, 699, 109, 4, 15, -76, 159, 103, 108, 76, 63, 101, 52, 69
350680892, -7582, 6259, 9357, 9176, 2494, 699, 109, 4, 15, -76, 159, 103, 108, 76, 63, 101, 52, 69
350681689, -7582, 6259, 9357, 9176, 2494, 699, 109, 4, 15, -76, 159, 103, 108, 76, 63, 101, 52, 69
350682522, -7582, 6259, 9357, 9176, 2494, 699, 109, 4, 15, -76, 159, 103, 108, 76, 63, 101, 52, 69
350683316, -7582, 6259, 9357, 9176, 2494, 699, 109, 4, 15, -76, 159, 103, 108, 76, 63, 101, 52, 69
350688388, -7582, 6259, 9357, 9176, 2494, 699, 109, 4, 15, -76, 159, 103, 108, 76, 63, 101, 52, 69
350689339, -7575, 6253, 9360, 9183, 2465, 702, 125, -20, 16, -88, 159, 103, 108, 76, 63, 101, 52, 69
350690142, -7575, 6253, 9360, 9183, 2465, 702, 125, -20, 16, -88, 147, 102, 123, 79, 69, 120, 50, 70
350690967, -7575, 6253, 9360, 9183, 2465, 702, 125, -20, 16, -88, 147, 102, 123, 79, 69, 120, 50, 70
350695968, -7575, 6253, 9360, 9183, 2465, 702, 125, -20, 16, -88, 147, 102, 123, 79, 69, 120, 50, 70
350696790, -7575, 6253, 9360, 9183, 2465, 702, 125, -20, 16, -88, 147, 102, 123, 79, 69, 120, 50, 70
350697587, -7575, 6253, 9360, 9183, 2465, 702, 125, -20, 16, -88, 147, 102, 123, 79, 69, 120, 50, 70
350698412, -7575, 6253, 9360, 9183, 2465, 702, 125, -20, 16, -88, 147, 102, 123, 79, 69, 120, 50, 70
350703432, -7575, 6253, 9360, 9183, 2465, 702, 125, -20, 16, -88, 147, 102, 123, 79, 69, 120, 50, 70
350704172, -7575, 6253, 9360, 9183, 2465, 702, 125, -20, 16, -88, 147, 102, 123, 79, 69, 120, 50, 70
350704988, -7575, 6253, 9360, 9183, 2465, 702, 125, -20, 16, -88, 147, 102, 123, 79, 69, 120, 50, 70
350705812, -7575, 6253, 9360, 9183, 2465, 702, 125, -20, 16, -88, 147, 102, 123, 79, 69, 120, 50, 70
350710862, -7575, 6253, 9360, 9183, 2465, 702, 125, -20, 16, -88, 147, 102, 123, 79, 69, 120, 50, 70
350711819, -7568, 6250, 9359, 9192, 2448, 680, 155, -35, 1, -86, 147, 102, 123, 79, 69, 120, 50, 70
350712619, -7568, 6250, 9359, 9192, 2448, 680, 155, -35, 1, -86, 138, 96, 118, 68, 62, 116, 46, 74
350713447, -7568, 6250, 9359, 9192, 2448, 680, 155, -35, 1, -86, 138, 96, 118, 68, 62, 116, 46, 74
350718442, -7568, 6250, 9359, 9192, 2448, 680, 155, -35, 1, -86, 138, 96, 118, 68, 62, 116, 46, 74
350719263, -7568, 6250, 9359, 9192, 2448, 680, 155, -35, 1, -86, 138, 96, 118, 68, 62, 116, 46, 74
350720065, -7568, 6250, 9359, 9192, 2448, 680, 155, -35, 1, -86, 138, 96, 118, 68, 62, 116, 46, 74
350720886, -7568, 6250, 9359, 9192, 2448, 680, 155, -35, 1, -86, 138, 96, 118, 68, 62, 116, 46, 74
350725840, -7568, 6250, 9359, 9192, 2448, 680, 155, -35, 1, -86, 138, 96, 118, 68, 62, 116, 46, 74
350726638, -7568, 6250, 9359, 9192, 2448, 680, 155, -35, 1, -86, 138, 96, 118, 68, 62, 116, 46, 74
350727461, -7568, 6250, 9359, 9192, 2448, 680, 155, -35, 1, -86, 138, 96, 118, 68, 62, 116, 46, 74
350728287, -7568, 6250, 9359, 9192, 2448, 680, 155, -35, 1, -86, 138, 96, 118, 68, 62, 116, 46, 74
350733426, -7568, 6250, 9359, 9192, 2448, 680, 155, -35, 1, -86, 138, 96, 118, 68, 62, 116, 46, 74
350734341, -7562, 6247, 9358, 9200, 2445, 674, 170, -27, -4, -82, 138, 96, 118, 68, 62, 116, 46, 74
350735142, -7562, 6247, 9358, 9200, 2445, 674, 170, -27, -4, -82, 175, 113, 126, 64, 62, 114, 37, 77
350735961, -7562, 6247, 9358, 9200, 2445, 674, 170, -27, -4, -82, 175, 113, 126, 64, 62, 114, 37, 77
350740987, -7562, 6247, 9358, 9200, 2445, 674, 170, -27, -4, -82, 175, 113, 126, 64, 62, 114, 37, 77
350741795, -7562, 6247, 9358, 9200, 2445, 674, 170, -27, -4, -82, 175, 113, 126, 64, 62, 114, 37, 77
350742617, -7562, 6247, 9358, 9200, 2445, 674, 170, -27, -4, -82, 175, 113, 126, 64, 62, 114, 37, 77
350743425, -7562, 6247, 9358, 9200, 2445, 674, 170, -27, -4, -82, 175, 113, 126, 64, 62, 114, 37, 77
350748371, -7562, 6247, 9358, 9200, 2445, 674, 170, -27, -4, -82, 175, 113, 126, 64, 62, 114, 37, 77
350749274, -7562, 6247, 9358, 9200, 2445, 674, 170, -27, -4, -82, 175, 113, 126, 64, 62, 114, 37, 77
350749949, -7562, 6247, 9358, 9200, 2445, 674, 170, -27, -4, -82, 175, 113, 126, 64, 62, 114, 37, 77
350750816, -7562, 6247, 9358, 9200, 2445, 674, 170, -27, -4, -82, 175, 113, 126, 64, 62, 114, 37, 77
350755889, -7562, 6247, 9358, 9200, 2445, 674, 170, -27, -4, -82, 175, 113, 126, 64, 62, 114, 37, 77
350756824, -7559, 6239, 9364, 9201, 2433, 714, 190, 38, -20, -62, 175, 113, 126, 64, 62, 114, 37, 77
350757649, -7559, 6239, 9364, 9201, 2433, 714, 190, 38, -20, -62, 160, 126, 121, 69, 66, 122, 35, 72
350758451, -7559, 6239, 9364, 9201, 2433, 714, 190, 38, -20, -62, 160, 126, 121, 69, 66, 122, 35, 72
350763467, -7559, 6239, 9364, 9201, 2433, 714, 190, 38, -20, -62, 160, 126, 121, 69, 66, 122, 35, 72
350764264, -7559, 6239, 9364, 9201, 2433, 714, 190, 38, -20, -62, 160, 126, 121, 69, 66, 122, 35, 72
350765090, -7559, 6239, 9364, 9201, 2433, 714, 190, 38, -20, -62, 160, 126, 121, 69, 66, 122, 35, 72
350765889, -7559, 6239, 9364, 9201, 2433, 714, 190, 38, -20, -62, 160, 126, 121, 69, 66, 122, 35, 72
350770837, -7559, 6239, 9364, 9201, 2433, 714, 190, 38, -20, -62, 160, 126, 121, 69, 66, 122, 35, 72
350771668, -7559, 6239, 9364, 9201, 2433, 714, 190, 38, -20, -62, 160, 126, 121, 69, 66, 122, 35, 72
350772497, -7559, 6239, 9364, 9201, 2433, 714, 190, 38, -20, -62, 160, 126, 121, 69, 66, 122, 35, 72
350773291, -7559, 6239, 9364, 9201, 2433, 714, 190, 38, -20, -62, 160, 126, 121, 69, 66, 122, 35, 72
350778362, -7559, 6239, 9364, 9201, 2433, 714, 190, 38, -20, -62, 160, 126, 121, 69, 66, 122, 35, 72
350779290, -7561, 6226, 9369, 9204, 2396, 746, 225, 58, -2, -49, 160, 126, 121, 69, 66, 122, 35, 72
350780117, -7561, 6226, 9369, 9204, 2396, 746, 225, 58, -2, -49, 148, 116, 134, 68, 70, 126, 38, 72
350780912, -7561, 6226, 9369, 9204, 2396, 746, 225, 58, -2, -49, 148, 116, 134, 68, 70, 126, 38, 72
350785946, -7561, 6226, 9369, 9204, 2396, 746, 225, 58, -2, -49, 148, 116, 134, 68, 70, 126, 38, 72
350786740, -7561, 6226, 9369, 9204, 2396, 746, 225, 58, -2, -49, 148, 116, 134, 68, 70, 126, 38, 72
350787571, -7561, 6226, 9369, 9204, 2396, 746, 225, 58, -2, -49, 148, 116, 134, 68, 70, 126, 38, 72
350788391, -7561, 6226, 9369, 9204, 2396, 746, 225, 58, -2, -49, 148, 116, 134, 68, 70, 126, 38, 72
350793318, -7561, 6226, 9369, 9204, 2396, 746, 225, 58, -2, -49, 148, 116, 134, 68, 70, 126, 38, 72
350794143, -7561, 6226, 9369, 9204, 2396, 746, 225, 58, -2, -49, 148, 116, 134, 68, 70, 126, 38, 72
350794962, -7561, 6226, 9369, 9204, 2396, 746, 225, 58, -2, -49, 148, 116, 134, 68, 70, 126, 38, 72
350795762, -7561, 6226, 9369, 9204, 2396, 746, 225, 58, -2, -49, 148, 116, 134, 68, 70, 126, 38, 72
350800891, -7561, 6226, 9369, 9204, 2396, 746, 225, 58, -2, -49, 148, 116, 134, 68, 70, 126, 38, 72
350801846, -7563, 6211, 9372, 9209, 2341, 777, 233, 50, 7, -31, 148, 116, 134, 68, 70, 126, 38, 72
350802649, -7563, 6211, 9372, 9209, 2341, 777, 233, 50, 7, -31, 152, 118, 114, 61, 62, 127, 38, 70
350803466, -7563, 6211, 9372, 9209, 2341, 777, 233, 50, 7, -31, 152, 118, 114, 61, 62, 127, 38, 70
350808462, -7563, 6211, 9372, 9209, 2341, 777, 233, 50, 7, -31, 152, 118, 114, 61, 62, 127, 38, 70
350809293, -7563, 6211, 9372, 9209, 2341, 777, 233, 50, 7, -31, 152, 118, 114, 61, 62, 127, 38, 70
350810090, -7563, 6211, 9372, 9209, 2341, 777, 233, 50, 7, -31, 152, 118, 114, 61, 62, 127, 38, 70
350810912, -7563, 6211, 9372, 9209, 2341, 777, 233, 50, 7, -31, 152, 118, 114, 61, 62, 127, 38, 70
350813644, -7563, 6211, 9372, 9209, 2341, 777, 233, 50, 7, -31, 152, 118, 114, 61, 62, 127, 38, 70
350830948, -7563, 6211, 9372, 9209, 2341, 777, 233, 50, 7, -31, 152, 118, 114, 61, 62, 127, 38, 70
350831735, -7563, 6211, 9372, 9209, 2341, 777, 233, 50, 7, -31, 152, 118, 114, 61, 62, 127, 38, 70
350832549, -7563, 6211, 9372, 9209, 2341, 777, 233, 50, 7, -31, 152, 118, 114, 61, 62, 127, 38, 70
350833342, -7563, 6211, 9372, 9209, 2341, 777, 233, 50, 7, -31, 152, 118, 114, 61, 62, 127, 38, 70
350838473, -7579, 6188, 9384, 9199, 2269, 840, 296, 181, -10, 49, 152, 118, 114, 61, 62, 127, 38, 70
350839292, -7579, 6188, 9384, 9199, 2269, 840, 296, 181, -10, 49, 178, 150, 116, 62, 67, 143, 59, 68
350840121, -7579, 6188, 9384, 9199, 2269, 840, 296, 181, -10, 49, 178, 150, 116, 62, 67, 143, 59, 68
350840947, -7579, 6188, 9384, 9199, 2269, 840, 296, 181, -10, 49, 178, 150, 116, 62, 67, 143, 59, 68
350845904, -7579, 6188, 9384, 9199, 2269, 840, 296, 181, -10, 49, 178, 150, 116, 62, 67, 143, 59, 68
350846701, -7579, 6188, 9384, 9199, 2269, 840, 296, 181, -10, 49, 178, 150, 116, 62, 67, 143, 59, 68
350847489, -7579, 6188, 9384, 9199, 2269, 840, 296, 181, -10, 49, 178, 150, 116, 62, 67, 143, 59, 68
350848312, -7579, 6188, 9384, 9199, 2269, 840, 296, 181, -10, 49, 178, 150, 116, 62, 67, 143, 59, 68
350853457, -7579, 6188, 9384, 9199, 2269, 840, 296, 181, -10, 49, 178, 150, 116, 62, 67, 143, 59, 68
350854466, -7623, 6141, 9426, 9151, 2176, 935, 386, 532, -64, 161, 178, 150, 116, 62, 67, 143, 59, 68
350855146, -7623, 6141, 9426, 9151, 2176, 935, 386, 532, -64, 161, 373, 309, 128, 136, 171, 398, 107, 124
350855972, -7623, 6141, 9426, 9151, 2176, 935, 386, 532, -64, 161, 373, 309, 128, 136, 171, 398, 107, 124
350861026, -7623, 6141, 9426, 9151, 2176, 935, 386, 532, -64, 161, 373, 309, 128, 136, 171, 398, 107, 124
350861804, -7623, 6141, 9426, 9151, 2176, 935, 386, 532, -64, 161, 373, 309, 128, 136, 171, 398, 107, 124
350862604, -7623, 6141, 9426, 9151, 2176, 935, 386, 532, -64, 161, 373, 309, 128, 136, 171, 398, 107, 124
350863398, -7623, 6141, 9426, 9151, 2176, 935, 386, 532, -64, 161, 373, 309, 128, 136, 171, 398, 107, 124
350868359, -7623, 6141, 9426, 9151, 2176, 935, 386, 532, -64, 161, 373, 309, 128, 136, 171, 398, 107, 124
350869186, -7623, 6141, 9426, 9151, 2176, 935, 386, 532, -64, 161, 373, 309, 128, 136, 171, 398, 107, 124
350869970, -7623, 6141, 9426, 9151, 2176, 935, 386, 532, -64, 161, 373, 309, 128, 136, 171, 398, 107, 124
350870825, -7623, 6141, 9426, 9151, 2176, 935, 386, 532, -64, 161, 373, 309, 128, 136, 171, 398, 107, 124
350875878, -7623, 6141, 9426, 9151, 2176, 935, 386, 532, -64, 161, 373, 309, 128, 136, 171, 398, 107, 124
350876805, -7728, 6081, 9506, 9019, 2032, 909, 570, 1119, -201, 463, 373, 309, 128, 136, 171, 398, 107, 124
350877622, -7728, 6081, 9506, 9019, 2032, 909, 570, 1119, -201, 463, 468, 425, 150, 160, 260, 722, 278, 168
350878423, -7728, 6081, 9506, 9019, 2032, 909, 570, 1119, -201, 463, 468, 425, 150, 160, 260, 722, 278, 168
350883448, -7728, 6081, 9506, 9019, 2032, 909, 570, 1119, -201, 463, 468, 425, 150, 160, 260, 722, 278, 168
350884279, -7728, 6081, 9506, 9019, 2032, 909, 570, 1119, -201, 463, 468, 425, 150, 160, 260, 722, 278, 168
350885051, -7728, 6081, 9506, 9019, 2032, 909, 570, 1119, -201, 463, 468, 425, 150, 160, 260, 722, 278, 168
350885871, -7728, 6081, 9506, 9019, 2032, 909, 570, 1119, -201, 463, 468, 425, 150, 160, 260, 722, 278, 168
350890828, -7728, 6081, 9506, 9019, 2032, 909, 570, 1119, -201, 463, 468, 425, 150, 160, 260, 722, 278, 168
350891643, -7728, 6081, 9506, 9019, 2032, 909, 570, 1119, -201, 463, 468, 425, 150, 160, 260, 722, 278, 168
350892473, -7728, 6081, 9506, 9019, 2032, 909, 570, 1119, -201, 463, 468, 425, 150, 160, 260, 722, 278, 168
350893264, -7728, 6081, 9506, 9019, 2032, 909, 570, 1119, -201, 463, 468, 425, 150, 160, 260, 722, 278, 168
350898402, -7728, 6081, 9506, 9019, 2032, 909, 570, 1119, -201, 463, 468, 425, 150, 160, 260, 722, 278, 168
350899346, -7945, 6056, 9626, 8715, 1950, 733, 706, 1894, -248, 1168, 468, 425, 150, 160, 260, 722, 278, 168
350900143, -7945, 6056, 9626, 8715, 1950, 733, 706, 1894, -248, 1168, 576, 490, 148, 186, 333, 868, 282, 214
350900963, -7945, 6056, 9626, 8715, 1950, 733, 706, 1894, -248, 1168, 576, 490, 148, 186, 333, 868, 282, 214
350905988, -7945, 6056, 9626, 8715, 1950, 733, 706, 1894, -248, 1168, 576, 490, 148, 186, 333, 868, 282, 214
350906812, -7945, 6056, 9626, 8715, 1950, 733, 706, 1894, -248, 1168, 576, 490, 148, 186, 333, 868, 282, 214
350907594, -7945, 6056, 9626, 8715, 1950, 733, 706, 1894, -248, 1168, 576, 490, 148, 186, 333, 868, 282, 214
350908414, -7945, 6056, 9626, 8715, 1950, 733, 706, 1894, -248, 1168, 576, 490, 148, 186, 333, 868, 282, 214
350913364, -7945, 6056, 9626, 8715, 1950, 733, 706, 1894, -248, 1168, 576, 490, 148, 186, 333, 868, 282, 214
350914165, -7945, 6056, 9626, 8715, 1950, 733, 706, 1894, -248, 1168, 576, 490, 148, 186, 333, 868, 282, 214
350914987, -7945, 6056, 9626, 8715, 1950, 733, 706, 1894, -248, 1168, 576, 490, 148, 186, 333, 868, 282, 214
350915812, -7945, 6056, 9626, 8715, 1950, 733, 706, 1894, -248, 1168, 576, 490, 148, 186, 333, 868, 282, 214
350920867, -7945, 6056, 9626, 8715, 1950, 733, 706, 1894, -248, 1168, 576, 490, 148, 186, 333, 868, 282, 214
350921825, -8311, 5940, 9837, 8204, 2247, 1222, 842, 3410, -193, 1744, 576, 490, 148, 186, 333, 868, 282, 214
350922617, -8311, 5940, 9837, 8204, 2247, 1222, 842, 3410, -193, 1744, 740, 548, 166, 195, 372, 994, 312, 282
350923440, -8311, 5940, 9837, 8204, 2247, 1222, 842, 3410, -193, 1744, 740, 548, 166, 195, 372, 994, 312, 282
350928446, -8311, 5940, 9837, 8204, 2247, 1222, 842, 3410, -193, 1744, 740, 548, 166, 195, 372, 994, 312, 282
350929269, -8311, 5940, 9837, 8204, 2247, 1222, 842, 3410, -193, 1744, 740, 548, 166, 195, 372, 994, 312, 282
350930065, -8311, 5940, 9837, 8204, 2247, 1222, 842, 3410, -193, 1744, 740, 548, 166, 195, 372, 994, 312, 282
350930887, -8311, 5940, 9837, 8204, 2247, 1222, 842, 3410, -193, 1744, 740, 548, 166, 195, 372, 994, 312, 282
350935845, -8311, 5940, 9837, 8204, 2247, 1222, 842, 3410, -193, 1744, 740, 548, 166, 195, 372, 994, 312, 282
350936668, -8311, 5940, 9837, 8204, 2247, 1222, 842, 3410, -193, 1744, 740, 548, 166, 195, 372, 994, 312, 282
350937479, -8311, 5940, 9837, 8204, 2247, 1222, 842, 3410, -193, 1744, 740, 548, 166, 195, 372, 994, 312, 282
350938304, -8311, 5940, 9837, 8204, 2247, 1222, 842, 3410, -193, 1744, 740, 548, 166, 195, 372, 994, 312, 282
350943396, -8311, 5940, 9837, 8204, 2247, 1222, 842, 3410, -193, 1744, 740, 548, 166, 195, 372, 994, 312, 282
350944326, -8715, 5745, 10097, 7584, 2349, 1789, 524, 4208, -171, 1882, 740, 548, 166, 195, 372, 994, 312, 282
350945130, -8715, 5745, 10097, 7584, 2349, 1789, 524, 4208, -171, 1882, 870, 560, 180, 211, 433, 1184, 376, 317
350945919, -8715, 5745, 10097, 7584, 2349, 1789, 524, 4208, -171, 1882, 870, 560, 180, 211, 433, 1184, 376, 317
350950927, -8715, 5745, 10097, 7584, 2349, 1789, 524, 4208, -171, 1882, 870, 560, 180, 211, 433, 1184, 376, 317
350951741, -8715, 5745, 10097, 7584, 2349, 1789, 524, 4208, -171, 1882, 870, 560, 180, 211, 433, 1184, 376, 317
350952538, -8715, 5745, 10097, 7584, 2349, 1789, 524, 4208, -171, 1882, 870, 560, 180, 211, 433, 1184, 376, 317
350953382, -8715, 5745, 10097, 7584, 2349, 1789, 524, 4208, -171, 1882, 870, 560, 180, 211, 433, 1184, 376, 317
350958449, -8715, 5745, 10097, 7584, 2349, 1789, 524, 4208, -171, 1882, 870, 560, 180, 211, 433, 1184, 376, 317
350959310, -8715, 5745, 10097, 7584, 2349, 1789, 524, 4208, -171, 1882, 870, 560, 180, 211, 433, 1184, 376, 317
350960068, -8715, 5745, 10097, 7584, 2349, 1789, 524, 4208, -171, 1882, 870, 560, 180, 211, 433, 1184, 376, 317
350960830, -8715, 5745, 10097, 7584, 2349, 1789, 524, 4208, -171, 1882, 870, 560, 180, 211, 433, 1184, 376, 317
350965903, -8715, 5745, 10097, 7584, 2349, 1789, 524, 4208, -171, 1882, 870, 560, 180, 211, 433, 1184, 376, 317
350966824, -9090, 5581, 10310, 6954, 2461, 1596, 452, 3968, -227, 2020, 870, 560, 180, 211, 433, 1184, 376, 317
350967638, -9090, 5581, 10310, 6954, 2461, 1596, 452, 3968, -227, 2020, 873, 574, 187, 185, 478, 1316, 460, 377
350968438, -9090, 5581, 10310, 6954, 2461, 1596, 452, 3968, -227, 2020, 873, 574, 187, 185, 478, 1316, 460, 377
350973487, -9090, 5581, 10310, 6954, 2461, 1596, 452, 3968, -227, 2020, 873, 574, 187, 185, 478, 1316, 460, 377
350974270, -9090, 5581, 10310, 6954, 2461, 1596, 452, 3968, -227, 2020, 873, 574, 187, 185, 478, 1316, 460, 377
350975092, -9090, 5581, 10310, 6954, 2461, 1596, 452, 3968, -227, 2020, 873, 574, 187, 185, 478, 1316, 460, 377
350975925, -9090, 5581, 10310, 6954, 2461, 1596, 452, 3968, -227, 2020, 873, 574, 187, 185, 478, 1316, 460, 377
350980843, -9090, 5581, 10310, 6954, 2461, 1596, 452, 3968, -227, 2020, 873, 574, 187, 185, 478, 1316, 460, 377
350981663, -9090, 5581, 10310, 6954, 2461, 1596, 452, 3968, -227, 2020, 873, 574, 187, 185, 478, 1316, 460, 377
350982487, -9090, 5581, 10310, 6954, 2461, 1596, 452, 3968, -227, 2020, 873, 574, 187, 185, 478, 1316, 460, 377
350983287, -9090, 5581, 10310, 6954, 2461, 1596, 452, 3968, -227, 2020, 873, 574, 187, 185, 478, 1316, 460, 377
350988374, -9090, 5581, 10310, 6954, 2461, 1596, 452, 3968, -227, 2020, 873, 574, 187, 185, 478, 1316, 460, 377
350989295, -9490, 5407, 10508, 6221, 2436, 1190, 322, 4368, -256, 2362, 873, 574, 187, 185, 478, 1316, 460, 377
350990119, -9490, 5407, 10508, 6221, 2436, 1190, 322, 4368, -256, 2362, 869, 512, 210, 193, 454, 1277, 421, 394
350990942, -9490, 5407, 10508, 6221, 2436, 1190, 322, 4368, -256, 2362, 869, 512, 210, 193, 454, 1277, 421, 394
350993713, -9490, 5407, 10508, 6221, 2436, 1190, 322, 4368, -256, 2362, 869, 512, 210, 193, 454, 1277, 421, 394
351003339, -9490, 5407, 10508, 6221, 2436, 1190, 322, 4368, -256, 2362, 869, 512, 210, 193, 454, 1277, 421, 394
351004145, -9490, 5407, 10508, 6221, 2436, 1190, 322, 4368, -256, 2362, 869, 512, 210, 193, 454, 1277, 421, 394
351004939, -9490, 5407, 10508, 6221, 2436, 1190, 322, 4368, -256, 2362, 869, 512, 210, 193, 454, 1277, 421, 394
351005762, -9490, 5407, 10508, 6221, 2436, 1190, 322, 4368, -256, 2362, 869, 512, 210, 193, 454, 1277, 421, 394
351009264, -9490, 5407, 10508, 6221, 2436, 1190, 322, 4368, -256, 2362, 869, 512, 210, 193, 454, 1277, 421, 394
351010092, -9490, 5407, 10508, 6221, 2436, 1190, 322, 4368, -256, 2362, 869, 512, 210, 193, 454, 1277, 421, 394
351018350, -9490, 5407, 10508, 6221, 2436, 1190, 322, 4368, -256, 2362, 869, 512, 210, 193, 454, 1277, 421, 394
351019266, -9490, 5407, 10508, 6221, 2436, 1190, 322, 4368, -256, 2362, 869, 522, 230, 189, 421, 1241, 483, 387
351020066, -9490, 5407, 10508, 6221, 2436, 1190, 322, 4368, -256, 2362, 869, 522, 230, 189, 421, 1241, 483, 387
351020885, -9490, 5407, 10508, 6221, 2436, 1190, 322, 4368, -256, 2362, 869, 522, 230, 189, 421, 1241, 483, 387
351025965, -9490, 5407, 10508, 6221, 2436, 1190, 322, 4368, -256, 2362, 869, 522, 230, 189, 421, 1241, 483, 387
351026762, -9490, 5407, 10508, 6221, 2436, 1190, 322, 4368, -256, 2362, 869, 522, 230, 189, 421, 1241, 483, 387
351027599, -9490, 5407, 10508, 6221, 2436, 1190, 322, 4368, -256, 2362, 869, 522, 230, 189, 421, 1241, 483, 387
351028401, -9490, 5407, 10508, 6221, 2436, 1190, 322, 4368, -256, 2362, 869, 522, 230, 189, 421, 1241, 483, 387
351033342, -9490, 5407, 10508, 6221, 2436, 1190, 322, 4368, -256, 2362, 869, 522, 230, 189, 421, 1241, 483, 387
351034170, -9490, 5407, 10508, 6221, 2436, 1190, 322, 4368, -256, 2362, 869, 522, 230, 189, 421, 1241, 483, 387
351034962, -9490, 5407, 10508, 6221, 2436, 1190, 322, 4368, -256, 2362, 869, 522, 230, 189, 421, 1241, 483, 387
351035786, -9490, 5407, 10508, 6221, 2436, 1190, 322, 4368, -256, 2362, 869, 522, 230, 189, 421, 1241, 483, 387
351040867, -9490, 5407, 10508, 6221, 2436, 1190, 322, 4368, -256, 2362, 869, 522, 230, 189, 421, 1241, 483, 387
351041798, -10254, 5044, 10884, 4402, 2908, 1270, -594, 5084, -640, 2970, 869, 522, 230, 189, 421, 1241, 483, 387
351042619, -10254, 5044, 10884, 4402, 2908, 1270, -594, 5084, -640, 2970, 781, 524, 228, 200, 434, 1272, 586, 404
351043417, -10254, 5044, 10884, 4402, 2908, 1270, -594, 5084, -640, 2970, 781, 524, 228, 200, 434, 1272, 586, 404
351048447, -10254, 5044, 10884, 4402, 2908, 1270, -594, 5084, -640, 2970, 781, 524, 228, 200, 434, 1272, 586, 404
351049269, -10254, 5044, 10884, 4402, 2908, 1270, -594, 5084, -640, 2970, 781, 524, 228, 200, 434, 1272, 586, 404
351050066, -10254, 5044, 10884, 4402, 2908, 1270, -594, 5084, -640, 2970, 781, 524, 228, 200, 434, 1272, 586, 404
351050862, -10254, 5044, 10884, 4402, 2908, 1270, -594, 5084, -640, 2970, 781, 524, 228, 200, 434, 1272, 586, 404
351055820, -10254, 5044, 10884, 4402, 2908, 1270, -594, 5084, -640, 2970, 781, 524, 228, 200, 434, 1272, 586, 404
351056639, -10254, 5044, 10884, 4402, 2908, 1270, -594, 5084, -640, 2970, 781, 524, 228, 200, 434, 1272, 586, 404
351057479, -10254, 5044, 10884, 4402, 2908, 1270, -594, 5084, -640, 2970, 781, 524, 228, 200, 434, 1272, 586, 404
351058274, -10254, 5044, 10884, 4402, 2908, 1270, -594, 5084, -640, 2970, 781, 524, 228, 200, 434, 1272, 586, 404
351063398, -10254, 5044, 10884, 4402, 2908, 1270, -594, 5084, -640, 2970, 781, 524, 228, 200, 434, 1272, 586, 404
351064349, -10509, 4867, 11049, 3496, 2944, 1119, -751, 4701, -867, 2808, 781, 524, 228, 200, 434, 1272, 586, 404
351065145, -10509, 4867, 11049, 3496, 2944, 1119, -751, 4701, -867, 2808, 700, 521, 222, 196, 428, 1276, 648, 410
351065962, -10509, 4867, 11049, 3496, 2944, 1119, -751, 4701, -867, 2808, 700, 521, 222, 196, 428, 1276, 648, 410
351070970, -10509, 4867, 11049, 3496, 2944, 1119, -751, 4701, -867, 2808, 700, 521, 222, 196, 428, 1276, 648, 410
351071789, -10509, 4867, 11049, 3496, 2944, 1119, -751, 4701, -867, 2808, 700, 521, 222, 196, 428, 1276, 648, 410
351072587, -10509, 4867, 11049, 3496, 2944, 1119, -751, 4701, -867, 2808, 700, 521, 222, 196, 428, 1276, 648, 410
351073413, -10509, 4867, 11049, 3496, 2944, 1119, -751, 4701, -867, 2808, 700, 521, 222, 196, 428, 1276, 648, 410
351078379, -10509, 4867, 11049, 3496, 2944, 1119, -751, 4701, -867, 2808, 700, 521, 222, 196, 428, 1276, 648, 410
351079180, -10509, 4867, 11049, 3496, 2944, 1119, -751, 4701, -867, 2808, 700, 521, 222, 196, 428, 1276, 648, 410
351080003, -10509, 4867, 11049, 3496, 2944, 1119, -751, 4701, -867, 2808, 700, 521, 222, 196, 428, 1276, 648, 410
351080841, -10509, 4867, 11049, 3496, 2944, 1119, -751, 4701, -867, 2808, 700, 521, 222, 196, 428, 1276, 648, 410
351085877, -10509, 4867, 11049, 3496, 2944, 1119, -751, 4701, -867, 2808, 700, 521, 222, 196, 428, 1276, 648, 410
351086819, -10709, 4682, 11175, 2635, 3033, 1074, -873, 4428, -839, 2637, 700, 521, 222, 196, 428, 1276, 648, 410
351087612, -10709, 4682, 11175, 2635, 3033, 1074, -873, 4428, -839, 2637, 671, 467, 239, 194, 364, 1110, 729, 410
351088444, -10709, 4682, 11175, 2635, 3033, 1074, -873, 4428, -839, 2637, 671, 467, 239, 194, 364, 1110, 729, 410
351093438, -10709, 4682, 11175, 2635, 3033, 1074, -873, 4428, -839, 2637, 671, 467, 239, 194, 364, 1110, 729, 410
351094262, -10709, 4682, 11175, 2635, 3033, 1074, -873, 4428, -839, 2637, 671, 467, 239, 194, 364, 1110, 729, 410
351095065, -10709, 4682, 11175, 2635, 3033, 1074, -873, 4428, -839, 2637, 671, 467, 239, 194, 364, 1110, 729, 410
351095900, -10709, 4682, 11175, 2635, 3033, 1074, -873, 4428, -839, 2637, 671, 467, 239, 194, 364, 1110, 729, 410
351108318, -10709, 4682, 11175, 2635, 3033, 1074, -873, 4428, -839, 2637, 671, 467, 239, 194, 364, 1110, 729, 410
351109117, -10709, 4682, 11175, 2635, 3033, 1074, -873, 4428, -839, 2637, 671, 467, 239, 194, 364, 1110, 729, 410
351109945, -10709, 4682, 11175, 2635, 3033, 1074, -873, 4428, -839, 2637, 671, 467, 239, 194, 364, 1110, 729, 410
351110767, -10709, 4682, 11175, 2635, 3033, 1074, -873, 4428, -839, 2637, 671, 467, 239, 194, 364, 1110, 729, 410
351115935, -10709, 4682, 11175, 2635, 3033, 1074, -873, 4428, -839, 2637, 671, 467, 239, 194, 364, 1110, 729, 410
351116852, -10834, 4532, 11256, 1954, 3038, 1307, -1317, 3475, -649, 2164, 671, 467, 239, 194, 364, 1110, 729, 410
351117644, -10834, 4532, 11256, 1954, 3038, 1307, -1317, 3475, -649, 2164, 797, 464, 228, 169, 392, 1117, 777, 404
351118438, -10834, 4532, 11256, 1954, 3038, 1307, -1317, 3475, -649, 2164, 797, 464, 228, 169, 392, 1117, 777, 404
351123490, -10834, 4532, 11256, 1954, 3038, 1307, -1317, 3475, -649, 2164, 797, 464, 228, 169, 392, 1117, 777, 404
351124300, -10834, 4532, 11256, 1954, 3038, 1307, -1317, 3475, -649, 2164, 797, 464, 228, 169, 392, 1117, 777, 404
351125117, -10834, 4532, 11256, 1954, 3038, 1307, -1317, 3475, -649, 2164, 797, 464, 228, 169, 392, 1117, 777, 404
351125953, -10834, 4532, 11256, 1954, 3038, 1307, -1317, 3475, -649, 2164, 797, 464, 228, 169, 392, 1117, 777, 404
351130867, -10834, 4532, 11256, 1954, 3038, 1307, -1317, 3475, -649, 2164, 797, 464, 228, 169, 392, 1117, 777, 404
351131674, -10834, 4532, 11256, 1954, 3038, 1307, -1317, 3475, -649, 2164, 797, 464, 228, 169, 392, 1117, 777, 404
351132489, -10834, 4532, 11256, 1954, 3038, 1307, -1317, 3475, -649, 2164, 797, 464, 228, 169, 392, 1117, 777, 404
351133288, -10834, 4532, 11256, 1954, 3038, 1307, -1317, 3475, -649, 2164, 797, 464, 228, 169, 392, 1117, 777, 404
351138368, -10834, 4532, 11256, 1954, 3038, 1307, -1317, 3475, -649, 2164, 797, 464, 228, 169, 392, 1117, 777, 404
351139314, -10864, 4449, 11321, 1562, 3149, 1242, -1530, 1965, -528, 1314, 797, 464, 228, 169, 392, 1117, 777, 404
351140147, -10864, 4449, 11321, 1562, 3149, 1242, -1530, 1965, -528, 1314, 813, 413, 207, 162, 384, 1141, 775, 396
351140944, -10864, 4449, 11321, 1562, 3149, 1242, -1530, 1965, -528, 1314, 813, 413, 207, 162, 384, 1141, 775, 396
351145979, -10864, 4449, 11321, 1562, 3149, 1242, -1530, 1965, -528, 1314, 813, 413, 207, 162, 384, 1141, 775, 396
351146746, -10864, 4449, 11321, 1562, 3149, 1242, -1530, 1965, -528, 1314, 813, 413, 207, 162, 384, 1141, 775, 396
351147564, -10864, 4449, 11321, 1562, 3149, 1242, -1530, 1965, -528, 1314, 813, 413, 207, 162, 384, 1141, 775, 396
351148387, -10864, 4449, 11321, 1562, 3149, 1242, -1530, 1965, -528, 1314, 813, 413, 207, 162, 384, 1141, 775, 396
351153345, -10864, 4449, 11321, 1562, 3149, 1242, -1530, 1965, -528, 1314, 813, 413, 207, 162, 384, 1141, 775, 396
351154141, -10864, 4449, 11321, 1562, 3149, 1242, -1530, 1965, -528, 1314, 813, 413, 207, 162, 384, 1141, 775, 396
351154978, -10864, 4449, 11321, 1562, 3149, 1242, -1530, 1965, -528, 1314, 813, 413, 207, 162, 384, 1141, 775, 396
351155777, -10864, 4449, 11321, 1562, 3149, 1242, -1530, 1965, -528, 1314, 813, 413, 207, 162, 384, 1141, 775, 396
351160878, -10864, 4449, 11321, 1562, 3149, 1242, -1530, 1965, -528, 1314, 813, 413, 207, 162, 384, 1141, 775, 396
351161770, -10783, 4328, 11458, 1464, 3123, 1021, -1467, 1017, -333, 587, 813, 413, 207, 162, 384, 1141, 775, 396
351162588, -10783, 4328, 11458, 1464, 3123, 1021, -1467, 1017, -333, 587, 801, 351, 289, 230, 447, 1079, 775, 368
351163422, -10783, 4328, 11458, 1464, 3123, 1021, -1467, 1017, -333, 587, 801, 351, 289, 230, 447, 1079, 775, 368
351168426, -10783, 4328, 11458, 1464, 3123, 1021, -1467, 1017, -333, 587, 801, 351, 289, 230, 447, 1079, 775, 368
351169264, -10783, 4328, 11458, 1464, 3123, 1021, -1467, 1017, -333, 587, 801, 351, 289, 230, 447, 1079, 775, 368
351170040, -10783, 4328, 11458, 1464, 3123, 1021, -1467, 1017, -333, 587, 801, 351, 289, 230, 447, 1079, 775, 368
351170863, -10783, 4328, 11458, 1464, 3123, 1021, -1467, 1017, -333, 587, 801, 351, 289, 230, 447, 1079, 775, 368
351175960, -10783, 4328, 11458, 1464, 3123, 1021, -1467, 1017, -333, 587, 801, 351, 289, 230, 447, 1079, 775, 368
351176713, -10783, 4328, 11458, 1464, 3123, 1021, -1467, 1017, -333, 587, 801, 351, 289, 230, 447, 1079, 775, 368
351177495, -10783, 4328, 11458, 1464, 3123, 1021, -1467, 1017, -333, 587, 801, 351, 289, 230, 447, 1079, 775, 368
351178314, -10783, 4328, 11458, 1464, 3123, 1021, -1467, 1017, -333, 587, 801, 351, 289, 230, 447, 1079, 775, 368
351183364, -10783, 4328, 11458, 1464, 3123, 1021, -1467, 1017, -333, 587, 801, 351, 289, 230, 447, 1079, 775, 368
351184315, -10698, 4187, 11585, 1499, 3140, 1222, -1364, 558, -175, 113, 801, 351, 289, 230, 447, 1079, 775, 368
351185119, -10698, 4187, 11585, 1499, 3140, 1222, -1364, 558, -175, 113, 796, 336, 309, 236, 407, 972, 708, 369
351185937, -10698, 4187, 11585, 1499, 3140, 1222, -1364, 558, -175, 113, 796, 336, 309, 236, 407, 972, 708, 369
351188765, -10698, 4187, 11585, 1499, 3140, 1222, -1364, 558, -175, 113, 796, 336, 309, 236, 407, 972, 708, 369
351198379, -10698, 4187, 11585, 1499, 3140, 1222, -1364, 558, -175, 113, 796, 336, 309, 236, 407, 972, 708, 369
351199146, -10698, 4187, 11585, 1499, 3140, 1222, -1364, 558, -175, 113, 796, 336, 309, 236, 407, 972, 708, 369
351199963, -10698, 4187, 11585, 1499, 3140, 1222, -1364, 558, -175, 113, 796, 336, 309, 236, 407, 972, 708, 369
351200788, -10698, 4187, 11585, 1499, 3140, 1222, -1364, 558, -175, 113, 796, 336, 309, 236, 407, 972, 708, 369
351205852, -10698, 4187, 11585, 1499, 3140, 1222, -1364, 558, -175, 113, 796, 336, 309, 236, 407, 972, 708, 369
351206683, -10698, 4187, 11585, 1499, 3140, 1222, -1364, 558, -175, 113, 796, 336, 309, 236, 407, 972, 708, 369
351207493, -10698, 4187, 11585, 1499, 3140, 1222, -1364, 558, -175, 113, 796, 336, 309, 236, 407, 972, 708, 369
351208313, -10698, 4187, 11585, 1499, 3140, 1222, -1364, 558, -175, 113, 796, 336, 309, 236, 407, 972, 708, 369
351213498, -10698, 4187, 11585, 1499, 3140, 1222, -1364, 558, -175, 113, 835, 320, 289, 236, 400, 1061, 606, 324
351214302, -10698, 4187, 11585, 1499, 3140, 1222, -1364, 558, -175, 113, 835, 320, 289, 236, 400, 1061, 606, 324
351215092, -10698, 4187, 11585, 1499, 3140, 1222, -1364, 558, -175, 113, 835, 320, 289, 236, 400, 1061, 606, 324
351215912, -10698, 4187, 11585, 1499, 3140, 1222, -1364, 558, -175, 113, 835, 320, 289, 236, 400, 1061, 606, 324
351220867, -10698, 4187, 11585, 1499, 3140, 1222, -1364, 558, -175, 113, 835, 320, 289, 236, 400, 1061, 606, 324
351221663, -10698, 4187, 11585, 1499, 3140, 1222, -1364, 558, -175, 113, 835, 320, 289, 236, 400, 1061, 606, 324
351222503, -10698, 4187, 11585, 1499, 3140, 1222, -1364, 558, -175, 113, 835, 320, 289, 236, 400, 1061, 606, 324
351223300, -10698, 4187, 11585, 1499, 3140, 1222, -1364, 558, -175, 113, 835, 320, 289, 236, 400, 1061, 606, 324
351228403, -10698, 4187, 11585, 1499, 3140, 1222, -1364, 558, -175, 113, 835, 320, 289, 236, 400, 1061, 606, 324
351229338, -10546, 3838, 11798, 1817, 3083, 1770, -969, 112, 11, -309, 835, 320, 289, 236, 400, 1061, 606, 324
351230121, -10546, 3838, 11798, 1817, 3083, 1770, -969, 112, 11, -309, 689, 313, 283, 241, 382, 998, 538, 305
351230938, -10546, 3838, 11798, 1817, 3083, 1770, -969, 112, 11, -309, 689, 313, 283, 241, 382, 998, 538, 305
351235949, -10546, 3838, 11798, 1817, 3083, 1770, -969, 112, 11, -309, 689, 313, 283, 241, 382, 998, 538, 305
351236767, -10546, 3838, 11798, 1817, 3083, 1770, -969, 112, 11, -309, 689, 313, 283, 241, 382, 998, 538, 305
351237564, -10546, 3838, 11798, 1817, 3083, 1770, -969, 112, 11, -309, 689, 313, 283, 241, 382, 998, 538, 305
351238414, -10546, 3838, 11798, 1817, 3083, 1770, -969, 112, 11, -309, 689, 313, 283, 241, 382, 998, 538, 305
351243381, -10546, 3838, 11798, 1817, 3083, 1770, -969, 112, 11, -309, 689, 313, 283, 241, 382, 998, 538, 305
351244150, -10546, 3838, 11798, 1817, 3083, 1770, -969, 112, 11, -309, 689, 313, 283, 241, 382, 998, 538, 305
351244973, -10546, 3838, 11798, 1817, 3083, 1770, -969, 112, 11, -309, 689, 313, 283, 241, 382, 998, 538, 305
351245792, -10546, 3838, 11798, 1817, 3083, 1770, -969, 112, 11, -309, 689, 313, 283, 241, 382, 998, 538, 305
351250845, -10546, 3838, 11798, 1817, 3083, 1770, -969, 112, 11, -309, 689, 313, 283, 241, 382, 998, 538, 305
351251790, -10461, 3703, 11893, 1962, 3043, 1746, -1089, 67, -82, -99, 689, 313, 283, 241, 382, 998, 538, 305
351252588, -10461, 3703, 11893, 1962, 3043, 1746, -1089, 67, -82, -99, 624, 369, 312, 249, 404, 1069, 524, 313
351253412, -10461, 3703, 11893, 1962, 3043, 1746, -1089, 67, -82, -99, 624, 369, 312, 249, 404, 1069, 524, 313
351258488, -10461, 3703, 11893, 1962, 3043, 1746, -1089, 67, -82, -99, 624, 369, 312, 249, 404, 1069, 524, 313
351259311, -10461, 3703, 11893, 1962, 3043, 1746, -1089, 67, -82, -99, 624, 369, 312, 249, 404, 1069, 524, 313
351260060, -10461, 3703, 11893, 1962, 3043, 1746, -1089, 67, -82, -99, 624, 369, 312, 249, 404, 1069, 524, 313
351260868, -10461, 3703, 11893, 1962, 3043, 1746, -1089, 67, -82, -99, 624, 369, 312, 249, 404, 1069, 524, 313
351265814, -10461, 3703, 11893, 1962, 3043, 1746, -1089, 67, -82, -99, 624, 369, 312, 249, 404, 1069, 524, 313
351266613, -10461, 3703, 11893, 1962, 3043, 1746, -1089, 67, -82, -99, 624, 369, 312, 249, 404, 1069, 524, 313
351267439, -10461, 3703, 11893, 1962, 3043, 1746, -1089, 67, -82, -99, 624, 369, 312, 249, 404, 1069, 524, 313
351268282, -10461, 3703, 11893, 1962, 3043, 1746, -1089, 67, -82, -99, 624, 369, 312, 249, 404, 1069, 524, 313
351273424, -10461, 3703, 11893, 1962, 3043, 1746, -1089, 67, -82, -99, 624, 369, 312, 249, 404, 1069, 524, 313
351274336, -10359, 3586, 11996, 2089, 3216, 1772, -1262, 69, -151, 7, 624, 369, 312, 249, 404, 1069, 524, 313
351275156, -10359, 3586, 11996, 2089, 3216, 1772, -1262, 69, -151, 7, 669, 394, 263, 182, 306, 1128, 409, 284
351276026, -10359, 3586, 11996, 2089, 3216, 1772, -1262, 69, -151, 7, 669, 394, 263, 182, 306, 1128, 409, 284
351280982, -10359, 3586, 11996, 2089, 3216, 1772, -1262, 69, -151, 7, 669, 394, 263, 182, 306, 1128, 409, 284
351281768, -10359, 3586, 11996, 2089, 3216, 1772, -1262, 69, -151, 7, 669, 394, 263, 182, 306, 1128, 409, 284
351282587, -10359, 3586, 11996, 2089, 3216, 1772, -1262, 69, -151, 7, 669, 394, 263, 182, 306, 1128, 409, 284
351283387, -10359, 3586, 11996, 2089, 3216, 1772, -1262, 69, -151, 7, 669, 394, 263, 182, 306, 1128, 409, 284
351286137, -10359, 3586, 11996, 2089, 3216, 1772, -1262, 69, -151, 7, 669, 394, 263, 182, 306, 1128, 409, 284
351295880, -10359, 3586, 11996, 2089, 3216, 1772, -1262, 69, -151, 7, 669, 394, 263, 182, 306, 1128, 409, 284
351296670, -10359, 3586, 11996, 2089, 3216, 1772, -1262, 69, -151, 7, 669, 394, 263, 182, 306, 1128, 409, 284
351297489, -10359, 3586, 11996, 2089, 3216, 1772, -1262, 69, -151, 7, 669, 394, 263, 182, 306, 1128, 409, 284
351298303, -10359, 3586, 11996, 2089, 3216, 1772, -1262, 69, -151, 7, 669, 394, 263, 182, 306, 1128, 409, 284
351303506, -10273, 3465, 12084, 2202, 3238, 1740, -1165, 137, -125, 11, 669, 394, 263, 182, 306, 1128, 409, 284
351304304, -10273, 3465, 12084, 2202, 3238, 1740, -1165, 137, -125, 11, 628, 410, 280, 172, 311, 1133, 494, 239
351305159, -10273, 3465, 12084, 2202, 3238, 1740, -1165, 137, -125, 11, 628, 410, 280, 172, 311, 1133, 494, 239
351305945, -10273, 3465, 12084, 2202, 3238, 1740, -1165, 137, -125, 11, 628, 410, 280, 172, 311, 1133, 494, 239
351310854, -10273, 3465, 12084, 2202, 3238, 1740, -1165, 137, -125, 11, 628, 410, 280, 172, 311, 1133, 494, 239
351311645, -10273, 3465, 12084, 2202, 3238, 1740, -1165, 137, -125, 11, 628, 410, 280, 172, 311, 1133, 494, 239
351312439, -10273, 3465, 12084, 2202, 3238, 1740, -1165, 137, -125, 11, 628, 410, 280, 172, 311, 1133, 494, 239
351313301, -10273, 3465, 12084, 2202, 3238, 1740, -1165, 137, -125, 11, 628, 410, 280, 172, 311, 1133, 494, 239
351318401, -10273, 3465, 12084, 2202, 3238, 1740, -1165, 137, -125, 11, 628, 410, 280, 172, 311, 1133, 494, 239
351319319, -10196, 3363, 12160, 2298, 3235, 1770, -1153, 140, -99, 147, 628, 410, 280, 172, 311, 1133, 494, 239
351320142, -10196, 3363, 12160, 2298, 3235, 1770, -1153, 140, -99, 147, 556, 420, 290, 194, 309, 1101, 448, 202
351320937, -10196, 3363, 12160, 2298, 3235, 1770, -1153, 140, -99, 147, 556, 420, 290, 194, 309, 1101, 448, 202
351326033, -10196, 3363, 12160, 2298, 3235, 1770, -1153, 140, -99, 147, 556, 420, 290, 194, 309, 1101, 448, 202
351326795, -10196, 3363, 12160, 2298, 3235, 1770, -1153, 140, -99, 147, 556, 420, 290, 194, 309, 1101, 448, 202
351327593, -10196, 3363, 12160, 2298, 3235, 1770, -1153, 140, -99, 147, 556, 420, 290, 194, 309, 1101, 448, 202
351328416, -10196, 3363, 12160, 2298, 3235, 1770, -1153, 140, -99, 147, 556, 420, 290, 194, 309, 1101, 448, 202
351333353, -10196, 3363, 12160, 2298, 3235, 1770, -1153, 140, -99, 147, 556, 420, 290, 194, 309, 1101, 448, 202
351334180, -10196, 3363, 12160, 2298, 3235, 1770, -1153, 140, -99, 147, 556, 420, 290, 194, 309, 1101, 448, 202
351334992, -10196, 3363, 12160, 2298, 3235, 1770, -1153, 140, -99, 147, 556, 420, 290, 194, 309, 1101, 448, 202
351335788, -10196, 3363, 12160, 2298, 3235, 1770, -1153, 140, -99, 147, 556, 420, 290, 194, 309, 1101, 448, 202
351340883, -10196, 3363, 12160, 2298, 3235, 1770, -1153, 140, -99, 147, 556, 420, 290, 194, 309, 1101, 448, 202
351341793, -10130, 3261, 12223, 2403, 3251, 1796, -1162, 102, -12, 121, 556, 420, 290, 194, 309, 1101, 448, 202
351342613, -10130, 3261, 12223, 2403, 3251, 1796, -1162, 102, -12, 121, 574, 427, 287, 200, 285, 1103, 439, 195
351343451, -10130, 3261, 12223, 2403, 3251, 1796, -1162, 102, -12, 121, 574, 427, 287, 200, 285, 1103, 439, 195
