Timestamp, Orientation x, Orientation y, Orientation z, Orientation w, Acceleration x, Acceleration y, Acceleration z, Rotation x, Rotation y, Rotation z, EMG 0, EMG 1, EMG 2, EMG 3, EMG 4, EMG 5, EMG 6, EMG 7
135312929, 8819, 80, -13808, -18, 4041, 24, -1831, 13, -7, -21, 0, 0, 0, 0, 0, 0, 0, 0
135313820, 8822, 84, -13806, -15, 4044, 13, -1819, 20, -10, -23, 0, 0, 0, 0, 0, 0, 0, 0
135327246, 8826, 90, -13803, -11, 4053, 20, -1807, 33, -4, -22, 0, 0, 0, 0, 0, 0, 0, 0
135349751, 8828, 90, -13802, -12, 4062, 67, -1773, 3, -14, -5, 0, 0, 0, 0, 0, 0, 0, 0
135372221, 8836, 70, -13797, -48, 4070, 189, -1688, -195, -49, 61, 0, 0, 0, 0, 0, 0, 0, 0
135380390, 8836, 70, -13797, -48, 4070, 189, -1688, -195, -49, 61, 21, 49, 77, 64, 32, 34, 61, 46
135381191, 8836, 70, -13797, -48, 4070, 189, -1688, -195, -49, 61, 21, 49, 77, 64, 32, 34, 61, 46
135387360, 8846, 6, -13790, -121, 4116, 242, -1628, -493, -64, 179, 21, 49, 77, 64, 32, 34, 61, 46
135395330, 8846, 6, -13790, -121, 4116, 242, -1628, -493, -64, 179, 24, 48, 95, 167, 51, 48, 105, 30
135396132, 8846, 6, -13790, -121, 4116, 242, -1628, -493, -64, 179, 24, 48, 95, 167, 51, 48, 105, 30
135409738, 8868, -101, -13775, -190, 4149, 68, -1696, -643, 46, 301, 24, 48, 95, 167, 51, 48, 105, 30
135417895, 8868, -101, -13775, -190, 4149, 68, -1696, -643, 46, 301, 27, 49, 131, 182, 83, 55, 154, 33
135418704, 8868, -101, -13775, -190, 4149, 68, -1696, -643, 46, 301, 27, 49, 131, 182, 83, 55, 154, 33
135432216, 8898, -221, -13754, -183, 4185, -183, -1687, -382, 94, 484, 27, 49, 131, 182, 83, 55, 154, 33
135440367, 8898, -221, -13754, -183, 4185, -183, -1687, -382, 94, 484, 31, 53, 180, 198, 148, 131, 184, 41
135441184, 8898, -221, -13754, -183, 4185, -183, -1687, -382, 94, 484, 31, 53, 180, 198, 148, 131, 184, 41
135447336, 8937, -356, -13727, -97, 4289, -193, -1709, -33, 152, 833, 31, 53, 180, 198, 148, 131, 184, 41
135454663, 8937, -356, -13727, -97, 4289, -193, -1709, -33, 152, 833, 36, 67, 257, 267, 177, 299, 397, 104
135462166, 8937, -356, -13727, -97, 4289, -193, -1709, -33, 152, 833, 36, 67, 257, 267, 177, 299, 397, 104
135469869, 8999, -515, -13681, 59, 4422, -153, -1756, 257, 324, 1252, 36, 67, 257, 267, 177, 299, 397, 104
135477843, 8999, -515, -13681, 59, 4422, -153, -1756, 257, 324, 1252, 43, 74, 269, 297, 207, 478, 640, 227
135478647, 8999, -515, -13681, 59, 4422, -153, -1756, 257, 324, 1252, 43, 74, 269, 297, 207, 478, 640, 227
135492220, 9079, -741, -13615, 273, 4617, -138, -1629, 333, 505, 1755, 43, 74, 269, 297, 207, 478, 640, 227
135500388, 9079, -741, -13615, 273, 4617, -138, -1629, 333, 505, 1755, 51, 127, 309, 308, 323, 678, 804, 472
135501215, 9079, -741, -13615, 273, 4617, -138, -1629, 333, 505, 1755, 51, 127, 309, 308, 323, 678, 804, 472
135507357, 9205, -1076, -13501, 535, 4775, -431, -1572, 229, 862, 2418, 51, 127, 309, 308, 323, 678, 804, 472
135522891, 9205, -1076, -13501, 535, 4775, -431, -1572, 229, 862, 2418, 51, 172, 320, 332, 448, 794, 920, 487
135523705, 9205, -1076, -13501, 535, 4775, -431, -1572, 229, 862, 2418, 51, 172, 320, 332, 448, 794, 920, 487
135529852, 9332, -1469, -13355, 911, 4456, -1106, -1231, 556, 925, 3004, 51, 172, 320, 332, 448, 794, 920, 487
135537853, 9332, -1469, -13355, 911, 4456, -1106, -1231, 556, 925, 3004, 67, 197, 332, 351, 458, 914, 1002, 548
135538640, 9332, -1469, -13355, 911, 4456, -1106, -1231, 556, 925, 3004, 67, 197, 332, 351, 458, 914, 1002, 548
135552218, 9409, -1886, -13202, 1432, 4093, -1482, -1134, 1107, 665, 3588, 67, 197, 332, 351, 458, 914, 1002, 548
135560395, 9409, -1886, -13202, 1432, 4093, -1482, -1134, 1107, 665, 3588, 75, 215, 307, 316, 473, 934, 1056, 629
135561189, 9409, -1886, -13202, 1432, 4093, -1482, -1134, 1107, 665, 3588, 75, 215, 307, 316, 473, 934, 1056, 629
135567341, 9441, -2272, -13028, 2101, 3744, -1506, -1120, 1881, 437, 3994, 75, 215, 307, 316, 473, 934, 1056, 629
135582870, 9441, -2272, -13028, 2101, 3744, -1506, -1120, 1881, 437, 3994, 149, 225, 301, 291, 467, 894, 979, 746
135583688, 9441, -2272, -13028, 2101, 3744, -1506, -1120, 1881, 437, 3994, 149, 225, 301, 291, 467, 894, 979, 746
135589840, 9421, -2599, -12830, 2885, 3375, -1463, -1173, 2582, 189, 4196, 149, 225, 301, 291, 467, 894, 979, 746
135597894, 9421, -2599, -12830, 2885, 3375, -1463, -1173, 2582, 189, 4196, 176, 229, 263, 236, 401, 768, 965, 732
135598683, 9421, -2599, -12830, 2885, 3375, -1463, -1173, 2582, 189, 4196, 176, 229, 263, 236, 401, 768, 965, 732
135612226, 9341, -2893, -12614, 3702, 3232, -1483, -1374, 2829, -54, 4279, 176, 229, 263, 236, 401, 768, 965, 732
135620379, 9341, -2893, -12614, 3702, 3232, -1483, -1374, 2829, -54, 4279, 204, 204, 358, 220, 261, 679, 925, 764
135621187, 9341, -2893, -12614, 3702, 3232, -1483, -1374, 2829, -54, 4279, 204, 204, 358, 220, 261, 679, 925, 764
135627343, 9214, -3149, -12381, 4509, 3122, -1406, -1470, 2912, -222, 4197, 204, 204, 358, 220, 261, 679, 925, 764
135642872, 9214, -3149, -12381, 4509, 3122, -1406, -1470, 2912, -222, 4197, 268, 186, 349, 190, 224, 512, 908, 749
135643677, 9214, -3149, -12381, 4509, 3122, -1406, -1470, 2912, -222, 4197, 268, 186, 349, 190, 224, 512, 908, 749
135649817, 9034, -3325, -12162, 5278, 3213, -1237, -1507, 2957, -571, 3879, 268, 186, 349, 190, 224, 512, 908, 749
135657874, 9034, -3325, -12162, 5278, 3213, -1237, -1507, 2957, -571, 3879, 270, 176, 336, 178, 177, 398, 796, 692
135658696, 9034, -3325, -12162, 5278, 3213, -1237, -1507, 2957, -571, 3879, 270, 176, 336, 178, 177, 398, 796, 692
135672270, 8845, -3443, -11944, 5974, 3752, -1066, -1540, 2839, -638, 3523, 270, 176, 336, 178, 177, 398, 796, 692
135680365, 8845, -3443, -11944, 5974, 3752, -1066, -1540, 2839, -638, 3523, 239, 209, 353, 178, 162, 307, 772, 561
135681187, 8845, -3443, -11944, 5974, 3752, -1066, -1540, 2839, -638, 3523, 239, 209, 353, 178, 162, 307, 772, 561
135687342, 8706, -3548, -11681, 6604, 4331, -881, -1517, 2630, -300, 2928, 239, 209, 353, 178, 162, 307, 772, 561
135702862, 8706, -3548, -11681, 6604, 4331, -881, -1517, 2630, -300, 2928, 218, 218, 353, 188, 146, 270, 650, 416
135703708, 8706, -3548, -11681, 6604, 4331, -881, -1517, 2630, -300, 2928, 218, 218, 353, 188, 146, 270, 650, 416
135709821, 8689, -3606, -11381, 7100, 5027, -613, -1400, 2461, 357, 2106, 218, 218, 353, 188, 146, 270, 650, 416
135717864, 8689, -3606, -11381, 7100, 5027, -613, -1400, 2461, 357, 2106, 197, 259, 318, 227, 132, 192, 584, 350
135718692, 8689, -3606, -11381, 7100, 5027, -613, -1400, 2461, 357, 2106, 197, 259, 318, 227, 132, 192, 584, 350
135732270, 8866, -3688, -11056, 7347, 5648, -405, -1493, 1724, 1546, 1026, 197, 259, 318, 227, 132, 192, 584, 350
135740366, 8866, -3688, -11056, 7347, 5648, -405, -1493, 1724, 1546, 1026, 97, 462, 365, 444, 167, 143, 463, 291
135741163, 8866, -3688, -11056, 7347, 5648, -405, -1493, 1724, 1546, 1026, 97, 462, 365, 444, 167, 143, 463, 291
135747323, 9339, -3827, -10659, 7278, 5955, 112, -1433, 912, 3424, -371, 97, 462, 365, 444, 167, 143, 463, 291
135762839, 9339, -3827, -10659, 7278, 5955, 112, -1433, 912, 3424, -371, 145, 607, 571, 693, 267, 149, 426, 258
135763685, 9339, -3827, -10659, 7278, 5955, 112, -1433, 912, 3424, -371, 145, 607, 571, 693, 267, 149, 426, 258
135769820, 10151, -4095, -10155, 6746, 5968, 1011, -1977, -481, 5942, -2089, 145, 607, 571, 693, 267, 149, 426, 258
135777869, 10151, -4095, -10155, 6746, 5968, 1011, -1977, -481, 5942, -2089, 165, 782, 775, 846, 479, 195, 386, 183
135778684, 10151, -4095, -10155, 6746, 5968, 1011, -1977, -481, 5942, -2089, 165, 782, 775, 846, 479, 195, 386, 183
135792237, 11131, -4242, -9610, 5847, 5292, 460, -2967, -1004, 6907, -4116, 165, 782, 775, 846, 479, 195, 386, 183
135800345, 11131, -4242, -9610, 5847, 5292, 460, -2967, -1004, 6907, -4116, 196, 883, 999, 949, 595, 207, 331, 179
135801166, 11131, -4242, -9610, 5847, 5292, 460, -2967, -1004, 6907, -4116, 196, 883, 999, 949, 595, 207, 331, 179
135807319, 12101, -4293, -9078, 4600, 2549, -378, -3717, -1830, 7152, -5768, 196, 883, 999, 949, 595, 207, 331, 179
135822854, 12101, -4293, -9078, 4600, 2549, -378, -3717, -1830, 7152, -5768, 202, 956, 1204, 1120, 657, 234, 462, 384
135823663, 12101, -4293, -9078, 4600, 2549, -378, -3717, -1830, 7152, -5768, 202, 956, 1204, 1120, 657, 234, 462, 384
135829832, 12886, -4648, -8480, 2979, -493, -1294, -3867, -4429, 7893, -6001, 202, 956, 1204, 1120, 657, 234, 462, 384
135837881, 12886, -4648, -8480, 2979, -493, -1294, -3867, -4429, 7893, -6001, 249, 972, 1257, 1339, 667, 321, 724, 618
135838691, 12886, -4648, -8480, 2979, -493, -1294, -3867, -4429, 7893, -6001, 249, 972, 1257, 1339, 667, 321, 724, 618
135852258, 13707, -5032, -7348, 1120, -936, -498, -1908, -4504, 10925, -6322, 249, 972, 1257, 1339, 667, 321, 724, 618
135860350, 13707, -5032, -7348, 1120, -936, -498, -1908, -4504, 10925, -6322, 411, 1075, 1276, 1450, 655, 481, 910, 886
135861169, 13707, -5032, -7348, 1120, -936, -498, -1908, -4504, 10925, -6322, 411, 1075, 1276, 1450, 655, 481, 910, 886
135867328, 14445, -5121, -5720, -918, 4554, -3091, -1767, -3691, 13187, -6895, 411, 1075, 1276, 1450, 655, 481, 910, 886
135882845, 14445, -5121, -5720, -918, 4554, -3091, -1767, -3691, 13187, -6895, 575, 1078, 1251, 1492, 601, 747, 1232, 993
135883651, 14445, -5121, -5720, -918, 4554, -3091, -1767, -3691, 13187, -6895, 575, 1078, 1251, 1492, 601, 747, 1232, 993
135889875, 14467, -5882, -4194, -2636, 4482, -937, -138, -7634, 10451, -4361, 575, 1078, 1251, 1492, 601, 747, 1232, 993
135897849, 14467, -5882, -4194, -2636, 4482, -937, -138, -7634, 10451, -4361, 597, 1120, 1191, 1478, 532, 1071, 1509, 1076
135898656, 14467, -5882, -4194, -2636, 4482, -937, -138, -7634, 10451, -4361, 597, 1120, 1191, 1478, 532, 1071, 1509, 1076
135912244, 14053, -7008, -2884, -3678, 4342, -4708, -76, -9136, 7011, -1287, 597, 1120, 1191, 1478, 532, 1071, 1509, 1076
135928550, 14053, -7008, -2884, -3678, 4342, -4708, -76, -9136, 7011, -1287, 654, 1187, 1090, 1383, 461, 1138, 1576, 1067
135929346, 14053, -7008, -2884, -3678, 4342, -4708, -76, -9136, 7011, -1287, 654, 1187, 1090, 1383, 461, 1138, 1576, 1067
135930297, 13814, -7462, -2349, -4050, 1033, -4502, 858, -3798, 2658, -360, 654, 1187, 1090, 1383, 461, 1138, 1576, 1067
135942864, 13814, -7462, -2349, -4050, 1033, -4502, 858, -3798, 2658, -360, 667, 1195, 1132, 1197, 458, 1182, 1620, 1033
135943675, 13814, -7462, -2349, -4050, 1033, -4502, 858, -3798, 2658, -360, 667, 1195, 1132, 1197, 458, 1182, 1620, 1033
135949841, 13968, -7129, -2542, -4007, 734, -2665, -1060, 2571, -311, -447, 667, 1195, 1132, 1197, 458, 1182, 1620, 1033
135957890, 13968, -7129, -2542, -4007, 734, -2665, -1060, 2571, -311, -447, 582, 1100, 1151, 1018, 446, 1136, 1649, 858
135958701, 13968, -7129, -2542, -4007, 734, -2665, -1060, 2571, -311, -447, 582, 1100, 1151, 1018, 446, 1136, 1649, 858
135972221, 14228, -6550, -2912, -3824, 2220, -856, -3756, 4063, -1191, -173, 582, 1100, 1151, 1018, 446, 1136, 1649, 858
135980369, 14228, -6550, -2912, -3824, 2220, -856, -3756, 4063, -1191, -173, 423, 1032, 1120, 878, 361, 991, 1460, 741
135981198, 14228, -6550, -2912, -3824, 2220, -856, -3756, 4063, -1191, -173, 423, 1032, 1120, 878, 361, 991, 1460, 741
135987352, 14423, -6099, -3137, -3657, 2689, -660, -3867, 3089, -688, 115, 423, 1032, 1120, 878, 361, 991, 1460, 741
136002866, 14423, -6099, -3137, -3657, 2689, -660, -3867, 3089, -688, 115, 387, 912, 1036, 847, 316, 631, 1185, 621
136003667, 14423, -6099, -3137, -3657, 2689, -660, -3867, 3089, -688, 115, 387, 912, 1036, 847, 316, 631, 1185, 621
136009821, 14518, -5872, -3162, -3629, 2653, -596, -3091, 1377, 203, -38, 387, 912, 1036, 847, 316, 631, 1185, 621
136017860, 14518, -5872, -3162, -3629, 2653, -596, -3091, 1377, 203, -38, 280, 773, 935, 808, 302, 496, 1088, 536
136018697, 14518, -5872, -3162, -3629, 2653, -596, -3091, 1377, 203, -38, 280, 773, 935, 808, 302, 496, 1088, 536
136032187, 14490, -5940, -3057, -3720, 2495, -852, -1743, -619, 589, -205, 280, 773, 935, 808, 302, 496, 1088, 536
136040370, 14490, -5940, -3057, -3720, 2495, -852, -1743, -619, 589, -205, 239, 661, 815, 715, 256, 309, 958, 417
136041188, 14490, -5940, -3057, -3720, 2495, -852, -1743, -619, 589, -205, 239, 661, 815, 715, 256, 309, 958, 417
136047339, 14303, -6281, -3097, -3849, 2193, -1601, -745, -1355, 404, -366, 239, 661, 815, 715, 256, 309, 958, 417
136063321, 14303, -6281, -3097, -3849, 2193, -1601, -745, -1355, 404, -366, 242, 607, 638, 576, 221, 279, 749, 340
136064139, 14303, -6281, -3097, -3849, 2193, -1601, -745, -1355, 404, -366, 242, 607, 638, 576, 221, 279, 749, 340
136069821, 14164, -6491, -3195, -3933, 2085, -1823, -274, -583, 56, -441, 242, 607, 638, 576, 221, 279, 749, 340
136077867, 14164, -6491, -3195, -3933, 2085, -1823, -274, -583, 56, -441, 229, 539, 515, 544, 171, 222, 707, 330
136078672, 14164, -6491, -3195, -3933, 2085, -1823, -274, -583, 56, -441, 229, 539, 515, 544, 171, 222, 707, 330
136092245, 14069, -6581, -3388, -3963, 2051, -1506, -612, 269, -246, -386, 229, 539, 515, 544, 171, 222, 707, 330
136100381, 14069, -6581, -3388, -3963, 2051, -1506, -612, 269, -246, -386, 219, 540, 456, 473, 123, 207, 685, 311
136101162, 14069, -6581, -3388, -3963, 2051, -1506, -612, 269, -246, -386, 219, 540, 456, 473, 123, 207, 685, 311
136107311, 13989, -6634, -3622, -3952, 2188, -1408, -872, 616, -357, -254, 219, 540, 456, 473, 123, 207, 685, 311
136122838, 13989, -6634, -3622, -3952, 2188, -1408, -872, 616, -357, -254, 219, 505, 410, 489, 115, 183, 585, 308
136123689, 13989, -6634, -3622, -3952, 2188, -1408, -872, 616, -357, -254, 219, 505, 410, 489, 115, 183, 585, 308
136129814, 13890, -6720, -3864, -3928, 2262, -1412, -1088, 497, -413, -192, 219, 505, 410, 489, 115, 183, 585, 308
136137847, 13890, -6720, -3864, -3928, 2262, -1412, -1088, 497, -413, -192, 172, 476, 376, 424, 114, 173, 407, 202
136138677, 13890, -6720, -3864, -3928, 2262, -1412, -1088, 497, -413, -192, 172, 476, 376, 424, 114, 173, 407, 202
136152243, 13778, -6814, -4114, -3906, 2411, -1381, -1050, 395, -459, -189, 172, 476, 376, 424, 114, 173, 407, 202
136160342, 13778, -6814, -4114, -3906, 2411, -1381, -1050, 395, -459, -189, 120, 390, 350, 420, 94, 149, 374, 169
136161164, 13778, -6814, -4114, -3906, 2411, -1381, -1050, 395, -459, -189, 120, 390, 350, 420, 94, 149, 374, 169
136167302, 13661, -6906, -4346, -3902, 2396, -1250, -915, 243, -409, -225, 120, 390, 350, 420, 94, 149, 374, 169
136182838, 13661, -6906, -4346, -3902, 2396, -1250, -915, 243, -409, -225, 104, 332, 341, 346, 85, 116, 329, 123
136183643, 13661, -6906, -4346, -3902, 2396, -1250, -915, 243, -409, -225, 104, 332, 341, 346, 85, 116, 329, 123
136189822, 13547, -6991, -4551, -3914, 2368, -1259, -833, 187, -280, -278, 104, 332, 341, 346, 85, 116, 329, 123
136197843, 13547, -6991, -4551, -3914, 2368, -1259, -833, 187, -280, -278, 86, 278, 342, 327, 83, 96, 330, 108
136198670, 13547, -6991, -4551, -3914, 2368, -1259, -833, 187, -280, -278, 86, 278, 342, 327, 83, 96, 330, 108
136212246, 13426, -7089, -4738, -3932, 2337, -1427, -849, 110, -239, -339, 86, 278, 342, 327, 83, 96, 330, 108
136220342, 13426, -7089, -4738, -3932, 2337, -1427, -849, 110, -239, -339, 53, 197, 288, 216, 81, 75, 310, 75
136221162, 13426, -7089, -4738, -3932, 2337, -1427, -849, 110, -239, -339, 53, 197, 288, 216, 81, 75, 310, 75
136227314, 13302, -7179, -4943, -3940, 2359, -1324, -861, 132, -349, -326, 53, 197, 288, 216, 81, 75, 310, 75
136242902, 13302, -7179, -4943, -3940, 2359, -1324, -861, 132, -349, -326, 44, 174, 227, 197, 93, 86, 279, 69
136243701, 13302, -7179, -4943, -3940, 2359, -1324, -861, 132, -349, -326, 44, 174, 227, 197, 93, 86, 279, 69
136249874, 13188, -7222, -5199, -3916, 2435, -1268, -889, 471, -573, -342, 44, 174, 227, 197, 93, 86, 279, 69
136257846, 13188, -7222, -5199, -3916, 2435, -1268, -889, 471, -573, -342, 35, 144, 188, 151, 87, 77, 242, 46
136258661, 13188, -7222, -5199, -3916, 2435, -1268, -889, 471, -573, -342, 35, 144, 188, 151, 87, 77, 242, 46
136272221, 13074, -7239, -5491, -3869, 2523, -1267, -908, 661, -751, -381, 35, 144, 188, 151, 87, 77, 242, 46
136288547, 13074, -7239, -5491, -3869, 2523, -1267, -908, 661, -751, -381, 34, 133, 188, 129, 80, 73, 164, 40
136289347, 13074, -7239, -5491, -3869, 2523, -1267, -908, 661, -751, -381, 34, 133, 188, 129, 80, 73, 164, 40
136290300, 12956, -7232, -5814, -3806, 2512, -1254, -892, 799, -941, -463, 34, 133, 188, 129, 80, 73, 164, 40
136302864, 12956, -7232, -5814, -3806, 2512, -1254, -892, 799, -941, -463, 29, 84, 137, 90, 71, 64, 155, 38
136303680, 12956, -7232, -5814, -3806, 2512, -1254, -892, 799, -941, -463, 29, 84, 137, 90, 71, 64, 155, 38
136309851, 12833, -7192, -6179, -3719, 2492, -1222, -904, 1001, -1180, -567, 29, 84, 137, 90, 71, 64, 155, 38
136325373, 12833, -7192, -6179, -3719, 2492, -1222, -904, 1001, -1180, -567, 27, 95, 135, 73, 66, 63, 145, 28
136326171, 12833, -7192, -6179, -3719, 2492, -1222, -904, 1001, -1180, -567, 27, 95, 135, 73, 66, 63, 145, 28
136332320, 12698, -7118, -6595, -3613, 2487, -1153, -954, 1201, -1445, -703, 27, 95, 135, 73, 66, 63, 145, 28
136348581, 12698, -7118, -6595, -3613, 2487, -1153, -954, 1201, -1445, -703, 25, 113, 139, 59, 37, 39, 138, 24
136349389, 12698, -7118, -6595, -3613, 2487, -1153, -954, 1201, -1445, -703, 25, 113, 139, 59, 37, 39, 138, 24
136350328, 12619, -6947, -6980, -3496, 2590, -1117, -1015, 1396, -1709, -867, 25, 113, 139, 59, 37, 39, 138, 24
136362842, 12619, -6947, -6980, -3496, 2590, -1117, -1015, 1396, -1709, -867, 24, 186, 127, 47, 37, 48, 99, 22
136363659, 12619, -6947, -6980, -3496, 2590, -1117, -1015, 1396, -1709, -867, 24, 186, 127, 47, 37, 48, 99, 22
136369820, 12509, -6759, -7410, -3372, 2675, -1003, -1115, 1460, -1965, -1016, 24, 186, 127, 47, 37, 48, 99, 22
136385397, 12509, -6759, -7410, -3372, 2675, -1003, -1115, 1460, -1965, -1016, 21, 263, 90, 39, 89, 101, 78, 25
136386198, 12509, -6759, -7410, -3372, 2675, -1003, -1115, 1460, -1965, -1016, 21, 263, 90, 39, 89, 101, 78, 25
136392341, 12365, -6562, -7872, -3242, 2762, -912, -1075, 1459, -2208, -1129, 21, 263, 90, 39, 89, 101, 78, 25
136408547, 12365, -6562, -7872, -3242, 2762, -912, -1075, 1459, -2208, -1129, 25, 329, 91, 38, 102, 126, 53, 26
136409343, 12365, -6562, -7872, -3242, 2762, -912, -1075, 1459, -2208, -1129, 25, 329, 91, 38, 102, 126, 53, 26
136410298, 12193, -6354, -8355, -3098, 2795, -908, -1058, 1496, -2398, -1180, 25, 329, 91, 38, 102, 126, 53, 26
136422863, 12193, -6354, -8355, -3098, 2795, -908, -1058, 1496, -2398, -1180, 26, 350, 87, 54, 102, 128, 39, 26
136423671, 12193, -6354, -8355, -3098, 2795, -908, -1058, 1496, -2398, -1180, 26, 350, 87, 54, 102, 128, 39, 26
136429844, 11994, -6127, -8856, -2934, 2871, -1001, -1147, 1587, -2580, -1247, 26, 350, 87, 54, 102, 128, 39, 26
136445372, 11994, -6127, -8856, -2934, 2871, -1001, -1147, 1587, -2580, -1247, 37, 349, 69, 56, 103, 133, 39, 27
136446177, 11994, -6127, -8856, -2934, 2871, -1001, -1147, 1587, -2580, -1247, 37, 349, 69, 56, 103, 133, 39, 27
136452355, 11767, -5883, -9361, -2781, 3069, -767, -1323, 1561, -2627, -1358, 37, 349, 69, 56, 103, 133, 39, 27
136468272, 11767, -5883, -9361, -2781, 3069, -767, -1323, 1561, -2627, -1358, 39, 447, 62, 121, 104, 128, 40, 29
136469072, 11767, -5883, -9361, -2781, 3069, -767, -1323, 1561, -2627, -1358, 39, 447, 62, 121, 104, 128, 40, 29
136475294, 11529, -5632, -9836, -2659, 3293, -612, -1314, 1429, -2492, -1439, 39, 447, 62, 121, 104, 128, 40, 29
136482866, 11529, -5632, -9836, -2659, 3293, -612, -1314, 1429, -2492, -1439, 57, 448, 69, 163, 76, 96, 34, 26
136483673, 11529, -5632, -9836, -2659, 3293, -612, -1314, 1429, -2492, -1439, 57, 448, 69, 163, 76, 96, 34, 26
136489828, 11282, -5375, -10287, -2541, 3320, -665, -1052, 1380, -2465, -1459, 57, 448, 69, 163, 76, 96, 34, 26
136505330, 11282, -5375, -10287, -2541, 3320, -665, -1052, 1380, -2465, -1459, 74, 410, 74, 175, 69, 63, 31, 27
136506153, 11282, -5375, -10287, -2541, 3320, -665, -1052, 1380, -2465, -1459, 74, 410, 74, 175, 69, 63, 31, 27
136512319, 11007, -5103, -10756, -2358, 3403, -688, -879, 1620, -2784, -1333, 74, 410, 74, 175, 69, 63, 31, 27
136528571, 11007, -5103, -10756, -2358, 3403, -688, -879, 1620, -2784, -1333, 74, 390, 77, 174, 69, 58, 32, 26
136529360, 11007, -5103, -10756, -2358, 3403, -688, -879, 1620, -2784, -1333, 74, 390, 77, 174, 69, 58, 32, 26
136530322, 10709, -4797, -11241, -2091, 3598, -604, -1124, 2024, -3051, -1180, 74, 390, 77, 174, 69, 58, 32, 26
136542845, 10709, -4797, -11241, -2091, 3598, -604, -1124, 2024, -3051, -1180, 71, 440, 81, 175, 68, 46, 33, 27
136543653, 10709, -4797, -11241, -2091, 3598, -604, -1124, 2024, -3051, -1180, 71, 440, 81, 175, 68, 46, 33, 27
136549824, 10398, -4497, -11692, -1840, 3747, -346, -1374, 1902, -2950, -1145, 71, 440, 81, 175, 68, 46, 33, 27
136565400, 10398, -4497, -11692, -1840, 3747, -346, -1374, 1902, -2950, -1145, 71, 384, 83, 142, 63, 43, 35, 28
136566186, 10398, -4497, -11692, -1840, 3747, -346, -1374, 1902, -2950, -1145, 71, 384, 83, 142, 63, 43, 35, 28
136572348, 10129, -4185, -12075, -1594, 3979, -417, -1286, 1935, -2571, -1090, 71, 384, 83, 142, 63, 43, 35, 28
136588540, 10129, -4185, -12075, -1594, 3979, -417, -1286, 1935, -2571, -1090, 67, 382, 85, 95, 50, 32, 34, 30
136589336, 10129, -4185, -12075, -1594, 3979, -417, -1286, 1935, -2571, -1090, 67, 382, 85, 95, 50, 32, 34, 30
136590285, 9877, -3875, -12412, -1349, 3997, -537, -1047, 1910, -2394, -1032, 67, 382, 85, 95, 50, 32, 34, 30
136602862, 9877, -3875, -12412, -1349, 3997, -537, -1047, 1910, -2394, -1032, 85, 458, 135, 202, 35, 29, 33, 32
136603671, 9877, -3875, -12412, -1349, 3997, -537, -1047, 1910, -2394, -1032, 85, 458, 135, 202, 35, 29, 33, 32
136609847, 9627, -3554, -12723, -1115, 3961, -234, -1035, 1897, -2300, -1051, 85, 458, 135, 202, 35, 29, 33, 32
136625373, 9627, -3554, -12723, -1115, 3961, -234, -1035, 1897, -2300, -1051, 87, 493, 187, 266, 47, 32, 36, 35
136626175, 9627, -3554, -12723, -1115, 3961, -234, -1035, 1897, -2300, -1051, 87, 493, 187, 266, 47, 32, 36, 35
136632325, 9350, -3269, -13017, -936, 3962, 247, -1256, 1521, -2307, -1006, 87, 493, 187, 266, 47, 32, 36, 35
136648565, 9350, -3269, -13017, -936, 3962, 247, -1256, 1521, -2307, -1006, 86, 464, 194, 275, 50, 34, 35, 34
136649416, 9350, -3269, -13017, -936, 3962, 247, -1256, 1521, -2307, -1006, 86, 464, 194, 275, 50, 34, 35, 34
136650330, 9070, -3038, -13277, -818, 4116, 404, -1326, 1075, -2187, -906, 86, 464, 194, 275, 50, 34, 35, 34
136662853, 9070, -3038, -13277, -818, 4116, 404, -1326, 1075, -2187, -906, 86, 416, 194, 280, 56, 36, 31, 30
136663671, 9070, -3038, -13277, -818, 4116, 404, -1326, 1075, -2187, -906, 86, 416, 194, 280, 56, 36, 31, 30
136669825, 8805, -2856, -13498, -748, 4306, 126, -1327, 692, -1991, -836, 86, 416, 194, 280, 56, 36, 31, 30
136685348, 8805, -2856, -13498, -748, 4306, 126, -1327, 692, -1991, -836, 79, 377, 191, 280, 55, 36, 28, 29
136686138, 8805, -2856, -13498, -748, 4306, 126, -1327, 692, -1991, -836, 79, 377, 191, 280, 55, 36, 28, 29
136699819, 8565, -2682, -13690, -691, 4399, 82, -1170, 618, -1826, -806, 79, 377, 191, 280, 55, 36, 28, 29
136708574, 8565, -2682, -13690, -691, 4399, 82, -1170, 618, -1826, -806, 36, 275, 158, 208, 54, 34, 28, 27
136709385, 8565, -2682, -13690, -691, 4399, 82, -1170, 618, -1826, -806, 36, 275, 158, 208, 54, 34, 28, 27
136710312, 8351, -2500, -13859, -604, 4492, 118, -1071, 803, -1696, -733, 36, 275, 158, 208, 54, 34, 28, 27