Timestamp, Orientation x, Orientation y, Orientation z, Orientation w, Acceleration x, Acceleration y, Acceleration z, Rotation x, Rotation y, Rotation z, EMG 0, EMG 1, EMG 2, EMG 3, EMG 4, EMG 5, EMG 6, EMG 7
114409852, 8720, 788, -13846, -249, 4018, 107, -1820, 10, 20, 36, 0, 0, 0, 0, 0, 0, 0, 0
114417330, 8729, 772, -13842, -223, 3997, 94, -1813, 25, 11, 35, 0, 0, 0, 0, 0, 0, 0, 0
114432321, 8736, 760, -13838, -193, 4013, 78, -1820, 51, -5, 27, 0, 0, 0, 0, 0, 0, 0, 0
114454847, 8741, 755, -13836, -164, 4040, 111, -1841, 74, -10, 16, 0, 0, 0, 0, 0, 0, 0, 0
114478675, 8746, 752, -13834, -137, 4073, 137, -1856, 86, -11, 13, 0, 0, 0, 0, 0, 0, 0, 0
114479469, 8746, 752, -13834, -137, 4073, 137, -1856, 86, -11, 13, 39, 285, 96, 41, 42, 23, 26, 45
114480290, 8746, 752, -13834, -137, 4073, 137, -1856, 86, -11, 13, 39, 285, 96, 41, 42, 23, 26, 45
114492325, 8751, 750, -13830, -112, 4072, 142, -1854, 83, -3, 21, 39, 285, 96, 41, 42, 23, 26, 45
114500414, 8751, 750, -13830, -112, 4072, 142, -1854, 83, -3, 21, 39, 306, 92, 46, 44, 26, 26, 28
114501243, 8751, 750, -13830, -112, 4072, 142, -1854, 83, -3, 21, 39, 306, 92, 46, 44, 26, 26, 28
114514838, 8757, 748, -13827, -84, 4083, 134, -1861, 95, 4, 29, 39, 306, 92, 46, 44, 26, 26, 28
114522915, 8757, 748, -13827, -84, 4083, 134, -1861, 95, 4, 29, 38, 286, 86, 44, 38, 26, 26, 27
114523736, 8757, 748, -13827, -84, 4083, 134, -1861, 95, 4, 29, 38, 286, 86, 44, 38, 26, 26, 27
114538619, 8764, 746, -13823, -54, 4081, 141, -1857, 110, 13, 43, 38, 286, 86, 44, 38, 26, 26, 27
114539437, 8764, 746, -13823, -54, 4081, 141, -1857, 110, 13, 43, 38, 283, 82, 44, 35, 24, 26, 29
114540260, 8764, 746, -13823, -54, 4081, 141, -1857, 110, 13, 43, 38, 283, 82, 44, 35, 24, 26, 29
114552284, 8773, 745, -13817, -27, 4077, 175, -1859, 109, 30, 53, 38, 283, 82, 44, 35, 24, 26, 29
114567936, 8773, 745, -13817, -27, 4077, 175, -1859, 109, 30, 53, 37, 236, 71, 46, 37, 23, 26, 27
114568739, 8773, 745, -13817, -27, 4077, 175, -1859, 109, 30, 53, 37, 236, 71, 46, 37, 23, 26, 27
114574884, 8786, 743, -13809, -12, 4069, 253, -1845, 70, 52, 70, 37, 236, 71, 46, 37, 23, 26, 27
114582937, 8786, 743, -13809, -12, 4069, 253, -1845, 70, 52, 70, 34, 225, 113, 40, 31, 22, 24, 27
114583902, 8786, 743, -13809, -12, 4069, 253, -1845, 70, 52, 70, 34, 225, 113, 40, 31, 22, 24, 27
114598658, 8804, 724, -13799, -15, 4076, 281, -1809, -60, 71, 105, 34, 225, 113, 40, 31, 22, 24, 27
114599460, 8804, 724, -13799, -15, 4076, 281, -1809, -60, 71, 105, 29, 112, 114, 44, 29, 20, 23, 27
114600282, 8804, 724, -13799, -15, 4076, 281, -1809, -60, 71, 105, 29, 112, 114, 44, 29, 20, 23, 27
114612310, 8826, 677, -13787, -50, 4099, 300, -1758, -288, 56, 156, 29, 112, 114, 44, 29, 20, 23, 27
114620436, 8826, 677, -13787, -50, 4099, 300, -1758, -288, 56, 156, 26, 82, 170, 44, 34, 25, 24, 27
114621230, 8826, 677, -13787, -50, 4099, 300, -1758, -288, 56, 156, 26, 82, 170, 44, 34, 25, 24, 27
114634840, 8860, 587, -13769, -109, 4194, 280, -1787, -544, 129, 262, 26, 82, 170, 44, 34, 25, 24, 27
114642914, 8860, 587, -13769, -109, 4194, 280, -1787, -544, 129, 262, 28, 80, 214, 49, 40, 27, 90, 34
114643724, 8860, 587, -13769, -109, 4194, 280, -1787, -544, 129, 262, 28, 80, 214, 49, 40, 27, 90, 34
114658611, 8910, 462, -13741, -176, 4231, 270, -1729, -687, 218, 407, 28, 80, 214, 49, 40, 27, 90, 34
114659433, 8910, 462, -13741, -176, 4231, 270, -1729, -687, 218, 407, 27, 70, 242, 74, 48, 90, 183, 37
114660258, 8910, 462, -13741, -176, 4231, 270, -1729, -687, 218, 407, 27, 70, 242, 74, 48, 90, 183, 37
114672283, 8986, 293, -13695, -231, 4271, 137, -1581, -796, 333, 590, 27, 70, 242, 74, 48, 90, 183, 37
114680462, 8986, 293, -13695, -231, 4271, 137, -1581, -796, 333, 590, 34, 74, 306, 95, 58, 107, 208, 43
114681269, 8986, 293, -13695, -231, 4271, 137, -1581, -796, 333, 590, 34, 74, 306, 95, 58, 107, 208, 43
114694832, 9081, 69, -13635, -264, 4319, 41, -1588, -875, 496, 895, 34, 74, 306, 95, 58, 107, 208, 43
114702968, 9081, 69, -13635, -264, 4319, 41, -1588, -875, 496, 895, 38, 96, 312, 106, 86, 151, 219, 48
114703758, 9081, 69, -13635, -264, 4319, 41, -1588, -875, 496, 895, 38, 96, 312, 106, 86, 151, 219, 48
114718661, 9202, -204, -13552, -254, 4309, -122, -1474, -845, 667, 1220, 38, 96, 312, 106, 86, 151, 219, 48
114719481, 9202, -204, -13552, -254, 4309, -122, -1474, -845, 667, 1220, 43, 99, 345, 137, 115, 284, 243, 121
114720283, 9202, -204, -13552, -254, 4309, -122, -1474, -845, 667, 1220, 43, 99, 345, 137, 115, 284, 243, 121
114732335, 9346, -532, -13446, -165, 4320, -509, -1457, -702, 884, 1595, 43, 99, 345, 137, 115, 284, 243, 121
114740438, 9346, -532, -13446, -165, 4320, -509, -1457, -702, 884, 1595, 43, 106, 362, 157, 159, 448, 252, 191
114741258, 9346, -532, -13446, -165, 4320, -509, -1457, -702, 884, 1595, 43, 106, 362, 157, 159, 448, 252, 191
114754834, 9501, -855, -13321, -11, 4340, -611, -1409, -321, 1051, 1966, 43, 106, 362, 157, 159, 448, 252, 191
114762907, 9501, -855, -13321, -11, 4340, -611, -1409, -321, 1051, 1966, 42, 120, 349, 156, 281, 637, 201, 252
114763742, 9501, -855, -13321, -11, 4340, -611, -1409, -321, 1051, 1966, 42, 120, 349, 156, 281, 637, 201, 252
114778640, 9673, -1223, -13166, 191, 4322, -667, -1386, -236, 1227, 2352, 42, 120, 349, 156, 281, 637, 201, 252
114779429, 9673, -1223, -13166, 191, 4322, -667, -1386, -236, 1227, 2352, 38, 120, 304, 162, 331, 780, 181, 304
114780254, 9673, -1223, -13166, 191, 4322, -667, -1386, -236, 1227, 2352, 38, 120, 304, 162, 331, 780, 181, 304
114792316, 9869, -1662, -12965, 420, 4308, -675, -1497, -318, 1510, 2810, 38, 120, 304, 162, 331, 780, 181, 304
114800465, 9869, -1662, -12965, 420, 4308, -675, -1497, -318, 1510, 2810, 38, 112, 333, 212, 362, 816, 177, 418
114801286, 9869, -1662, -12965, 420, 4308, -675, -1497, -318, 1510, 2810, 38, 112, 333, 212, 362, 816, 177, 418
114814833, 10079, -2150, -12718, 692, 4165, -890, -1470, -269, 1732, 3204, 38, 112, 333, 212, 362, 816, 177, 418
114822961, 10079, -2150, -12718, 692, 4165, -890, -1470, -269, 1732, 3204, 48, 136, 338, 228, 385, 839, 152, 535
114823834, 10079, -2150, -12718, 692, 4165, -890, -1470, -269, 1732, 3204, 48, 136, 338, 228, 385, 839, 152, 535
114846138, 10277, -2698, -12431, 1010, 3982, -1137, -1571, -267, 1834, 3657, 48, 136, 338, 228, 385, 839, 152, 535
114846961, 10277, -2698, -12431, 1010, 3982, -1137, -1571, -267, 1834, 3657, 53, 163, 318, 231, 386, 859, 136, 528
114847838, 10277, -2698, -12431, 1010, 3982, -1137, -1571, -267, 1834, 3657, 53, 163, 318, 231, 386, 859, 136, 528
114852391, 10458, -3246, -12108, 1388, 3710, -1147, -1548, 11, 1854, 3938, 53, 163, 318, 231, 386, 859, 136, 528
114860437, 10458, -3246, -12108, 1388, 3710, -1147, -1548, 11, 1854, 3938, 79, 162, 374, 231, 320, 761, 139, 581
114861262, 10458, -3246, -12108, 1388, 3710, -1147, -1548, 11, 1854, 3938, 79, 162, 374, 231, 320, 761, 139, 581
114874844, 10614, -3792, -11757, 1785, 3353, -1260, -1631, 104, 1853, 4055, 79, 162, 374, 231, 320, 761, 139, 581
114882912, 10614, -3792, -11757, 1785, 3353, -1260, -1631, 104, 1853, 4055, 127, 167, 391, 226, 272, 628, 144, 642
114883748, 10614, -3792, -11757, 1785, 3353, -1260, -1631, 104, 1853, 4055, 127, 167, 391, 226, 272, 628, 144, 642
114897327, 10748, -4327, -11377, 2186, 3232, -1265, -1570, 167, 1863, 4102, 127, 167, 391, 226, 272, 628, 144, 642
114905413, 10748, -4327, -11377, 2186, 3232, -1265, -1570, 167, 1863, 4102, 223, 220, 418, 188, 229, 577, 143, 648
114906239, 10748, -4327, -11377, 2186, 3232, -1265, -1570, 167, 1863, 4102, 223, 220, 418, 188, 229, 577, 143, 648
114912387, 10849, -4877, -10974, 2551, 3064, -1251, -1594, -39, 1891, 4111, 223, 220, 418, 188, 229, 577, 143, 648
114920441, 10849, -4877, -10974, 2551, 3064, -1251, -1594, -39, 1891, 4111, 359, 244, 412, 177, 212, 522, 141, 643
114921237, 10849, -4877, -10974, 2551, 3064, -1251, -1594, -39, 1891, 4111, 359, 244, 412, 177, 212, 522, 141, 643
114934849, 10927, -5428, -10554, 2860, 2941, -1058, -1542, -260, 1959, 4005, 359, 244, 412, 177, 212, 522, 141, 643
114942907, 10927, -5428, -10554, 2860, 2941, -1058, -1542, -260, 1959, 4005, 448, 266, 508, 173, 186, 373, 137, 708
114943745, 10927, -5428, -10554, 2860, 2941, -1058, -1542, -260, 1959, 4005, 448, 266, 508, 173, 186, 373, 137, 708
114957315, 10971, -6040, -10123, 3019, 2706, -835, -1430, -1073, 2197, 3741, 448, 266, 508, 173, 186, 373, 137, 708
114965409, 10971, -6040, -10123, 3019, 2706, -835, -1430, -1073, 2197, 3741, 465, 327, 589, 245, 184, 298, 133, 734
114966225, 10971, -6040, -10123, 3019, 2706, -835, -1430, -1073, 2197, 3741, 465, 327, 589, 245, 184, 298, 133, 734
114972384, 10942, -6731, -9713, 3010, 2578, -892, -1388, -2125, 2285, 3415, 465, 327, 589, 245, 184, 298, 133, 734
114980408, 10942, -6731, -9713, 3010, 2578, -892, -1388, -2125, 2285, 3415, 486, 515, 757, 349, 195, 274, 159, 811
114981234, 10942, -6731, -9713, 3010, 2578, -892, -1388, -2125, 2285, 3415, 486, 515, 757, 349, 195, 274, 159, 811
114994833, 10799, -7409, -9392, 2952, 2536, -1459, -1802, -2544, 1693, 3076, 486, 515, 757, 349, 195, 274, 159, 811
115002907, 10799, -7409, -9392, 2952, 2536, -1459, -1802, -2544, 1693, 3076, 466, 793, 786, 497, 202, 283, 203, 934
115003714, 10799, -7409, -9392, 2952, 2536, -1459, -1802, -2544, 1693, 3076, 466, 793, 786, 497, 202, 283, 203, 934
115017295, 10673, -7897, -9121, 2997, 2734, -1641, -1574, -1545, 1067, 2725, 466, 793, 786, 497, 202, 283, 203, 934
115025460, 10673, -7897, -9121, 2997, 2734, -1641, -1574, -1545, 1067, 2725, 444, 891, 793, 527, 218, 241, 324, 962
115026288, 10673, -7897, -9121, 2997, 2734, -1641, -1574, -1545, 1067, 2725, 444, 891, 793, 527, 218, 241, 324, 962
115032445, 10671, -8166, -8861, 3062, 2502, -1329, -1494, -359, 1118, 1972, 444, 891, 793, 527, 218, 241, 324, 962
115040409, 10671, -8166, -8861, 3062, 2502, -1329, -1494, -359, 1118, 1972, 489, 979, 738, 535, 230, 200, 440, 1089
115041235, 10671, -8166, -8861, 3062, 2502, -1329, -1494, -359, 1118, 1972, 489, 979, 738, 535, 230, 200, 440, 1089
115054845, 10726, -8248, -8753, 2955, 2456, -884, -1313, 231, 1220, 996, 489, 979, 738, 535, 230, 200, 440, 1089
115062972, 10726, -8248, -8753, 2955, 2456, -884, -1313, 231, 1220, 996, 500, 987, 650, 532, 222, 248, 516, 1120
115063832, 10726, -8248, -8753, 2955, 2456, -884, -1313, 231, 1220, 996, 500, 987, 650, 532, 222, 248, 516, 1120
115077291, 10698, -8316, -8771, 2808, 2569, -824, -1154, -282, 547, 596, 500, 987, 650, 532, 222, 248, 516, 1120
115085465, 10698, -8316, -8771, 2808, 2569, -824, -1154, -282, 547, 596, 507, 1021, 426, 516, 246, 264, 517, 1113
115086265, 10698, -8316, -8771, 2808, 2569, -824, -1154, -282, 547, 596, 507, 1021, 426, 516, 246, 264, 517, 1113
115092425, 10605, -8391, -8851, 2689, 2632, -1462, -1400, -410, 100, 451, 507, 1021, 426, 516, 246, 264, 517, 1113
115100458, 10605, -8391, -8851, 2689, 2632, -1462, -1400, -410, 100, 451, 591, 884, 303, 442, 256, 253, 518, 1043
115101278, 10605, -8391, -8851, 2689, 2632, -1462, -1400, -410, 100, 451, 591, 884, 303, 442, 256, 253, 518, 1043
115114851, 10568, -8379, -8928, 2614, 2360, -1590, -1448, 210, 95, 120, 591, 884, 303, 442, 256, 253, 518, 1043
115122973, 10568, -8379, -8928, 2614, 2360, -1590, -1448, 210, 95, 120, 580, 817, 214, 415, 227, 240, 466, 999
115123840, 10568, -8379, -8928, 2614, 2360, -1590, -1448, 210, 95, 120, 580, 817, 214, 415, 227, 240, 466, 999
115137299, 10531, -8329, -9034, 2559, 2299, -1524, -1480, 384, -94, -31, 580, 817, 214, 415, 227, 240, 466, 999
115145440, 10531, -8329, -9034, 2559, 2299, -1524, -1480, 384, -94, -31, 557, 714, 163, 417, 233, 255, 377, 835
115146269, 10531, -8329, -9034, 2559, 2299, -1524, -1480, 384, -94, -31, 557, 714, 163, 417, 233, 255, 377, 835
115152411, 10464, -8301, -9145, 2532, 2192, -1686, -1473, 268, -270, 33, 557, 714, 163, 417, 233, 255, 377, 835
115160459, 10464, -8301, -9145, 2532, 2192, -1686, -1473, 268, -270, 33, 579, 696, 132, 393, 233, 237, 341, 769
115161254, 10464, -8301, -9145, 2532, 2192, -1686, -1473, 268, -270, 33, 579, 696, 132, 393, 233, 237, 341, 769
115174840, 10403, -8262, -9243, 2553, 2108, -1999, -1432, 435, -355, 70, 579, 696, 132, 393, 233, 237, 341, 769
115182942, 10403, -8262, -9243, 2553, 2108, -1999, -1432, 435, -355, 70, 585, 528, 86, 342, 193, 212, 459, 675
115183749, 10403, -8262, -9243, 2553, 2108, -1999, -1432, 435, -355, 70, 585, 528, 86, 342, 193, 212, 459, 675
115197332, 10389, -8178, -9300, 2672, 1912, -2185, -1366, 1031, -387, 205, 585, 528, 86, 342, 193, 212, 459, 675
115205429, 10389, -8178, -9300, 2672, 1912, -2185, -1366, 1031, -387, 205, 544, 494, 107, 260, 162, 198, 558, 655
115206256, 10389, -8178, -9300, 2672, 1912, -2185, -1366, 1031, -387, 205, 544, 494, 107, 260, 162, 198, 558, 655
115212411, 10381, -8062, -9338, 2910, 1523, -2252, -1393, 1582, -620, 401, 544, 494, 107, 260, 162, 198, 558, 655
115220458, 10381, -8062, -9338, 2910, 1523, -2252, -1393, 1582, -620, 401, 591, 484, 131, 230, 140, 201, 738, 819
115221261, 10381, -8062, -9338, 2910, 1523, -2252, -1393, 1582, -620, 401, 591, 484, 131, 230, 140, 201, 738, 819
115234832, 10439, -7826, -9357, 3264, 1308, -2044, -1187, 2211, -1028, 396, 591, 484, 131, 230, 140, 201, 738, 819
115242954, 10439, -7826, -9357, 3264, 1308, -2044, -1187, 2211, -1028, 396, 559, 575, 362, 231, 108, 200, 883, 949
115243757, 10439, -7826, -9357, 3264, 1308, -2044, -1187, 2211, -1028, 396, 559, 575, 362, 231, 108, 200, 883, 949
115257417, 10500, -7487, -9413, 3679, 1512, -1741, -984, 2730, -1437, 226, 559, 575, 362, 231, 108, 200, 883, 949
115265461, 10500, -7487, -9413, 3679, 1512, -1741, -984, 2730, -1437, 226, 624, 645, 607, 217, 103, 177, 867, 1026
115266263, 10500, -7487, -9413, 3679, 1512, -1741, -984, 2730, -1437, 226, 624, 645, 607, 217, 103, 177, 867, 1026
115272409, 10532, -7089, -9494, 4139, 1591, -1545, -958, 2987, -1808, 203, 624, 645, 607, 217, 103, 177, 867, 1026
115280467, 10532, -7089, -9494, 4139, 1591, -1545, -958, 2987, -1808, 203, 637, 670, 673, 238, 118, 190, 899, 1077
115281284, 10532, -7089, -9494, 4139, 1591, -1545, -958, 2987, -1808, 203, 637, 670, 673, 238, 118, 190, 899, 1077
115294845, 10541, -6651, -9598, 4580, 1686, -1210, -1002, 2991, -1969, 9, 637, 670, 673, 238, 118, 190, 899, 1077
115302976, 10541, -6651, -9598, 4580, 1686, -1210, -1002, 2991, -1969, 9, 614, 727, 771, 326, 133, 196, 938, 1101
115303839, 10541, -6651, -9598, 4580, 1686, -1210, -1002, 2991, -1969, 9, 614, 727, 771, 326, 133, 196, 938, 1101
115317325, 10536, -6165, -9715, 5003, 1793, -1069, -1006, 3058, -2092, -192, 614, 727, 771, 326, 133, 196, 938, 1101
115325444, 10536, -6165, -9715, 5003, 1793, -1069, -1006, 3058, -2092, -192, 576, 769, 886, 354, 140, 201, 846, 1097
115326275, 10536, -6165, -9715, 5003, 1793, -1069, -1006, 3058, -2092, -192, 576, 769, 886, 354, 140, 201, 846, 1097
115332405, 10548, -5629, -9838, 5357, 1907, -1547, -1269, 3072, -1966, -680, 576, 769, 886, 354, 140, 201, 846, 1097
115340451, 10548, -5629, -9838, 5357, 1907, -1547, -1269, 3072, -1966, -680, 579, 778, 965, 387, 158, 200, 824, 1158
115341259, 10548, -5629, -9838, 5357, 1907, -1547, -1269, 3072, -1966, -680, 579, 778, 965, 387, 158, 200, 824, 1158
115354849, 10548, -4993, -9969, 5732, 2023, -1230, -1189, 3452, -2255, -899, 579, 778, 965, 387, 158, 200, 824, 1158
115362964, 10548, -4993, -9969, 5732, 2023, -1230, -1189, 3452, -2255, -899, 542, 911, 928, 411, 164, 228, 962, 1184
115363740, 10548, -4993, -9969, 5732, 2023, -1230, -1189, 3452, -2255, -899, 542, 911, 928, 411, 164, 228, 962, 1184
115377344, 10488, -4346, -10144, 6052, 2131, -1150, -1194, 3120, -2534, -1089, 542, 911, 928, 411, 164, 228, 962, 1184
115385436, 10488, -4346, -10144, 6052, 2131, -1150, -1194, 3120, -2534, -1089, 526, 997, 980, 458, 157, 245, 987, 1331
115386231, 10488, -4346, -10144, 6052, 2131, -1150, -1194, 3120, -2534, -1089, 526, 997, 980, 458, 157, 245, 987, 1331
115392387, 10405, -3659, -10327, 6335, 2174, -869, -1259, 3083, -2655, -1310, 526, 997, 980, 458, 157, 245, 987, 1331
115407906, 10405, -3659, -10327, 6335, 2174, -869, -1259, 3083, -2655, -1310, 509, 1023, 948, 457, 155, 250, 922, 1398
115408741, 10405, -3659, -10327, 6335, 2174, -869, -1259, 3083, -2655, -1310, 509, 1023, 948, 457, 155, 250, 922, 1398
115414899, 10273, -2953, -10545, 6556, 2333, -1151, -1239, 2792, -2912, -1553, 509, 1023, 948, 457, 155, 250, 922, 1398
115430407, 10273, -2953, -10545, 6556, 2333, -1151, -1239, 2792, -2912, -1553, 461, 1107, 949, 507, 157, 234, 896, 1324
115431229, 10273, -2953, -10545, 6556, 2333, -1151, -1239, 2792, -2912, -1553, 461, 1107, 949, 507, 157, 234, 896, 1324
115437378, 10141, -2157, -10749, 6738, 2447, -816, -1317, 2994, -3009, -1976, 461, 1107, 949, 507, 157, 234, 896, 1324
115445434, 10141, -2157, -10749, 6738, 2447, -816, -1317, 2994, -3009, -1976, 433, 1124, 887, 490, 133, 221, 861, 1273
115446235, 10141, -2157, -10749, 6738, 2447, -816, -1317, 2994, -3009, -1976, 433, 1124, 887, 490, 133, 221, 861, 1273
115452383, 9944, -1390, -11028, 6783, 2590, -771, -1335, 2164, -3332, -2254, 433, 1124, 887, 490, 133, 221, 861, 1273
115467907, 9944, -1390, -11028, 6783, 2590, -771, -1335, 2164, -3332, -2254, 480, 1135, 924, 496, 143, 207, 826, 1217
115468732, 9944, -1390, -11028, 6783, 2590, -771, -1335, 2164, -3332, -2254, 480, 1135, 924, 496, 143, 207, 826, 1217
115474885, 9752, -605, -11288, 6750, 3039, -861, -1252, 1960, -3269, -2585, 480, 1135, 924, 496, 143, 207, 826, 1217
115490412, 9752, -605, -11288, 6750, 3039, -861, -1252, 1960, -3269, -2585, 685, 1222, 910, 467, 164, 189, 793, 1011
115491231, 9752, -605, -11288, 6750, 3039, -861, -1252, 1960, -3269, -2585, 685, 1222, 910, 467, 164, 189, 793, 1011
115497385, 9552, 239, -11486, 6723, 3418, -641, -1125, 2297, -3250, -2735, 685, 1222, 910, 467, 164, 189, 793, 1011
115505413, 9552, 239, -11486, 6723, 3418, -641, -1125, 2297, -3250, -2735, 846, 1226, 977, 499, 185, 202, 807, 910
115506234, 9552, 239, -11486, 6723, 3418, -641, -1125, 2297, -3250, -2735, 846, 1226, 977, 499, 185, 202, 807, 910
115512381, 9302, 1114, -11669, 6669, 4009, -26, -1392, 2334, -3455, -2744, 846, 1226, 977, 499, 185, 202, 807, 910
115527924, 9302, 1114, -11669, 6669, 4009, -26, -1392, 2334, -3455, -2744, 1056, 1283, 1070, 468, 196, 230, 864, 913
115528719, 9302, 1114, -11669, 6669, 4009, -26, -1392, 2334, -3455, -2744, 1056, 1283, 1070, 468, 196, 230, 864, 913
115534893, 9042, 1882, -11786, 6650, 4632, 743, -1916, 2199, -3170, -2486, 1056, 1283, 1070, 468, 196, 230, 864, 913
115550467, 9042, 1882, -11786, 6650, 4632, 743, -1916, 2199, -3170, -2486, 1068, 1298, 1142, 579, 221, 669, 892, 865
115551294, 9042, 1882, -11786, 6650, 4632, 743, -1916, 2199, -3170, -2486, 1068, 1298, 1142, 579, 221, 669, 892, 865
115567565, 8843, 2487, -11834, 6632, 4777, 2092, -1725, 1815, -2338, -2011, 1068, 1298, 1142, 579, 221, 669, 892, 865
115568358, 8843, 2487, -11834, 6632, 4777, 2092, -1725, 1815, -2338, -2011, 1018, 1246, 1151, 582, 216, 851, 951, 886
115569182, 8843, 2487, -11834, 6632, 4777, 2092, -1725, 1815, -2338, -2011, 1018, 1246, 1151, 582, 216, 851, 951, 886
115569979, 8843, 2487, -11834, 6632, 4777, 2092, -1725, 1815, -2338, -2011, 1018, 1246, 1151, 582, 216, 851, 951, 886
115574926, 8843, 2487, -11834, 6632, 4777, 2092, -1725, 1815, -2338, -2011, 1018, 1246, 1151, 582, 216, 851, 951, 886
115575745, 8843, 2487, -11834, 6632, 4777, 2092, -1725, 1815, -2338, -2011, 1018, 1246, 1151, 582, 216, 851, 951, 886
115576576, 8843, 2487, -11834, 6632, 4777, 2092, -1725, 1815, -2338, -2011, 1018, 1246, 1151, 582, 216, 851, 951, 886
115577381, 8843, 2487, -11834, 6632, 4777, 2092, -1725, 1815, -2338, -2011, 1018, 1246, 1151, 582, 216, 851, 951, 886
115581159, 8843, 2487, -11834, 6632, 4777, 2092, -1725, 1815, -2338, -2011, 1018, 1246, 1151, 582, 216, 851, 951, 886
115582084, 8843, 2487, -11834, 6632, 4777, 2092, -1725, 1815, -2338, -2011, 1018, 1246, 1151, 582, 216, 851, 951, 886
115582912, 8714, 2791, -11937, 6496, 4713, 2682, -1209, 244, -1636, -1263, 1018, 1246, 1151, 582, 216, 851, 951, 886
115590031, 8714, 2791, -11937, 6496, 4713, 2682, -1209, 244, -1636, -1263, 883, 1246, 1221, 581, 207, 1027, 997, 959
115590835, 8714, 2791, -11937, 6496, 4713, 2682, -1209, 244, -1636, -1263, 883, 1246, 1221, 581, 207, 1027, 997, 959
115591667, 8714, 2791, -11937, 6496, 4713, 2682, -1209, 244, -1636, -1263, 883, 1246, 1221, 581, 207, 1027, 997, 959
115592485, 8714, 2791, -11937, 6496, 4713, 2682, -1209, 244, -1636, -1263, 883, 1246, 1221, 581, 207, 1027, 997, 959
115597407, 8714, 2791, -11937, 6496, 4713, 2682, -1209, 244, -1636, -1263, 883, 1246, 1221, 581, 207, 1027, 997, 959
115598235, 8714, 2791, -11937, 6496, 4713, 2682, -1209, 244, -1636, -1263, 883, 1246, 1221, 581, 207, 1027, 997, 959
115599055, 8714, 2791, -11937, 6496, 4713, 2682, -1209, 244, -1636, -1263, 883, 1246, 1221, 581, 207, 1027, 997, 959
115599858, 8714, 2791, -11937, 6496, 4713, 2682, -1209, 244, -1636, -1263, 883, 1246, 1221, 581, 207, 1027, 997, 959
115602413, 8634, 2837, -12099, 6282, 4759, 1471, -1073, -1020, -1115, -490, 883, 1246, 1221, 581, 207, 1027, 997, 959
115610410, 8634, 2837, -12099, 6282, 4759, 1471, -1073, -1020, -1115, -490, 731, 1305, 1219, 541, 192, 1230, 1005, 960
115611225, 8634, 2837, -12099, 6282, 4759, 1471, -1073, -1020, -1115, -490, 731, 1305, 1219, 541, 192, 1230, 1005, 960
115617421, 8634, 2982, -12171, 6071, 4629, 217, -842, -417, -732, -99, 731, 1305, 1219, 541, 192, 1230, 1005, 960
115625406, 8634, 2982, -12171, 6071, 4629, 217, -842, -417, -732, -99, 371, 1227, 1138, 517, 177, 1281, 992, 961
115626248, 8634, 2982, -12171, 6071, 4629, 217, -842, -417, -732, -99, 371, 1227, 1138, 517, 177, 1281, 992, 961
115632386, 8646, 3159, -12150, 6007, 4326, 222, -621, 425, -429, -26, 371, 1227, 1138, 517, 177, 1281, 992, 961
115647904, 8646, 3159, -12150, 6007, 4326, 222, -621, 425, -429, -26, 356, 1223, 1048, 361, 143, 1132, 921, 912
115648714, 8646, 3159, -12150, 6007, 4326, 222, -621, 425, -429, -26, 356, 1223, 1048, 361, 143, 1132, 921, 912
115654888, 8691, 3313, -12130, 5897, 4027, 585, -579, 150, -293, -53, 356, 1223, 1048, 361, 143, 1132, 921, 912
115670461, 8691, 3313, -12130, 5897, 4027, 585, -579, 150, -293, -53, 346, 1198, 977, 355, 144, 1016, 796, 857
115671287, 8691, 3313, -12130, 5897, 4027, 585, -579, 150, -293, -53, 346, 1198, 977, 355, 144, 1016, 796, 857
115677439, 8752, 3400, -12148, 5718, 3891, 527, -656, -431, -231, -74, 346, 1198, 977, 355, 144, 1016, 796, 857
115685406, 8752, 3400, -12148, 5718, 3891, 527, -656, -431, -231, -74, 341, 1129, 890, 371, 133, 835, 675, 762
115686225, 8752, 3400, -12148, 5718, 3891, 527, -656, -431, -231, -74, 341, 1129, 890, 371, 133, 835, 675, 762
115692386, 8796, 3440, -12193, 5527, 3860, 323, -859, -642, -217, 2, 341, 1129, 890, 371, 133, 835, 675, 762
115707953, 8796, 3440, -12193, 5527, 3860, 323, -859, -642, -217, 2, 359, 1112, 836, 315, 125, 493, 641, 658
115708819, 8796, 3440, -12193, 5527, 3860, 323, -859, -642, -217, 2, 359, 1112, 836, 315, 125, 493, 641, 658
115714934, 8840, 3465, -12227, 5363, 3874, 162, -955, -569, -92, 14, 359, 1112, 836, 315, 125, 493, 641, 658
115730469, 8840, 3465, -12227, 5363, 3874, 162, -955, -569, -92, 14, 352, 1027, 779, 315, 120, 393, 584, 599
115731258, 8840, 3465, -12227, 5363, 3874, 162, -955, -569, -92, 14, 352, 1027, 779, 315, 120, 393, 584, 599
115737416, 8900, 3488, -12237, 5226, 3819, 118, -888, -455, 49, -21, 352, 1027, 779, 315, 120, 393, 584, 599
115745410, 8900, 3488, -12237, 5226, 3819, 118, -888, -455, 49, -21, 348, 973, 801, 339, 131, 366, 616, 521
115746206, 8900, 3488, -12237, 5226, 3819, 118, -888, -455, 49, -21, 348, 973, 801, 339, 131, 366, 616, 521
115752448, 8953, 3513, -12244, 5100, 3854, 104, -954, -390, 65, -18, 348, 973, 801, 339, 131, 366, 616, 521
115768005, 8953, 3513, -12244, 5100, 3854, 104, -954, -390, 65, -18, 335, 962, 773, 302, 118, 327, 626, 444
115768819, 8953, 3513, -12244, 5100, 3854, 104, -954, -390, 65, -18, 335, 962, 773, 302, 118, 327, 626, 444
115774938, 8993, 3543, -12250, 4995, 3875, 112, -1015, -268, 52, 29, 335, 962, 773, 302, 118, 327, 626, 444
115790460, 8993, 3543, -12250, 4995, 3875, 112, -1015, -268, 52, 29, 334, 929, 703, 238, 113, 340, 595, 383
115791260, 8993, 3543, -12250, 4995, 3875, 112, -1015, -268, 52, 29, 334, 929, 703, 238, 113, 340, 595, 383
115797407, 9026, 3577, -12251, 4907, 3875, 195, -1055, -158, 71, 89, 334, 929, 703, 238, 113, 340, 595, 383
115805459, 9026, 3577, -12251, 4907, 3875, 195, -1055, -158, 71, 89, 318, 777, 696, 224, 103, 341, 571, 393
115806280, 9026, 3577, -12251, 4907, 3875, 195, -1055, -158, 71, 89, 318, 777, 696, 224, 103, 341, 571, 393
115812436, 9063, 3595, -12256, 4811, 3859, 205, -1073, -261, 105, 109, 318, 777, 696, 224, 103, 341, 571, 393
115827956, 9063, 3595, -12256, 4811, 3859, 205, -1073, -261, 105, 109, 349, 777, 710, 207, 92, 274, 577, 353
115828831, 9063, 3595, -12256, 4811, 3859, 205, -1073, -261, 105, 109, 349, 777, 710, 207, 92, 274, 577, 353
115834912, 9104, 3596, -12262, 4717, 3851, 152, -1027, -320, 121, 128, 349, 777, 710, 207, 92, 274, 577, 353
115850438, 9104, 3596, -12262, 4717, 3851, 152, -1027, -320, 121, 128, 336, 733, 628, 165, 73, 263, 503, 362
115851256, 9104, 3596, -12262, 4717, 3851, 152, -1027, -320, 121, 128, 336, 733, 628, 165, 73, 263, 503, 362
115857406, 9145, 3588, -12273, 4615, 3846, 151, -1030, -402, 107, 133, 336, 733, 628, 165, 73, 263, 503, 362
115873637, 9145, 3588, -12273, 4615, 3846, 151, -1030, -402, 107, 133, 355, 763, 644, 163, 66, 255, 406, 383
115874461, 9145, 3588, -12273, 4615, 3846, 151, -1030, -402, 107, 133, 355, 763, 644, 163, 66, 255, 406, 383
115875411, 9177, 3561, -12292, 4519, 3791, 54, -1039, -446, 96, 176, 355, 763, 644, 163, 66, 255, 406, 383
115887910, 9177, 3561, -12292, 4519, 3791, 54, -1039, -446, 96, 176, 350, 664, 628, 143, 56, 235, 378, 388
115888750, 9177, 3561, -12292, 4519, 3791, 54, -1039, -446, 96, 176, 350, 664, 628, 143, 56, 235, 378, 388
115894882, 9215, 3539, -12302, 4435, 3813, 128, -1026, -375, 142, 202, 350, 664, 628, 143, 56, 235, 378, 388
115910404, 9215, 3539, -12302, 4435, 3813, 128, -1026, -375, 142, 202, 330, 608, 554, 137, 50, 323, 342, 360
115911228, 9215, 3539, -12302, 4435, 3813, 128, -1026, -375, 142, 202, 330, 608, 554, 137, 50, 323, 342, 360
115917374, 9255, 3512, -12315, 4334, 3824, 309, -1094, -442, 161, 252, 330, 608, 554, 137, 50, 323, 342, 360
115925445, 9255, 3512, -12315, 4334, 3824, 309, -1094, -442, 161, 252, 293, 578, 435, 152, 60, 321, 294, 341
115926220, 9255, 3512, -12315, 4334, 3824, 309, -1094, -442, 161, 252, 293, 578, 435, 152, 60, 321, 294, 341
115932388, 9310, 3441, -12341, 4197, 3832, 368, -1133, -769, 233, 331, 293, 578, 435, 152, 60, 321, 294, 341
115947908, 9310, 3441, -12341, 4197, 3832, 368, -1133, -769, 233, 331, 248, 633, 445, 237, 68, 338, 253, 277
115948721, 9310, 3441, -12341, 4197, 3832, 368, -1133, -769, 233, 331, 248, 633, 445, 237, 68, 338, 253, 277
115954894, 9373, 3316, -12391, 4006, 3836, 439, -1224, -1195, 243, 423, 248, 633, 445, 237, 68, 338, 253, 277
115970470, 9373, 3316, -12391, 4006, 3836, 439, -1224, -1195, 243, 423, 192, 474, 367, 327, 73, 389, 222, 217
115971280, 9373, 3316, -12391, 4006, 3836, 439, -1224, -1195, 243, 423, 192, 474, 367, 327, 73, 389, 222, 217
115977436, 9456, 3070, -12456, 3800, 3845, 541, -1252, -1804, 291, 483, 192, 474, 367, 327, 73, 389, 222, 217
115985411, 9456, 3070, -12456, 3800, 3845, 541, -1252, -1804, 291, 483, 135, 437, 371, 346, 73, 455, 208, 144
115986232, 9456, 3070, -12456, 3800, 3845, 541, -1252, -1804, 291, 483, 135, 437, 371, 346, 73, 455, 208, 144
115992386, 9545, 2747, -12545, 3524, 3842, 280, -1213, -2393, 267, 566, 135, 437, 371, 346, 73, 455, 208, 144
116007909, 9545, 2747, -12545, 3524, 3842, 280, -1213, -2393, 267, 566, 122, 446, 398, 368, 79, 412, 199, 105
116008720, 9545, 2747, -12545, 3524, 3842, 280, -1213, -2393, 267, 566, 122, 446, 398, 368, 79, 412, 199, 105
116014931, 9626, 2374, -12639, 3223, 3792, -208, -1094, -2684, 234, 649, 122, 446, 398, 368, 79, 412, 199, 105
116030467, 9626, 2374, -12639, 3223, 3792, -208, -1094, -2684, 234, 649, 134, 477, 403, 375, 79, 422, 169, 97
116031258, 9626, 2374, -12639, 3223, 3792, -208, -1094, -2684, 234, 649, 134, 477, 403, 375, 79, 422, 169, 97
116037408, 9685, 2032, -12718, 2962, 3811, -513, -1061, -2384, 175, 618, 134, 477, 403, 375, 79, 422, 169, 97
116045410, 9685, 2032, -12718, 2962, 3811, -513, -1061, -2384, 175, 618, 105, 364, 354, 329, 71, 423, 145, 88
116046228, 9685, 2032, -12718, 2962, 3811, -513, -1061, -2384, 175, 618, 105, 364, 354, 329, 71, 423, 145, 88
116052389, 9724, 1775, -12764, 2796, 3724, -547, -960, -1645, 167, 555, 105, 364, 354, 329, 71, 423, 145, 88
116067961, 9724, 1775, -12764, 2796, 3724, -547, -960, -1645, 167, 555, 123, 345, 337, 257, 64, 372, 94, 75
116068834, 9724, 1775, -12764, 2796, 3724, -547, -960, -1645, 167, 555, 123, 345, 337, 257, 64, 372, 94, 75
116074940, 9753, 1546, -12806, 2634, 3687, -441, -1000, -1510, 149, 506, 123, 345, 337, 257, 64, 372, 94, 75
116090440, 9753, 1546, -12806, 2634, 3687, -441, -1000, -1510, 149, 506, 129, 320, 318, 268, 74, 282, 64, 76
116091260, 9753, 1546, -12806, 2634, 3687, -441, -1000, -1510, 149, 506, 129, 320, 318, 268, 74, 282, 64, 76
116097417, 9772, 1334, -12841, 2508, 3660, -540, -1060, -1284, 167, 514, 129, 320, 318, 268, 74, 282, 64, 76
116105406, 9772, 1334, -12841, 2508, 3660, -540, -1060, -1284, 167, 514, 131, 289, 332, 240, 71, 228, 44, 71
116106214, 9772, 1334, -12841, 2508, 3660, -540, -1060, -1284, 167, 514, 131, 289, 332, 240, 71, 228, 44, 71
116112434, 9773, 1149, -12873, 2429, 3661, -698, -1091, -998, 103, 485, 131, 289, 332, 240, 71, 228, 44, 71
116127959, 9773, 1149, -12873, 2429, 3661, -698, -1091, -998, 103, 485, 109, 179, 328, 208, 64, 184, 37, 52
116128829, 9773, 1149, -12873, 2429, 3661, -698, -1091, -998, 103, 485, 109, 179, 328, 208, 64, 184, 37, 52
116134908, 9758, 987, -12907, 2376, 3641, -837, -1151, -814, 42, 434, 109, 179, 328, 208, 64, 184, 37, 52
116150426, 9758, 987, -12907, 2376, 3641, -837, -1151, -814, 42, 434, 109, 217, 343, 225, 71, 99, 36, 53
116151259, 9758, 987, -12907, 2376, 3641, -837, -1151, -814, 42, 434, 109, 217, 343, 225, 71, 99, 36, 53
116157414, 9739, 884, -12932, 2360, 3601, -725, -1063, -429, -31, 365, 109, 217, 343, 225, 71, 99, 36, 53
116165457, 9739, 884, -12932, 2360, 3601, -725, -1063, -429, -31, 365, 73, 289, 331, 197, 69, 76, 33, 48
116166254, 9739, 884, -12932, 2360, 3601, -725, -1063, -429, -31, 365, 73, 289, 331, 197, 69, 76, 33, 48
116179920, 9716, 839, -12948, 2385, 3564, -660, -990, -51, -87, 291, 73, 289, 331, 197, 69, 76, 33, 48
116187963, 9716, 839, -12948, 2385, 3564, -660, -990, -51, -87, 291, 101, 324, 297, 148, 59, 62, 33, 73
116188831, 9716, 839, -12948, 2385, 3564, -660, -990, -51, -87, 291, 101, 324, 297, 148, 59, 62, 33, 73
116194939, 9697, 822, -12961, 2396, 3601, -552, -973, 1, -110, 182, 101, 324, 297, 148, 59, 62, 33, 73