Timestamp, Orientation x, Orientation y, Orientation z, Orientation w, Acceleration x, Acceleration y, Acceleration z, Rotation x, Rotation y, Rotation z, EMG 0, EMG 1, EMG 2, EMG 3, EMG 4, EMG 5, EMG 6, EMG 7
77232429, 8430, -191, -14028, -749, 4052, 119, -1851, 72, 11, 18, 0, 0, 0, 0, 0, 0, 0, 0
77239950, 8453, -197, -14015, -727, 4034, 125, -1853, 52, 12, 15, 0, 0, 0, 0, 0, 0, 0, 0
77262462, 8474, -203, -14003, -705, 4038, 98, -1869, 45, 14, 8, 0, 0, 0, 0, 0, 0, 0, 0
77285220, 8496, -208, -13991, -680, 4073, 79, -1880, 62, 20, 5, 0, 0, 0, 0, 0, 0, 0, 0
77301254, 8516, -208, -13980, -653, 4064, 100, -1882, 97, 20, 11, 0, 0, 0, 0, 0, 0, 0, 0
77302079, 8516, -208, -13980, -653, 4064, 100, -1882, 97, 20, 11, 49, 334, 125, 36, 32, 28, 31, 35
77302898, 8516, -208, -13980, -653, 4064, 100, -1882, 97, 20, 11, 49, 334, 125, 36, 32, 28, 31, 35
77323804, 8534, -205, -13971, -623, 4054, 110, -1881, 122, 14, 14, 49, 334, 125, 36, 32, 28, 31, 35
77324594, 8534, -205, -13971, -623, 4054, 110, -1881, 122, 14, 14, 48, 295, 120, 38, 31, 29, 31, 36
77325421, 8534, -205, -13971, -623, 4054, 110, -1881, 122, 14, 14, 48, 295, 120, 38, 31, 29, 31, 36
77346250, 8547, -209, -13963, -601, 4062, 94, -1904, 63, 2, 17, 48, 295, 120, 38, 31, 29, 31, 36
77347053, 8547, -209, -13963, -601, 4062, 94, -1904, 63, 2, 17, 48, 320, 112, 37, 31, 28, 29, 34
77347892, 8547, -209, -13963, -601, 4062, 94, -1904, 63, 2, 17, 48, 320, 112, 37, 31, 28, 29, 34
77361247, 8562, -215, -13955, -583, 4060, 86, -1887, 42, 8, 18, 48, 320, 112, 37, 31, 28, 29, 34
77362076, 8562, -215, -13955, -583, 4060, 86, -1887, 42, 8, 18, 47, 317, 119, 39, 33, 28, 29, 31
77362868, 8562, -215, -13955, -583, 4060, 86, -1887, 42, 8, 18, 47, 317, 119, 39, 33, 28, 29, 31
77383770, 8577, -219, -13947, -566, 4069, 100, -1894, 45, 13, 22, 47, 317, 119, 39, 33, 28, 29, 31
77384624, 8577, -219, -13947, -566, 4069, 100, -1894, 45, 13, 22, 50, 314, 109, 37, 32, 25, 28, 29
77385418, 8577, -219, -13947, -566, 4069, 100, -1894, 45, 13, 22, 50, 314, 109, 37, 32, 25, 28, 29
77406238, 8593, -223, -13937, -546, 4063, 96, -1867, 64, 15, 29, 50, 314, 109, 37, 32, 25, 28, 29
77407061, 8593, -223, -13937, -546, 4063, 96, -1867, 64, 15, 29, 50, 329, 107, 35, 30, 23, 26, 30
77407858, 8593, -223, -13937, -546, 4063, 96, -1867, 64, 15, 29, 50, 329, 107, 35, 30, 23, 26, 30
77421296, 8607, -227, -13930, -528, 4058, 101, -1852, 58, -3, 34, 50, 329, 107, 35, 30, 23, 26, 30
77422116, 8607, -227, -13930, -528, 4058, 101, -1852, 58, -3, 34, 49, 329, 111, 33, 31, 24, 25, 28
77422917, 8607, -227, -13930, -528, 4058, 101, -1852, 58, -3, 34, 49, 329, 111, 33, 31, 24, 25, 28
77443763, 8624, -231, -13920, -515, 4075, 136, -1835, 40, 14, 43, 49, 329, 111, 33, 31, 24, 25, 28
77444598, 8624, -231, -13920, -515, 4075, 136, -1835, 40, 14, 43, 44, 261, 125, 31, 28, 22, 23, 27
77445395, 8624, -231, -13920, -515, 4075, 136, -1835, 40, 14, 43, 44, 261, 125, 31, 28, 22, 23, 27
77466303, 8648, -242, -13904, -525, 4086, 258, -1803, -54, 56, 71, 44, 261, 125, 31, 28, 22, 23, 27
77467115, 8648, -242, -13904, -525, 4086, 258, -1803, -54, 56, 71, 41, 232, 165, 30, 28, 24, 24, 23
77468070, 8648, -242, -13904, -525, 4086, 258, -1803, -54, 56, 71, 41, 232, 165, 30, 28, 24, 24, 23
77481301, 8686, -288, -13877, -568, 4114, 278, -1689, -314, 101, 147, 41, 232, 165, 30, 28, 24, 24, 23
77482097, 8686, -288, -13877, -568, 4114, 278, -1689, -314, 101, 147, 38, 204, 206, 32, 27, 24, 23, 26
77482912, 8686, -288, -13877, -568, 4114, 278, -1689, -314, 101, 147, 38, 204, 206, 32, 27, 24, 23, 26
77503781, 8737, -374, -13841, -624, 4146, 217, -1671, -503, 184, 271, 38, 204, 206, 32, 27, 24, 23, 26
77504570, 8737, -374, -13841, -624, 4146, 217, -1671, -503, 184, 271, 35, 164, 309, 44, 42, 37, 37, 26
77505399, 8737, -374, -13841, -624, 4146, 217, -1671, -503, 184, 271, 35, 164, 309, 44, 42, 37, 37, 26
77526297, 8800, -494, -13794, -696, 4179, 161, -1719, -706, 309, 365, 35, 164, 309, 44, 42, 37, 37, 26
77527108, 8800, -494, -13794, -696, 4179, 161, -1719, -706, 309, 365, 35, 146, 336, 104, 55, 44, 73, 28
77527907, 8800, -494, -13794, -696, 4179, 161, -1719, -706, 309, 365, 35, 146, 336, 104, 55, 44, 73, 28
77541296, 8878, -641, -13734, -768, 4188, 112, -1650, -790, 410, 476, 35, 146, 336, 104, 55, 44, 73, 28
77542087, 8878, -641, -13734, -768, 4188, 112, -1650, -790, 410, 476, 51, 138, 330, 109, 66, 79, 83, 28
77542910, 8878, -641, -13734, -768, 4188, 112, -1650, -790, 410, 476, 51, 138, 330, 109, 66, 79, 83, 28
77563767, 8959, -818, -13670, -799, 4238, 21, -1678, -701, 451, 717, 51, 138, 330, 109, 66, 79, 83, 28
77564563, 8959, -818, -13670, -799, 4238, 21, -1678, -701, 451, 717, 104, 122, 311, 127, 105, 117, 98, 43
77565393, 8959, -818, -13670, -799, 4238, 21, -1678, -701, 451, 717, 104, 122, 311, 127, 105, 117, 98, 43
77586293, 9063, -1011, -13589, -787, 4304, 33, -1686, -529, 625, 981, 104, 122, 311, 127, 105, 117, 98, 43
77587091, 9063, -1011, -13589, -787, 4304, 33, -1686, -529, 625, 981, 152, 139, 292, 134, 130, 173, 107, 79
77587919, 9063, -1011, -13589, -787, 4304, 33, -1686, -529, 625, 981, 152, 139, 292, 134, 130, 173, 107, 79
77599984, 9195, -1256, -13481, -758, 4316, -72, -1638, -613, 835, 1285, 152, 139, 292, 134, 130, 173, 107, 79
77608062, 9195, -1256, -13481, -758, 4316, -72, -1638, -613, 835, 1285, 175, 141, 182, 139, 133, 237, 113, 173
77608864, 9195, -1256, -13481, -758, 4316, -72, -1638, -613, 835, 1285, 175, 141, 182, 139, 133, 237, 113, 173
77623769, 9343, -1547, -13351, -705, 4309, -184, -1610, -644, 1005, 1591, 175, 141, 182, 139, 133, 237, 113, 173
77624586, 9343, -1547, -13351, -705, 4309, -184, -1610, -644, 1005, 1591, 231, 158, 118, 104, 131, 266, 119, 286
77625385, 9343, -1547, -13351, -705, 4309, -184, -1610, -644, 1005, 1591, 231, 158, 118, 104, 131, 266, 119, 286
77646295, 9503, -1895, -13196, -633, 4276, -423, -1633, -736, 1125, 1928, 231, 158, 118, 104, 131, 266, 119, 286
77647116, 9503, -1895, -13196, -633, 4276, -423, -1633, -736, 1125, 1928, 315, 163, 122, 100, 133, 287, 123, 324
77647938, 9503, -1895, -13196, -633, 4276, -423, -1633, -736, 1125, 1928, 315, 163, 122, 100, 133, 287, 123, 324
77661299, 9670, -2279, -13018, -524, 4169, -645, -1618, -689, 1214, 2217, 315, 163, 122, 100, 133, 287, 123, 324
77662095, 9670, -2279, -13018, -524, 4169, -645, -1618, -689, 1214, 2217, 309, 152, 112, 85, 120, 382, 115, 331
77662939, 9670, -2279, -13018, -524, 4169, -645, -1618, -689, 1214, 2217, 309, 152, 112, 85, 120, 382, 115, 331
77683784, 9831, -2706, -12818, -404, 3974, -732, -1609, -785, 1263, 2471, 309, 152, 112, 85, 120, 382, 115, 331
77684569, 9831, -2706, -12818, -404, 3974, -732, -1609, -785, 1263, 2471, 293, 139, 109, 81, 112, 386, 110, 347
77685396, 9831, -2706, -12818, -404, 3974, -732, -1609, -785, 1263, 2471, 293, 139, 109, 81, 112, 386, 110, 347
77713773, 9988, -3146, -12598, -245, 3847, -863, -1705, -651, 1301, 2684, 293, 139, 109, 81, 112, 386, 110, 347
77714590, 9988, -3146, -12598, -245, 3847, -863, -1705, -651, 1301, 2684, 297, 155, 106, 66, 105, 355, 105, 338
77715388, 9988, -3146, -12598, -245, 3847, -863, -1705, -651, 1301, 2684, 297, 155, 106, 66, 105, 355, 105, 338
77720669, 10135, -3578, -12366, -45, 3616, -1040, -1689, -452, 1275, 2803, 297, 155, 106, 66, 105, 355, 105, 338
77721492, 10135, -3578, -12366, -45, 3616, -1040, -1689, -452, 1275, 2803, 265, 152, 108, 67, 109, 337, 85, 304
77728716, 10135, -3578, -12366, -45, 3616, -1040, -1689, -452, 1275, 2803, 265, 152, 108, 67, 109, 337, 85, 304
77729538, 10135, -3578, -12366, -45, 3616, -1040, -1689, -452, 1275, 2803, 265, 152, 108, 67, 109, 337, 85, 304
77730343, 10135, -3578, -12366, -45, 3616, -1040, -1689, -452, 1275, 2803, 265, 152, 108, 67, 109, 337, 85, 304
77743764, 10272, -3991, -12123, 179, 3467, -1079, -1634, -280, 1248, 2834, 265, 152, 108, 67, 109, 337, 85, 304
77744587, 10272, -3991, -12123, 179, 3467, -1079, -1634, -280, 1248, 2834, 180, 168, 99, 69, 104, 321, 78, 310
77745412, 10272, -3991, -12123, 179, 3467, -1079, -1634, -280, 1248, 2834, 180, 168, 99, 69, 104, 321, 78, 310
77766230, 10407, -4386, -11863, 397, 3361, -1073, -1590, -232, 1305, 2787, 180, 168, 99, 69, 104, 321, 78, 310
77767062, 10407, -4386, -11863, 397, 3361, -1073, -1590, -232, 1305, 2787, 231, 179, 104, 58, 108, 195, 78, 320
77767901, 10407, -4386, -11863, 397, 3361, -1073, -1590, -232, 1305, 2787, 231, 179, 104, 58, 108, 195, 78, 320
77781239, 10536, -4763, -11592, 608, 3215, -1090, -1514, -197, 1331, 2719, 231, 179, 104, 58, 108, 195, 78, 320
77782061, 10536, -4763, -11592, 608, 3215, -1090, -1514, -197, 1331, 2719, 253, 218, 101, 57, 89, 151, 83, 347
77782892, 10536, -4763, -11592, 608, 3215, -1090, -1514, -197, 1331, 2719, 253, 218, 101, 57, 89, 151, 83, 347
77803771, 10643, -5136, -11321, 796, 3083, -1099, -1462, -302, 1281, 2638, 253, 218, 101, 57, 89, 151, 83, 347
77804593, 10643, -5136, -11321, 796, 3083, -1099, -1462, -302, 1281, 2638, 253, 221, 102, 76, 92, 141, 89, 408
77805393, 10643, -5136, -11321, 796, 3083, -1099, -1462, -302, 1281, 2638, 253, 221, 102, 76, 92, 141, 89, 408
77826251, 10719, -5523, -11054, 926, 3014, -1137, -1469, -614, 1255, 2498, 253, 221, 102, 76, 92, 141, 89, 408
77827054, 10719, -5523, -11054, 926, 3014, -1137, -1469, -614, 1255, 2498, 256, 227, 135, 105, 91, 137, 86, 398
77827878, 10719, -5523, -11054, 926, 3014, -1137, -1469, -614, 1255, 2498, 256, 227, 135, 105, 91, 137, 86, 398
77840643, 10770, -5899, -10799, 1021, 2938, -1032, -1441, -754, 1179, 2336, 256, 227, 135, 105, 91, 137, 86, 398
77841437, 10770, -5899, -10799, 1021, 2938, -1032, -1441, -754, 1179, 2336, 253, 247, 146, 121, 90, 116, 82, 369
77847422, 10770, -5899, -10799, 1021, 2938, -1032, -1441, -754, 1179, 2336, 253, 247, 146, 121, 90, 116, 82, 369
77863800, 10792, -6273, -10558, 1071, 2926, -1177, -1427, -973, 1105, 2147, 253, 247, 146, 121, 90, 116, 82, 369
77864598, 10792, -6273, -10558, 1071, 2926, -1177, -1427, -973, 1105, 2147, 208, 307, 370, 185, 69, 90, 91, 369
77865421, 10792, -6273, -10558, 1071, 2926, -1177, -1427, -973, 1105, 2147, 208, 307, 370, 185, 69, 90, 91, 369
77886260, 10818, -6648, -10300, 1061, 2973, -1446, -1523, -1164, 1319, 1951, 208, 307, 370, 185, 69, 90, 91, 369
77887065, 10818, -6648, -10300, 1061, 2973, -1446, -1523, -1164, 1319, 1951, 193, 442, 585, 323, 91, 69, 105, 447
77887887, 10818, -6648, -10300, 1061, 2973, -1446, -1523, -1164, 1319, 1951, 193, 442, 585, 323, 91, 69, 105, 447
77899910, 10860, -6963, -10048, 1030, 2985, -1257, -1398, -986, 1370, 1677, 193, 442, 585, 323, 91, 69, 105, 447
77908091, 10860, -6963, -10048, 1030, 2985, -1257, -1398, -986, 1370, 1677, 237, 645, 688, 380, 110, 77, 113, 613
77908890, 10860, -6963, -10048, 1030, 2985, -1257, -1398, -986, 1370, 1677, 237, 645, 688, 380, 110, 77, 113, 613
77923794, 10821, -7242, -9902, 915, 2942, -1005, -1337, -1055, 1149, 1533, 237, 645, 688, 380, 110, 77, 113, 613
77924618, 10821, -7242, -9902, 915, 2942, -1005, -1337, -1055, 1149, 1533, 297, 798, 835, 446, 146, 95, 187, 752
77925414, 10821, -7242, -9902, 915, 2942, -1005, -1337, -1055, 1149, 1533, 297, 798, 835, 446, 146, 95, 187, 752
77946276, 10738, -7522, -9803, 676, 2991, -843, -1401, -1568, 1138, 1057, 297, 798, 835, 446, 146, 95, 187, 752
77947059, 10738, -7522, -9803, 676, 2991, -843, -1401, -1568, 1138, 1057, 328, 976, 1015, 590, 199, 137, 443, 885
77947890, 10738, -7522, -9803, 676, 2991, -843, -1401, -1568, 1138, 1057, 328, 976, 1015, 590, 199, 137, 443, 885
77959946, 10700, -7687, -9729, 480, 3068, -1588, -1375, -967, 1016, 472, 328, 976, 1015, 590, 199, 137, 443, 885
77968081, 10700, -7687, -9729, 480, 3068, -1588, -1375, -967, 1016, 472, 378, 1016, 1083, 666, 244, 151, 518, 1047
77968867, 10700, -7687, -9729, 480, 3068, -1588, -1375, -967, 1016, 472, 378, 1016, 1083, 666, 244, 151, 518, 1047
77983750, 10704, -7693, -9721, 426, 3147, -1230, -1445, 230, 536, 457, 378, 1016, 1083, 666, 244, 151, 518, 1047
77984570, 10704, -7693, -9721, 426, 3147, -1230, -1445, 230, 536, 457, 406, 1118, 994, 678, 248, 170, 520, 1050
77985368, 10704, -7693, -9721, 426, 3147, -1230, -1445, 230, 536, 457, 406, 1118, 994, 678, 248, 170, 520, 1050
78006254, 10644, -7732, -9759, 345, 3087, -1144, -1387, -178, 202, 358, 406, 1118, 994, 678, 248, 170, 520, 1050
78007090, 10644, -7732, -9759, 345, 3087, -1144, -1387, -178, 202, 358, 397, 1054, 948, 698, 248, 179, 538, 1028
78007914, 10644, -7732, -9759, 345, 3087, -1144, -1387, -178, 202, 358, 397, 1054, 948, 698, 248, 179, 538, 1028
78019939, 10545, -7775, -9834, 294, 3069, -1482, -1652, -157, -55, 235, 397, 1054, 948, 698, 248, 179, 538, 1028
78028039, 10545, -7775, -9834, 294, 3069, -1482, -1652, -157, -55, 235, 375, 964, 824, 737, 231, 172, 522, 1018
78028860, 10545, -7775, -9834, 294, 3069, -1482, -1652, -157, -55, 235, 375, 964, 824, 737, 231, 172, 522, 1018
78043767, 10472, -7779, -9909, 282, 2924, -1577, -1640, 155, -90, 136, 375, 964, 824, 737, 231, 172, 522, 1018
78044565, 10472, -7779, -9909, 282, 2924, -1577, -1640, 155, -90, 136, 342, 814, 587, 706, 205, 146, 357, 985
78045388, 10472, -7779, -9909, 282, 2924, -1577, -1640, 155, -90, 136, 342, 814, 587, 706, 205, 146, 357, 985
78066297, 10409, -7749, -9998, 292, 2879, -1449, -1630, 378, -179, 94, 342, 814, 587, 706, 205, 146, 357, 985
78067111, 10409, -7749, -9998, 292, 2879, -1449, -1630, 378, -179, 94, 363, 752, 293, 654, 155, 141, 260, 869
78067956, 10409, -7749, -9998, 292, 2879, -1449, -1630, 378, -179, 94, 363, 752, 293, 654, 155, 141, 260, 869
78079979, 10331, -7734, -10090, 300, 2806, -1470, -1557, 236, -276, 93, 363, 752, 293, 654, 155, 141, 260, 869
78088058, 10331, -7734, -10090, 300, 2806, -1470, -1557, 236, -276, 93, 342, 531, 257, 594, 164, 140, 294, 913
78088904, 10331, -7734, -10090, 300, 2806, -1470, -1557, 236, -276, 93, 342, 531, 257, 594, 164, 140, 294, 913
78103781, 10263, -7719, -10169, 335, 2758, -1677, -1550, 315, -279, 110, 342, 531, 257, 594, 164, 140, 294, 913
78104587, 10263, -7719, -10169, 335, 2758, -1677, -1550, 315, -279, 110, 339, 546, 188, 568, 167, 173, 438, 839
78105413, 10263, -7719, -10169, 335, 2758, -1677, -1550, 315, -279, 110, 339, 546, 188, 568, 167, 173, 438, 839
78126248, 10228, -7678, -10233, 421, 2791, -1921, -1529, 632, -275, 148, 339, 546, 188, 568, 167, 173, 438, 839
78127061, 10228, -7678, -10233, 421, 2791, -1921, -1529, 632, -275, 148, 314, 564, 214, 500, 177, 202, 732, 759
78127883, 10228, -7678, -10233, 421, 2791, -1921, -1529, 632, -275, 148, 314, 564, 214, 500, 177, 202, 732, 759
78139916, 10255, -7579, -10269, 623, 2597, -2037, -1459, 1389, -276, 323, 314, 564, 214, 500, 177, 202, 732, 759
78148063, 10255, -7579, -10269, 623, 2597, -2037, -1459, 1389, -276, 323, 337, 538, 373, 449, 191, 281, 908, 710
78148887, 10255, -7579, -10269, 623, 2597, -2037, -1459, 1389, -276, 323, 337, 538, 373, 449, 191, 281, 908, 710
78163795, 10336, -7416, -10280, 969, 2425, -2187, -1378, 2053, -610, 588, 337, 538, 373, 449, 191, 281, 908, 710
78164590, 10336, -7416, -10280, 969, 2425, -2187, -1378, 2053, -610, 588, 283, 655, 837, 451, 253, 410, 1066, 728
78165413, 10336, -7416, -10280, 969, 2425, -2187, -1378, 2053, -610, 588, 283, 655, 837, 451, 253, 410, 1066, 728
78186251, 10479, -7068, -10317, 1491, 1953, -2053, -959, 3453, -1013, 460, 283, 655, 837, 451, 253, 410, 1066, 728
78187068, 10479, -7068, -10317, 1491, 1953, -2053, -959, 3453, -1013, 460, 262, 701, 1000, 454, 268, 530, 1211, 745
78187894, 10479, -7068, -10317, 1491, 1953, -2053, -959, 3453, -1013, 460, 262, 701, 1000, 454, 268, 530, 1211, 745
78199925, 10632, -6573, -10390, 2060, 2285, -948, -828, 4171, -1315, 161, 262, 701, 1000, 454, 268, 530, 1211, 745
78208090, 10632, -6573, -10390, 2060, 2285, -948, -828, 4171, -1315, 161, 243, 961, 1189, 503, 341, 599, 1279, 728
78208886, 10632, -6573, -10390, 2060, 2285, -948, -828, 4171, -1315, 161, 243, 961, 1189, 503, 341, 599, 1279, 728
78222418, 10697, -6189, -10464, 2494, 2991, -834, -1234, 3129, -1214, 198, 243, 961, 1189, 503, 341, 599, 1279, 728
78230561, 10697, -6189, -10464, 2494, 2991, -834, -1234, 3129, -1214, 198, 260, 1163, 1220, 567, 356, 607, 1242, 727
78231384, 10697, -6189, -10464, 2494, 2991, -834, -1234, 3129, -1214, 198, 260, 1163, 1220, 567, 356, 607, 1242, 727
78246290, 10736, -5824, -10528, 2903, 2960, -1023, -1063, 2911, -1205, 207, 260, 1163, 1220, 567, 356, 607, 1242, 727
78247089, 10736, -5824, -10528, 2903, 2960, -1023, -1063, 2911, -1205, 207, 277, 1302, 1231, 582, 355, 664, 1316, 746
78247910, 10736, -5824, -10528, 2903, 2960, -1023, -1063, 2911, -1205, 207, 277, 1302, 1231, 582, 355, 664, 1316, 746
78259968, 10812, -5481, -10525, 3273, 3092, -886, -907, 2819, -730, 259, 277, 1302, 1231, 582, 355, 664, 1316, 746
78268062, 10812, -5481, -10525, 3273, 3092, -886, -907, 2819, -730, 259, 345, 1298, 1090, 604, 323, 724, 1355, 736
78268866, 10812, -5481, -10525, 3273, 3092, -886, -907, 2819, -730, 259, 345, 1298, 1090, 604, 323, 724, 1355, 736
78282453, 10815, -5266, -10539, 3559, 2934, -856, -743, 1880, -762, 454, 345, 1298, 1090, 604, 323, 724, 1355, 736
78290557, 10815, -5266, -10539, 3559, 2934, -856, -743, 1880, -762, 454, 391, 1299, 1019, 665, 338, 723, 1412, 646
78291361, 10815, -5266, -10539, 3559, 2934, -856, -743, 1880, -762, 454, 391, 1299, 1019, 665, 338, 723, 1412, 646
78305606, 10796, -5052, -10601, 3739, 2738, -1154, -693, 1575, -658, 423, 391, 1299, 1019, 665, 338, 723, 1412, 646
78306408, 10796, -5052, -10601, 3739, 2738, -1154, -693, 1575, -658, 423, 396, 1168, 932, 686, 263, 674, 1417, 634
78312397, 10796, -5052, -10601, 3739, 2738, -1154, -693, 1575, -658, 423, 396, 1168, 932, 686, 263, 674, 1417, 634
78320021, 10787, -4859, -10613, 3981, 2674, -997, -707, 1620, -683, 344, 396, 1168, 932, 686, 263, 674, 1417, 634
78328069, 10787, -4859, -10613, 3981, 2674, -997, -707, 1620, -683, 344, 424, 961, 957, 637, 245, 691, 1380, 663
78328867, 10787, -4859, -10613, 3981, 2674, -997, -707, 1620, -683, 344, 424, 961, 957, 637, 245, 691, 1380, 663
78342448, 10752, -4645, -10710, 4067, 2815, -794, -756, 1186, -653, 207, 424, 961, 957, 637, 245, 691, 1380, 663
78350537, 10752, -4645, -10710, 4067, 2815, -794, -756, 1186, -653, 207, 424, 821, 979, 728, 253, 674, 1318, 727
78351390, 10752, -4645, -10710, 4067, 2815, -794, -756, 1186, -653, 207, 424, 821, 979, 728, 253, 674, 1318, 727
78364951, 10708, -4471, -10827, 4069, 2871, -779, -801, 705, -550, 24, 424, 821, 979, 728, 253, 674, 1318, 727
78373045, 10708, -4471, -10827, 4069, 2871, -779, -801, 705, -550, 24, 351, 875, 876, 713, 247, 588, 1200, 688
78373867, 10708, -4471, -10827, 4069, 2871, -779, -801, 705, -550, 24, 351, 875, 876, 713, 247, 588, 1200, 688
78380015, 10680, -4321, -10930, 4031, 2963, -968, -741, 481, -381, -97, 351, 875, 876, 713, 247, 588, 1200, 688
78388040, 10680, -4321, -10930, 4031, 2963, -968, -741, 481, -381, -97, 302, 867, 851, 667, 215, 511, 1032, 652
78388863, 10680, -4321, -10930, 4031, 2963, -968, -741, 481, -381, -97, 302, 867, 851, 667, 215, 511, 1032, 652
78402450, 10653, -4187, -11025, 3986, 2868, -917, -640, 364, -360, -102, 302, 867, 851, 667, 215, 511, 1032, 652
78410546, 10653, -4187, -11025, 3986, 2868, -917, -640, 364, -360, -102, 298, 867, 798, 616, 209, 530, 1083, 679
78411361, 10653, -4187, -11025, 3986, 2868, -917, -640, 364, -360, -102, 298, 867, 798, 616, 209, 530, 1083, 679
78424918, 10623, -4088, -11112, 3923, 2875, -1130, -658, 169, -271, -124, 298, 867, 798, 616, 209, 530, 1083, 679
78433085, 10623, -4088, -11112, 3923, 2875, -1130, -658, 169, -271, -124, 254, 887, 723, 591, 207, 550, 1133, 665
78433888, 10623, -4088, -11112, 3923, 2875, -1130, -658, 169, -271, -124, 254, 887, 723, 591, 207, 550, 1133, 665
78440032, 10604, -3990, -11194, 3845, 2920, -949, -641, 118, -201, -118, 254, 887, 723, 591, 207, 550, 1133, 665
78448039, 10604, -3990, -11194, 3845, 2920, -949, -641, 118, -201, -118, 200, 857, 651, 423, 179, 484, 1058, 509
78448864, 10604, -3990, -11194, 3845, 2920, -949, -641, 118, -201, -118, 200, 857, 651, 423, 179, 484, 1058, 509
78462414, 10565, -3935, -11286, 3736, 2892, -971, -740, -172, -188, -97, 200, 857, 651, 423, 179, 484, 1058, 509
78470591, 10565, -3935, -11286, 3736, 2892, -971, -740, -172, -188, -97, 197, 766, 686, 379, 176, 416, 1043, 460
78471417, 10565, -3935, -11286, 3736, 2892, -971, -740, -172, -188, -97, 197, 766, 686, 379, 176, 416, 1043, 460
78484916, 10537, -3886, -11364, 3627, 2887, -1035, -694, -185, -122, -117, 197, 766, 686, 379, 176, 416, 1043, 460
78493068, 10537, -3886, -11364, 3627, 2887, -1035, -694, -185, -122, -117, 199, 790, 625, 349, 149, 415, 1080, 439
78493890, 10537, -3886, -11364, 3627, 2887, -1035, -694, -185, -122, -117, 199, 790, 625, 349, 149, 415, 1080, 439
78500041, 10513, -3842, -11437, 3513, 2843, -1009, -681, -226, -93, -148, 199, 790, 625, 349, 149, 415, 1080, 439
78508111, 10513, -3842, -11437, 3513, 2843, -1009, -681, -226, -93, -148, 188, 679, 656, 278, 155, 369, 935, 400
78508919, 10513, -3842, -11437, 3513, 2843, -1009, -681, -226, -93, -148, 188, 679, 656, 278, 155, 369, 935, 400
78522416, 10496, -3806, -11499, 3400, 2860, -1035, -653, -250, -37, -130, 188, 679, 656, 278, 155, 369, 935, 400
78530565, 10496, -3806, -11499, 3400, 2860, -1035, -653, -250, -37, -130, 221, 701, 706, 257, 141, 283, 871, 378
78531396, 10496, -3806, -11499, 3400, 2860, -1035, -653, -250, -37, -130, 221, 701, 706, 257, 141, 283, 871, 378
78547664, 10482, -3783, -11554, 3283, 2851, -978, -663, -302, 11, -93, 221, 701, 706, 257, 141, 283, 871, 378
78548484, 10482, -3783, -11554, 3283, 2851, -978, -663, -302, 11, -93, 221, 701, 706, 257, 141, 283, 871, 378
78549288, 10482, -3783, -11554, 3283, 2851, -978, -663, -302, 11, -93, 277, 1302, 1231, 582, 355, 664, 1316, 746
78550117, 10482, -3783, -11554, 3283, 2851, -978, -663, -302, 11, -93, 277, 1302, 1231, 582, 355, 664, 1316, 746
78555211, 10812, -5481, -10525, 3273, 3092, -886, -907, 2819, -730, 259, 277, 1302, 1231, 582, 355, 664, 1316, 746
78555996, 10812, -5481, -10525, 3273, 3092, -886, -907, 2819, -730, 259, 345, 1298, 1090, 604, 323, 724, 1355, 736
78556876, 10812, -5481, -10525, 3273, 3092, -886, -907, 2819, -730, 259, 345, 1298, 1090, 604, 323, 724, 1355, 736
78557616, 10812, -5481, -10525, 3273, 3092, -886, -907, 2819, -730, 259, 345, 1298, 1090, 604, 323, 724, 1355, 736
78562510, 10812, -5481, -10525, 3273, 3092, -886, -907, 2819, -730, 259, 345, 1298, 1090, 604, 323, 724, 1355, 736
78563343, 10812, -5481, -10525, 3273, 3092, -886, -907, 2819, -730, 259, 345, 1298, 1090, 604, 323, 724, 1355, 736
78564135, 10812, -5481, -10525, 3273, 3092, -886, -907, 2819, -730, 259, 345, 1298, 1090, 604, 323, 724, 1355, 736
78564987, 10812, -5481, -10525, 3273, 3092, -886, -907, 2819, -730, 259, 345, 1298, 1090, 604, 323, 724, 1355, 736
78570103, 10812, -5481, -10525, 3273, 3092, -886, -907, 2819, -730, 259, 345, 1298, 1090, 604, 323, 724, 1355, 736
78571014, 10815, -5266, -10539, 3559, 2934, -856, -743, 1880, -762, 454, 345, 1298, 1090, 604, 323, 724, 1355, 736
78571865, 10815, -5266, -10539, 3559, 2934, -856, -743, 1880, -762, 454, 391, 1299, 1019, 665, 338, 723, 1412, 646
78572656, 10815, -5266, -10539, 3559, 2934, -856, -743, 1880, -762, 454, 391, 1299, 1019, 665, 338, 723, 1412, 646
78577674, 10815, -5266, -10539, 3559, 2934, -856, -743, 1880, -762, 454, 391, 1299, 1019, 665, 338, 723, 1412, 646
78578474, 10815, -5266, -10539, 3559, 2934, -856, -743, 1880, -762, 454, 391, 1299, 1019, 665, 338, 723, 1412, 646
78579292, 10815, -5266, -10539, 3559, 2934, -856, -743, 1880, -762, 454, 391, 1299, 1019, 665, 338, 723, 1412, 646
78580115, 10815, -5266, -10539, 3559, 2934, -856, -743, 1880, -762, 454, 391, 1299, 1019, 665, 338, 723, 1412, 646
78585067, 10815, -5266, -10539, 3559, 2934, -856, -743, 1880, -762, 454, 391, 1299, 1019, 665, 338, 723, 1412, 646
78585864, 10815, -5266, -10539, 3559, 2934, -856, -743, 1880, -762, 454, 391, 1299, 1019, 665, 338, 723, 1412, 646
78586685, 10815, -5266, -10539, 3559, 2934, -856, -743, 1880, -762, 454, 391, 1299, 1019, 665, 338, 723, 1412, 646
78587510, 10815, -5266, -10539, 3559, 2934, -856, -743, 1880, -762, 454, 391, 1299, 1019, 665, 338, 723, 1412, 646
78592562, 10815, -5266, -10539, 3559, 2934, -856, -743, 1880, -762, 454, 391, 1299, 1019, 665, 338, 723, 1412, 646
78593518, 10796, -5052, -10601, 3739, 2738, -1154, -693, 1575, -658, 423, 391, 1299, 1019, 665, 338, 723, 1412, 646
78594310, 10796, -5052, -10601, 3739, 2738, -1154, -693, 1575, -658, 423, 396, 1168, 932, 686, 263, 674, 1417, 634
78595130, 10796, -5052, -10601, 3739, 2738, -1154, -693, 1575, -658, 423, 396, 1168, 932, 686, 263, 674, 1417, 634
78600134, 10796, -5052, -10601, 3739, 2738, -1154, -693, 1575, -658, 423, 396, 1168, 932, 686, 263, 674, 1417, 634
78600959, 10796, -5052, -10601, 3739, 2738, -1154, -693, 1575, -658, 423, 396, 1168, 932, 686, 263, 674, 1417, 634
78601768, 10796, -5052, -10601, 3739, 2738, -1154, -693, 1575, -658, 423, 396, 1168, 932, 686, 263, 674, 1417, 634
78602580, 10796, -5052, -10601, 3739, 2738, -1154, -693, 1575, -658, 423, 396, 1168, 932, 686, 263, 674, 1417, 634
78607518, 10796, -5052, -10601, 3739, 2738, -1154, -693, 1575, -658, 423, 396, 1168, 932, 686, 263, 674, 1417, 634
78608323, 10796, -5052, -10601, 3739, 2738, -1154, -693, 1575, -658, 423, 396, 1168, 932, 686, 263, 674, 1417, 634
78609147, 10796, -5052, -10601, 3739, 2738, -1154, -693, 1575, -658, 423, 396, 1168, 932, 686, 263, 674, 1417, 634
78609972, 10796, -5052, -10601, 3739, 2738, -1154, -693, 1575, -658, 423, 396, 1168, 932, 686, 263, 674, 1417, 634
78615020, 10796, -5052, -10601, 3739, 2738, -1154, -693, 1575, -658, 423, 396, 1168, 932, 686, 263, 674, 1417, 634
78615972, 10787, -4859, -10613, 3981, 2674, -997, -707, 1620, -683, 344, 396, 1168, 932, 686, 263, 674, 1417, 634
78616850, 10787, -4859, -10613, 3981, 2674, -997, -707, 1620, -683, 344, 424, 961, 957, 637, 245, 691, 1380, 663
78617530, 10787, -4859, -10613, 3981, 2674, -997, -707, 1620, -683, 344, 424, 961, 957, 637, 245, 691, 1380, 663
78622629, 10787, -4859, -10613, 3981, 2674, -997, -707, 1620, -683, 344, 424, 961, 957, 637, 245, 691, 1380, 663
78623420, 10787, -4859, -10613, 3981, 2674, -997, -707, 1620, -683, 344, 424, 961, 957, 637, 245, 691, 1380, 663
78624248, 10787, -4859, -10613, 3981, 2674, -997, -707, 1620, -683, 344, 424, 961, 957, 637, 245, 691, 1380, 663
78625048, 10787, -4859, -10613, 3981, 2674, -997, -707, 1620, -683, 344, 424, 961, 957, 637, 245, 691, 1380, 663
78630053, 10787, -4859, -10613, 3981, 2674, -997, -707, 1620, -683, 344, 424, 961, 957, 637, 245, 691, 1380, 663
78630874, 10787, -4859, -10613, 3981, 2674, -997, -707, 1620, -683, 344, 424, 961, 957, 637, 245, 691, 1380, 663
78631679, 10787, -4859, -10613, 3981, 2674, -997, -707, 1620, -683, 344, 424, 961, 957, 637, 245, 691, 1380, 663
78632498, 10787, -4859, -10613, 3981, 2674, -997, -707, 1620, -683, 344, 424, 961, 957, 637, 245, 691, 1380, 663
78637578, 10787, -4859, -10613, 3981, 2674, -997, -707, 1620, -683, 344, 424, 961, 957, 637, 245, 691, 1380, 663
78638502, 10752, -4645, -10710, 4067, 2815, -794, -756, 1186, -653, 207, 424, 961, 957, 637, 245, 691, 1380, 663
78639325, 10752, -4645, -10710, 4067, 2815, -794, -756, 1186, -653, 207, 424, 821, 979, 728, 253, 674, 1318, 727
78640149, 10752, -4645, -10710, 4067, 2815, -794, -756, 1186, -653, 207, 424, 961, 957, 637, 245, 691, 1380, 663
78645151, 10752, -4645, -10710, 4067, 2815, -794, -756, 1186, -653, 207, 424, 821, 979, 728, 253, 674, 1318, 727
78645944, 10752, -4645, -10710, 4067, 2815, -794, -756, 1186, -653, 207, 424, 821, 979, 728, 253, 674, 1318, 727
78646847, 10752, -4645, -10710, 4067, 2815, -794, -756, 1186, -653, 207, 424, 821, 979, 728, 253, 674, 1318, 727
78647533, 10752, -4645, -10710, 4067, 2815, -794, -756, 1186, -653, 207, 424, 821, 979, 728, 253, 674, 1318, 727
78652566, 10752, -4645, -10710, 4067, 2815, -794, -756, 1186, -653, 207, 424, 821, 979, 728, 253, 674, 1318, 727
78653368, 10752, -4645, -10710, 4067, 2815, -794, -756, 1186, -653, 207, 424, 821, 979, 728, 253, 674, 1318, 727
78654189, 10752, -4645, -10710, 4067, 2815, -794, -756, 1186, -653, 207, 424, 821, 979, 728, 253, 674, 1318, 727
78654987, 10752, -4645, -10710, 4067, 2815, -794, -756, 1186, -653, 207, 351, 875, 876, 713, 247, 588, 1200, 688
78660067, 10752, -4645, -10710, 4067, 2815, -794, -756, 1186, -653, 207, 351, 875, 876, 713, 247, 588, 1200, 688
78660992, 10680, -4321, -10930, 4031, 2963, -968, -741, 481, -381, -97, 351, 875, 876, 713, 247, 588, 1200, 688
78661865, 10680, -4321, -10930, 4031, 2963, -968, -741, 481, -381, -97, 302, 867, 851, 667, 215, 511, 1032, 652
78662638, 10680, -4321, -10930, 4031, 2963, -968, -741, 481, -381, -97, 302, 867, 851, 667, 215, 511, 1032, 652
78667639, 10680, -4321, -10930, 4031, 2963, -968, -741, 481, -381, -97, 302, 867, 851, 667, 215, 511, 1032, 652
78668466, 10680, -4321, -10930, 4031, 2963, -968, -741, 481, -381, -97, 302, 867, 851, 667, 215, 511, 1032, 652
78669265, 10680, -4321, -10930, 4031, 2963, -968, -741, 481, -381, -97, 302, 867, 851, 667, 215, 511, 1032, 652
78670088, 10680, -4321, -10930, 4031, 2963, -968, -741, 481, -381, -97, 302, 867, 851, 667, 215, 511, 1032, 652
78675042, 10680, -4321, -10930, 4031, 2963, -968, -741, 481, -381, -97, 302, 867, 851, 667, 215, 511, 1032, 652
78675865, 10680, -4321, -10930, 4031, 2963, -968, -741, 481, -381, -97, 302, 867, 851, 667, 215, 511, 1032, 652
78676654, 10680, -4321, -10930, 4031, 2963, -968, -741, 481, -381, -97, 302, 867, 851, 667, 215, 511, 1032, 652
78677465, 10680, -4321, -10930, 4031, 2963, -968, -741, 481, -381, -97, 302, 867, 851, 667, 215, 511, 1032, 652
78682599, 10680, -4321, -10930, 4031, 2963, -968, -741, 481, -381, -97, 302, 867, 851, 667, 215, 511, 1032, 652
78683543, 10653, -4187, -11025, 3986, 2868, -917, -640, 364, -360, -102, 302, 867, 851, 667, 215, 511, 1032, 652
78684360, 10653, -4187, -11025, 3986, 2868, -917, -640, 364, -360, -102, 298, 867, 798, 616, 209, 530, 1083, 679
78685165, 10653, -4187, -11025, 3986, 2868, -917, -640, 364, -360, -102, 298, 867, 798, 616, 209, 530, 1083, 679
78690169, 10653, -4187, -11025, 3986, 2868, -917, -640, 364, -360, -102, 298, 867, 798, 616, 209, 530, 1083, 679
78690990, 10653, -4187, -11025, 3986, 2868, -917, -640, 364, -360, -102, 298, 867, 798, 616, 209, 530, 1083, 679
78691860, 10653, -4187, -11025, 3986, 2868, -917, -640, 364, -360, -102, 298, 867, 798, 616, 209, 530, 1083, 679
78692624, 10653, -4187, -11025, 3986, 2868, -917, -640, 364, -360, -102, 298, 867, 798, 616, 209, 530, 1083, 679
78697581, 10653, -4187, -11025, 3986, 2868, -917, -640, 364, -360, -102, 298, 867, 798, 616, 209, 530, 1083, 679
78698373, 10653, -4187, -11025, 3986, 2868, -917, -640, 364, -360, -102, 298, 867, 798, 616, 209, 530, 1083, 679
78699192, 10653, -4187, -11025, 3986, 2868, -917, -640, 364, -360, -102, 298, 867, 798, 616, 209, 530, 1083, 679
78700013, 10653, -4187, -11025, 3986, 2868, -917, -640, 364, -360, -102, 298, 867, 798, 616, 209, 530, 1083, 679
78705088, 10653, -4187, -11025, 3986, 2868, -917, -640, 364, -360, -102, 298, 867, 798, 616, 209, 530, 1083, 679
78706021, 10623, -4088, -11112, 3923, 2875, -1130, -658, 169, -271, -124, 298, 867, 798, 616, 209, 530, 1083, 679
78706866, 10623, -4088, -11112, 3923, 2875, -1130, -658, 169, -271, -124, 254, 887, 723, 591, 207, 550, 1133, 665
78707673, 10623, -4088, -11112, 3923, 2875, -1130, -658, 169, -271, -124, 254, 887, 723, 591, 207, 550, 1133, 665
78712633, 10623, -4088, -11112, 3923, 2875, -1130, -658, 169, -271, -124, 254, 887, 723, 591, 207, 550, 1133, 665
78713459, 10623, -4088, -11112, 3923, 2875, -1130, -658, 169, -271, -124, 254, 887, 723, 591, 207, 550, 1133, 665
78714302, 10623, -4088, -11112, 3923, 2875, -1130, -658, 169, -271, -124, 254, 887, 723, 591, 207, 550, 1133, 665
78715093, 10623, -4088, -11112, 3923, 2875, -1130, -658, 169, -271, -124, 254, 887, 723, 591, 207, 550, 1133, 665
78720043, 10623, -4088, -11112, 3923, 2875, -1130, -658, 169, -271, -124, 254, 887, 723, 591, 207, 550, 1133, 665
78720876, 10623, -4088, -11112, 3923, 2875, -1130, -658, 169, -271, -124, 254, 887, 723, 591, 207, 550, 1133, 665
78721669, 10623, -4088, -11112, 3923, 2875, -1130, -658, 169, -271, -124, 254, 887, 723, 591, 207, 550, 1133, 665
78722495, 10623, -4088, -11112, 3923, 2875, -1130, -658, 169, -271, -124, 254, 887, 723, 591, 207, 550, 1133, 665
78727611, 10623, -4088, -11112, 3923, 2875, -1130, -658, 169, -271, -124, 254, 887, 723, 591, 207, 550, 1133, 665
78728490, 10604, -3990, -11194, 3845, 2920, -949, -641, 118, -201, -118, 254, 887, 723, 591, 207, 550, 1133, 665
78729317, 10604, -3990, -11194, 3845, 2920, -949, -641, 118, -201, -118, 200, 857, 651, 423, 179, 484, 1058, 509
78730121, 10604, -3990, -11194, 3845, 2920, -949, -641, 118, -201, -118, 200, 857, 651, 423, 179, 484, 1058, 509
78735133, 10604, -3990, -11194, 3845, 2920, -949, -641, 118, -201, -118, 200, 857, 651, 423, 179, 484, 1058, 509
78735943, 10604, -3990, -11194, 3845, 2920, -949, -641, 118, -201, -118, 200, 857, 651, 423, 179, 484, 1058, 509
78736760, 10604, -3990, -11194, 3845, 2920, -949, -641, 118, -201, -118, 200, 857, 651, 423, 179, 484, 1058, 509
78737594, 10604, -3990, -11194, 3845, 2920, -949, -641, 118, -201, -118, 200, 857, 651, 423, 179, 484, 1058, 509
78742525, 10604, -3990, -11194, 3845, 2920, -949, -641, 118, -201, -118, 200, 857, 651, 423, 179, 484, 1058, 509
78743346, 10604, -3990, -11194, 3845, 2920, -949, -641, 118, -201, -118, 200, 857, 651, 423, 179, 484, 1058, 509
78744143, 10604, -3990, -11194, 3845, 2920, -949, -641, 118, -201, -118, 200, 857, 651, 423, 179, 484, 1058, 509
78744965, 10604, -3990, -11194, 3845, 2920, -949, -641, 118, -201, -118, 200, 857, 651, 423, 179, 484, 1058, 509
78750089, 10604, -3990, -11194, 3845, 2920, -949, -641, 118, -201, -118, 200, 857, 651, 423, 179, 484, 1058, 509
78751035, 10565, -3935, -11286, 3736, 2892, -971, -740, -172, -188, -97, 200, 857, 651, 423, 179, 484, 1058, 509
78751851, 10565, -3935, -11286, 3736, 2892, -971, -740, -172, -188, -97, 197, 766, 686, 379, 176, 416, 1043, 460
78752668, 10565, -3935, -11286, 3736, 2892, -971, -740, -172, -188, -97, 197, 766, 686, 379, 176, 416, 1043, 460
78757672, 10565, -3935, -11286, 3736, 2892, -971, -740, -172, -188, -97, 197, 766, 686, 379, 176, 416, 1043, 460
78758493, 10565, -3935, -11286, 3736, 2892, -971, -740, -172, -188, -97, 197, 766, 686, 379, 176, 416, 1043, 460
78759295, 10565, -3935, -11286, 3736, 2892, -971, -740, -172, -188, -97, 197, 766, 686, 379, 176, 416, 1043, 460
78760121, 10565, -3935, -11286, 3736, 2892, -971, -740, -172, -188, -97, 197, 766, 686, 379, 176, 416, 1043, 460
78765067, 10565, -3935, -11286, 3736, 2892, -971, -740, -172, -188, -97, 197, 766, 686, 379, 176, 416, 1043, 460
78765859, 10565, -3935, -11286, 3736, 2892, -971, -740, -172, -188, -97, 197, 766, 686, 379, 176, 416, 1043, 460
78766675, 10565, -3935, -11286, 3736, 2892, -971, -740, -172, -188, -97, 197, 766, 686, 379, 176, 416, 1043, 460
78767509, 10565, -3935, -11286, 3736, 2892, -971, -740, -172, -188, -97, 197, 766, 686, 379, 176, 416, 1043, 460
78772588, 10565, -3935, -11286, 3736, 2892, -971, -740, -172, -188, -97, 197, 766, 686, 379, 176, 416, 1043, 460
78773514, 10537, -3886, -11364, 3627, 2887, -1035, -694, -185, -122, -117, 197, 766, 686, 379, 176, 416, 1043, 460
78774314, 10537, -3886, -11364, 3627, 2887, -1035, -694, -185, -122, -117, 199, 790, 625, 349, 149, 415, 1080, 439
78775139, 10537, -3886, -11364, 3627, 2887, -1035, -694, -185, -122, -117, 199, 790, 625, 349, 149, 415, 1080, 439
78780142, 10537, -3886, -11364, 3627, 2887, -1035, -694, -185, -122, -117, 199, 790, 625, 349, 149, 415, 1080, 439
78780965, 10537, -3886, -11364, 3627, 2887, -1035, -694, -185, -122, -117, 199, 790, 625, 349, 149, 415, 1080, 439
78781773, 10537, -3886, -11364, 3627, 2887, -1035, -694, -185, -122, -117, 199, 790, 625, 349, 149, 415, 1080, 439
78782595, 10537, -3886, -11364, 3627, 2887, -1035, -694, -185, -122, -117, 199, 790, 625, 349, 149, 415, 1080, 439
78787553, 10537, -3886, -11364, 3627, 2887, -1035, -694, -185, -122, -117, 199, 790, 625, 349, 149, 415, 1080, 439
78788372, 10537, -3886, -11364, 3627, 2887, -1035, -694, -185, -122, -117, 199, 790, 625, 349, 149, 415, 1080, 439
78789167, 10537, -3886, -11364, 3627, 2887, -1035, -694, -185, -122, -117, 199, 790, 625, 349, 149, 415, 1080, 439
78789993, 10537, -3886, -11364, 3627, 2887, -1035, -694, -185, -122, -117, 199, 790, 625, 349, 149, 415, 1080, 439
78795043, 10537, -3886, -11364, 3627, 2887, -1035, -694, -185, -122, -117, 199, 790, 625, 349, 149, 415, 1080, 439
78795993, 10513, -3842, -11437, 3513, 2843, -1009, -681, -226, -93, -148, 199, 790, 625, 349, 149, 415, 1080, 439
78796871, 10513, -3842, -11437, 3513, 2843, -1009, -681, -226, -93, -148, 188, 679, 656, 278, 155, 369, 935, 400
78797566, 10513, -3842, -11437, 3513, 2843, -1009, -681, -226, -93, -148, 188, 679, 656, 278, 155, 369, 935, 400
78802604, 10513, -3842, -11437, 3513, 2843, -1009, -681, -226, -93, -148, 188, 679, 656, 278, 155, 369, 935, 400
78803442, 10513, -3842, -11437, 3513, 2843, -1009, -681, -226, -93, -148, 188, 679, 656, 278, 155, 369, 935, 400
78804245, 10513, -3842, -11437, 3513, 2843, -1009, -681, -226, -93, -148, 188, 679, 656, 278, 155, 369, 935, 400
78805072, 10513, -3842, -11437, 3513, 2843, -1009, -681, -226, -93, -148, 188, 679, 656, 278, 155, 369, 935, 400
78810068, 10513, -3842, -11437, 3513, 2843, -1009, -681, -226, -93, -148, 188, 679, 656, 278, 155, 369, 935, 400
78810896, 10513, -3842, -11437, 3513, 2843, -1009, -681, -226, -93, -148, 188, 679, 656, 278, 155, 369, 935, 400
78811726, 10513, -3842, -11437, 3513, 2843, -1009, -681, -226, -93, -148, 188, 679, 656, 278, 155, 369, 935, 400
78812517, 10513, -3842, -11437, 3513, 2843, -1009, -681, -226, -93, -148, 188, 679, 656, 278, 155, 369, 935, 400
78817596, 10513, -3842, -11437, 3513, 2843, -1009, -681, -226, -93, -148, 188, 679, 656, 278, 155, 369, 935, 400
78818519, 10496, -3806, -11499, 3400, 2860, -1035, -653, -250, -37, -130, 188, 679, 656, 278, 155, 369, 935, 400
78819333, 10496, -3806, -11499, 3400, 2860, -1035, -653, -250, -37, -130, 221, 701, 706, 257, 141, 283, 871, 378
78820160, 10496, -3806, -11499, 3400, 2860, -1035, -653, -250, -37, -130, 221, 701, 706, 257, 141, 283, 871, 378
78825163, 10496, -3806, -11499, 3400, 2860, -1035, -653, -250, -37, -130, 221, 701, 706, 257, 141, 283, 871, 378
78825966, 10496, -3806, -11499, 3400, 2860, -1035, -653, -250, -37, -130, 221, 701, 706, 257, 141, 283, 871, 378
78826785, 10496, -3806, -11499, 3400, 2860, -1035, -653, -250, -37, -130, 221, 701, 706, 257, 141, 283, 871, 378
78827600, 10496, -3806, -11499, 3400, 2860, -1035, -653, -250, -37, -130, 221, 701, 706, 257, 141, 283, 871, 378
78831242, 10496, -3806, -11499, 3400, 2860, -1035, -653, -250, -37, -130, 221, 701, 706, 257, 141, 283, 871, 378
78832070, 10496, -3806, -11499, 3400, 2860, -1035, -653, -250, -37, -130, 221, 701, 706, 257, 141, 283, 871, 378
78832871, 10496, -3806, -11499, 3400, 2860, -1035, -653, -250, -37, -130, 221, 701, 706, 257, 141, 283, 871, 378
78844919, 9815, -4017, -12471, 683, 2972, -1017, -1064, -1606, 1, -868, 221, 701, 706, 257, 141, 283, 871, 378
78853087, 9815, -4017, -12471, 683, 2972, -1017, -1064, -1606, 1, -868, 221, 410, 196, 124, 82, 81, 90, 96
78853910, 9815, -4017, -12471, 683, 2972, -1017, -1064, -1606, 1, -868, 221, 410, 196, 124, 82, 81, 90, 96
78860065, 9748, -4048, -12526, 346, 2987, -1092, -1107, -1640, 17, -1057, 221, 410, 196, 124, 82, 81, 90, 96
78868033, 9748, -4048, -12526, 346, 2987, -1092, -1107, -1640, 17, -1057, 230, 351, 172, 113, 82, 80, 85, 97
78868866, 9748, -4048, -12526, 346, 2987, -1092, -1107, -1640, 17, -1057, 230, 351, 172, 113, 82, 80, 85, 97
78882417, 9667, -4051, -12593, 38, 2957, -1235, -1121, -1473, -81, -1238, 230, 351, 172, 113, 82, 80, 85, 97
78890513, 9667, -4051, -12593, 38, 2957, -1235, -1121, -1473, -81, -1238, 229, 335, 136, 87, 79, 79, 77, 96
78891356, 9667, -4051, -12593, 38, 2957, -1235, -1121, -1473, -81, -1238, 229, 335, 136, 87, 79, 79, 77, 96
78904905, 9569, -4003, -12681, -220, 3018, -1258, -1255, -1127, -253, -1372, 229, 335, 136, 87, 79, 79, 77, 96
78913101, 9569, -4003, -12681, -220, 3018, -1258, -1255, -1127, -253, -1372, 222, 305, 132, 84, 79, 83, 67, 95
78913898, 9569, -4003, -12681, -220, 3018, -1258, -1255, -1127, -253, -1372, 222, 305, 132, 84, 79, 83, 67, 95
78920062, 9460, -3894, -12792, -391, 3071, -1389, -1331, -599, -485, -1495, 222, 305, 132, 84, 79, 83, 67, 95
78928034, 9460, -3894, -12792, -391, 3071, -1389, -1331, -599, -485, -1495, 179, 366, 112, 66, 67, 74, 52, 88
78928855, 9460, -3894, -12792, -391, 3071, -1389, -1331, -599, -485, -1495, 179, 366, 112, 66, 67, 74, 52, 88
78942426, 9341, -3689, -12934, -534, 3104, -1350, -1388, -127, -736, -1645, 179, 366, 112, 66, 67, 74, 52, 88
78950607, 9341, -3689, -12934, -534, 3104, -1350, -1388, -127, -736, -1645, 113, 350, 91, 44, 45, 58, 46, 45
78951386, 9341, -3689, -12934, -534, 3104, -1350, -1388, -127, -736, -1645, 113, 350, 91, 44, 45, 58, 46, 45
78964922, 9207, -3419, -13098, -635, 3150, -1206, -1447, 250, -916, -1822, 113, 350, 91, 44, 45, 58, 46, 45
78973072, 9207, -3419, -13098, -635, 3150, -1206, -1447, 250, -916, -1822, 91, 387, 85, 42, 51, 52, 39, 38
78973892, 9207, -3419, -13098, -635, 3150, -1206, -1447, 250, -916, -1822, 91, 387, 85, 42, 51, 52, 39, 38
78980044, 9042, -3108, -13286, -726, 3223, -1123, -1466, 386, -1144, -2014, 91, 387, 85, 42, 51, 52, 39, 38
78988089, 9042, -3108, -13286, -726, 3223, -1123, -1466, 386, -1144, -2014, 99, 447, 79, 40, 49, 94, 36, 31
78988886, 9042, -3108, -13286, -726, 3223, -1123, -1466, 386, -1144, -2014, 99, 447, 79, 40, 49, 94, 36, 31
79002423, 8846, -2781, -13483, -826, 3366, -982, -1492, 366, -1314, -2125, 99, 447, 79, 40, 49, 94, 36, 31
79010574, 8846, -2781, -13483, -826, 3366, -982, -1492, 366, -1314, -2125, 101, 450, 82, 39, 53, 104, 37, 28
79011390, 8846, -2781, -13483, -826, 3366, -982, -1492, 366, -1314, -2125, 101, 450, 82, 39, 53, 104, 37, 28
79033763, 8652, -2444, -13667, -914, 3525, -736, -1510, 448, -1296, -2108, 101, 450, 82, 39, 53, 104, 37, 28
79034630, 8652, -2444, -13667, -914, 3525, -736, -1510, 448, -1296, -2108, 107, 387, 72, 37, 53, 106, 35, 26
79035389, 8652, -2444, -13667, -914, 3525, -736, -1510, 448, -1296, -2108, 107, 387, 72, 37, 53, 106, 35, 26
79040017, 8464, -2099, -13836, -991, 3619, -742, -1539, 519, -1244, -2115, 107, 387, 72, 37, 53, 106, 35, 26
79048068, 8464, -2099, -13836, -991, 3619, -742, -1539, 519, -1244, -2115, 108, 373, 72, 38, 53, 110, 35, 25
79048866, 8464, -2099, -13836, -991, 3619, -742, -1539, 519, -1244, -2115, 108, 373, 72, 38, 53, 110, 35, 25
79062441, 8274, -1735, -13994, -1072, 3728, -766, -1561, 531, -1228, -2225, 108, 373, 72, 38, 53, 110, 35, 25
79070550, 8274, -1735, -13994, -1072, 3728, -766, -1561, 531, -1228, -2225, 101, 333, 73, 36, 40, 112, 35, 26
79071362, 8274, -1735, -13994, -1072, 3728, -766, -1561, 531, -1228, -2225, 101, 333, 73, 36, 40, 112, 35, 26
79084931, 8081, -1348, -14141, -1166, 3795, -733, -1569, 526, -1217, -2384, 101, 333, 73, 36, 40, 112, 35, 26
79093036, 8081, -1348, -14141, -1166, 3795, -733, -1569, 526, -1217, -2384, 83, 244, 93, 36, 41, 78, 31, 25
79093861, 8081, -1348, -14141, -1166, 3795, -733, -1569, 526, -1217, -2384, 83, 244, 93, 36, 41, 78, 31, 25
79100018, 7873, -963, -14278, -1289, 3971, -559, -1550, 369, -1277, -2457, 83, 244, 93, 36, 41, 78, 31, 25
79108045, 7873, -963, -14278, -1289, 3971, -559, -1550, 369, -1277, -2457, 83, 180, 89, 33, 35, 59, 32, 23
79108871, 7873, -963, -14278, -1289, 3971, -559, -1550, 369, -1277, -2457, 83, 180, 89, 33, 35, 59, 32, 23
79122435, 7676, -604, -14395, -1400, 4211, -132, -1522, 374, -1223, -2258, 83, 180, 89, 33, 35, 59, 32, 23
79130545, 7676, -604, -14395, -1400, 4211, -132, -1522, 374, -1223, -2258, 63, 168, 97, 34, 34, 57, 37, 22
79131364, 7676, -604, -14395, -1400, 4211, -132, -1522, 374, -1223, -2258, 63, 168, 97, 34, 34, 57, 37, 22
79144932, 7495, -281, -14490, -1490, 4256, -41, -1599, 378, -1117, -2018, 63, 168, 97, 34, 34, 57, 37, 22
79153042, 7495, -281, -14490, -1490, 4256, -41, -1599, 378, -1117, -2018, 53, 149, 99, 31, 32, 49, 35, 21
79153857, 7495, -281, -14490, -1490, 4256, -41, -1599, 378, -1117, -2018, 53, 149, 99, 31, 32, 49, 35, 21
79160060, 7323, -1, -14571, -1582, 4327, 12, -1592, 244, -1076, -1820, 53, 149, 99, 31, 32, 49, 35, 21
79168055, 7323, -1, -14571, -1582, 4327, 12, -1592, 244, -1076, -1820, 51, 118, 102, 32, 32, 47, 34, 22
79168852, 7323, -1, -14571, -1582, 4327, 12, -1592, 244, -1076, -1820, 51, 118, 102, 32, 32, 47, 34, 22
79182472, 7264, 201, -14594, -1628, 4330, 58, -1541, 138, -990, -1591, 51, 118, 102, 32, 32, 47, 34, 22
79190548, 7264, 201, -14594, -1628, 4330, 58, -1541, 138, -990, -1591, 49, 132, 108, 40, 30, 42, 35, 20
79191339, 7264, 201, -14594, -1628, 4330, 58, -1541, 138, -990, -1591, 49, 132, 108, 40, 30, 42, 35, 20
79213749, 7230, 362, -14603, -1675, 4309, 159, -1529, 41, -865, -1358, 49, 132, 108, 40, 30, 42, 35, 20
79214565, 7230, 362, -14603, -1675, 4309, 159, -1529, 41, -865, -1358, 36, 134, 106, 42, 29, 33, 31, 22
79215365, 7230, 362, -14603, -1675, 4309, 159, -1529, 41, -865, -1358, 36, 134, 106, 42, 29, 33, 31, 22
79220044, 7210, 493, -14605, -1701, 4311, 110, -1569, 38, -782, -1198, 36, 134, 106, 42, 29, 33, 31, 22
79228039, 7210, 493, -14605, -1701, 4311, 110, -1569, 38, -782, -1198, 33, 140, 98, 43, 24, 26, 24, 21
79228859, 7210, 493, -14605, -1701, 4311, 110, -1569, 38, -782, -1198, 33, 140, 98, 43, 24, 26, 24, 21