Timestamp, Orientation x, Orientation y, Orientation z, Orientation w, Acceleration x, Acceleration y, Acceleration z, Rotation x, Rotation y, Rotation z, EMG 0, EMG 1, EMG 2, EMG 3, EMG 4, EMG 5, EMG 6, EMG 7
0,0.9417064513418114,0.22919640581025957,0.24541030551848902,0.02077857093722449,0.12937512724778166,0.5424495790737611,0.17730994896785024,-0.046753673563233705,0.4223810384805885,0.12217313130787955,0,0,0,0,0,0,0,0
7499,0.9419790501929981,0.23233609755400186,0.23976908860615592,0.03473025942672962,0.13382399896059477,0.5471375601825545,0.1707311432347155,-0.04023375793246048,0.4274403742069763,0.12044549888172362,0,0,0,0,0,0,0,0
29984,0.9422743334194722,0.23813224924179915,0.23023880504878724,0.04901229539245776,0.1366501718334699,0.5476081827081225,0.1617517564101405,-0.023512211089538604,0.43345801735536243,0.12320826507407709,0,0,0,0,0,0,0,0
52512,0.9432203364426437,0.24884285718791704,0.21107178409952596,0.062139611397426214,0.1399516176787607,0.5498246918856877,0.15231983211356065,0.0033032407875605574,0.4402300288357935,0.12947074608873504,0,0,0,0,0,0,0,0
68897,0.944270793392727,0.2627306243026303,0.18292862542604615,0.07656634899717808,0.14441590894631373,0.5484037816197003,0.14732013922516557,0.032042664306999424,0.45194514098443883,0.13604636691677535,0,0,0,0,0,0,0,0
69634,0.944270793392727,0.2627306243026303,0.18292862542604615,0.07656634899717808,0.14441590894631373,0.5484037816197003,0.14732013922516557,0.032042664306999424,0.45194514098443883,0.13604636691677535,0.0873215785054576,0.06968933669185558,0.04450041981528128,0.05037783375314862,0.04785894206549118,0.04617968094038623,0.05793450881612091,0.11083123425692695
91306,0.9442408768895447,0.2785324618989139,0.1479854756583267,0.09449409015156815,0.1477105914387392,0.541802555168487,0.1439766942586821,0.053125347666098555,0.4680769970291237,0.13771004294783412,0.0873215785054576,0.06968933669185558,0.04450041981528128,0.05037783375314862,0.04785894206549118,0.04617968094038623,0.05793450881612091,0.11083123425692695
92094,0.9442408768895447,0.2785324618989139,0.1479854756583267,0.09449409015156815,0.1477105914387392,0.541802555168487,0.1439766942586821,0.053125347666098555,0.4680769970291237,0.13771004294783412,0.0948782535684299,0.07220822837951302,0.047019311502938706,0.06297229219143577,0.04785894206549118,0.052057094878253565,0.060453400503778336,0.12426532325776658
113832,0.9418254028320505,0.29575315062553403,0.10876227317782126,0.11690060910238631,0.14459784436400624,0.5386564049042832,0.1410264620932965,0.0664042764433933,0.4851276124076803,0.1348430418080034,0.0948782535684299,0.07220822837951302,0.047019311502938706,0.06297229219143577,0.04785894206549118,0.052057094878253565,0.060453400503778336,0.12426532325776658
114623,0.9418254028320505,0.29575315062553403,0.10876227317782126,0.11690060910238631,0.14459784436400624,0.5386564049042832,0.1410264620932965,0.0664042764433933,0.4851276124076803,0.1348430418080034,0.10075566750629723,0.07220822837951302,0.04785894206549118,0.07556675062972293,0.05037783375314862,0.055415617128463476,0.0654911838790932,0.14273719563392107
128820,0.9354239625335442,0.31674761080512887,0.06705576244980455,0.1419735401036432,0.15150707977798394,0.5487694712812321,0.1429022306032769,0.07724236278409596,0.49882600097961505,0.12756905610647867,0.10075566750629723,0.07220822837951302,0.04785894206549118,0.07556675062972293,0.05037783375314862,0.055415617128463476,0.0654911838790932,0.14273719563392107
129649,0.9354239625335442,0.31674761080512887,0.06705576244980455,0.1419735401036432,0.15150707977798394,0.5487694712812321,0.1429022306032769,0.07724236278409596,0.49882600097961505,0.12756905610647867,0.0982367758186398,0.07220822837951302,0.047019311502938706,0.08312342569269521,0.056255247691015954,0.056255247691015954,0.06297229219143577,0.13685978169605373
151288,0.9254884343125874,0.3413973599745415,0.024129838237720524,0.16228601745890026,0.14971424144978107,0.5706459489620893,0.14019108142605236,0.08630579074364769,0.4914388248003584,0.12719676494720436,0.0982367758186398,0.07220822837951302,0.047019311502938706,0.08312342569269521,0.056255247691015954,0.056255247691015954,0.06297229219143577,0.13685978169605373
152078,0.9254884343125874,0.3413973599745415,0.024129838237720524,0.16228601745890026,0.14971424144978107,0.5706459489620893,0.14019108142605236,0.08630579074364769,0.4914388248003584,0.12719676494720436,0.08396305625524769,0.055415617128463476,0.04617968094038623,0.08480268681780016,0.08060453400503778,0.05037783375314862,0.05877413937867338,0.12678421494542402
173847,0.9135141535750168,0.36787545274488703,-0.02091392456643884,0.17240113179760228,0.13014284420365435,0.5859534754048068,0.13875158727782544,0.09745209641281838,0.4680111714080838,0.1359109931906951,0.08396305625524769,0.055415617128463476,0.04617968094038623,0.08480268681780016,0.08060453400503778,0.05037783375314862,0.05877413937867338,0.12678421494542402
174623,0.9135141535750168,0.36787545274488703,-0.02091392456643884,0.17240113179760228,0.13014284420365435,0.5859534754048068,0.13875158727782544,0.09745209641281838,0.4680111714080838,0.1359109931906951,0.07304785894206549,0.055415617128463476,0.05373635600335852,0.0873215785054576,0.08564231738035265,0.051217464315701094,0.04953820319059614,0.10411418975650713
188830,0.9002765166466054,0.39489802958647535,-0.06511671989470783,0.1712236916829212,0.12313370667269768,0.5948687474140498,0.15484068761277708,0.09867399117684239,0.43947853003972115,0.14312271973632323,0.07304785894206549,0.055415617128463476,0.05373635600335852,0.0873215785054576,0.08564231738035265,0.051217464315701094,0.04953820319059614,0.10411418975650713
189630,0.9002765166466054,0.39489802958647535,-0.06511671989470783,0.1712236916829212,0.12313370667269768,0.5948687474140498,0.15484068761277708,0.09867399117684239,0.43947853003972115,0.14312271973632323,0.07136859781696053,0.055415617128463476,0.04534005037783375,0.08144416456759027,0.08564231738035265,0.047019311502938706,0.056255247691015954,0.09571788413098237
211283,0.8874845236609714,0.41892777031941253,-0.1048730773667158,0.16084893894924845,0.13023073479026953,0.6110970046398578,0.16708718799823524,0.08518362570212415,0.4112908600389914,0.1492204192189901,0.07136859781696053,0.055415617128463476,0.04534005037783375,0.08144416456759027,0.08564231738035265,0.047019311502938706,0.056255247691015954,0.09571788413098237
212077,0.8874845236609714,0.41892777031941253,-0.1048730773667158,0.16084893894924845,0.13023073479026953,0.6110970046398578,0.16708718799823524,0.08518362570212415,0.4112908600389914,0.1492204192189901,0.07220822837951302,0.05877413937867338,0.04869857262804366,0.07304785894206549,0.08144416456759027,0.051217464315701094,0.056255247691015954,0.0654911838790932
233800,0.8771369106886655,0.43612093624493276,-0.13961764823769698,0.14469374961263004,0.1391645140464876,0.6353769736111979,0.15982088735445477,0.06640155229020048,0.3863212539184398,0.1586079362432682,0.07220822837951302,0.05877413937867338,0.04869857262804366,0.07304785894206549,0.08144416456759027,0.051217464315701094,0.056255247691015954,0.0654911838790932
234623,0.8771369106886655,0.43612093624493276,-0.13961764823769698,0.14469374961263004,0.1391645140464876,0.6353769736111979,0.15982088735445477,0.06640155229020048,0.3863212539184398,0.1586079362432682,0.0654911838790932,0.05709487825356843,0.05373635600335852,0.06465155331654072,0.07556675062972293,0.05373635600335852,0.056255247691015954,0.0654911838790932
248796,0.8707457071240836,0.444480475476025,-0.17232867715021227,0.12058958278907929,0.1457965036986703,0.6579272967102149,0.1477099972535279,0.05463008908050851,0.35336465553297686,0.1767454894244887,0.0654911838790932,0.05709487825356843,0.05373635600335852,0.06465155331654072,0.07556675062972293,0.05373635600335852,0.056255247691015954,0.0654911838790932
249614,0.8707457071240836,0.444480475476025,-0.17232867715021227,0.12058958278907929,0.1457965036986703,0.6579272967102149,0.1477099972535279,0.05463008908050851,0.35336465553297686,0.1767454894244887,0.061293031066330814,0.06717044500419815,0.05289672544080604,0.06633081444164568,0.054575986565911,0.060453400503778336,0.06213266162888329,0.06465155331654072
271366,0.8678529518396851,0.44406842975272054,-0.20515942642086715,0.08685674084813001,0.14697423813041666,0.6743106128209762,0.1321032446666877,0.05052815948304193,0.316752573504189,0.19796029217971453,0.061293031066330814,0.06717044500419815,0.05289672544080604,0.06633081444164568,0.054575986565911,0.060453400503778336,0.06213266162888329,0.06465155331654072
272151,0.8678529518396851,0.44406842975272054,-0.20515942642086715,0.08685674084813001,0.14697423813041666,0.6743106128209762,0.1321032446666877,0.05052815948304193,0.316752573504189,0.19796029217971453,0.061293031066330814,0.06213266162888329,0.04617968094038623,0.061293031066330814,0.04869857262804366,0.05961376994122586,0.06465155331654072,0.06297229219143577
293795,0.8660418460054786,0.4379097757354764,-0.23675732510286576,0.04639523998066317,0.1322384469622273,0.6729414890112775,0.1210853136124096,0.04632049987582279,0.2920191638344507,0.20901785460905908,0.061293031066330814,0.06213266162888329,0.04617968094038623,0.061293031066330814,0.04869857262804366,0.05961376994122586,0.06465155331654072,0.06297229219143577
294617,0.8660418460054786,0.4379097757354764,-0.23675732510286576,0.04639523998066317,0.1322384469622273,0.6729414890112775,0.1210853136124096,0.04632049987582279,0.2920191638344507,0.20901785460905908,0.05793450881612091,0.061293031066330814,0.04617968094038623,0.06297229219143577,0.052057094878253565,0.05961376994122586,0.05877413937867338,0.05709487825356843
308773,0.8652673499828507,0.42950779661407823,-0.2584769942513887,0.005010902527726013,0.10142758642458055,0.6372089946015583,0.11563358444946331,0.020456854711902756,0.2839363819417211,0.19909804186343555,0.05793450881612091,0.061293031066330814,0.04617968094038623,0.06297229219143577,0.052057094878253565,0.05961376994122586,0.05877413937867338,0.05709487825356843
309621,0.8652673499828507,0.42950779661407823,-0.2584769942513887,0.005010902527726013,0.10142758642458055,0.6372089946015583,0.11563358444946331,0.020456854711902756,0.2839363819417211,0.19909804186343555,0.052057094878253565,0.060453400503778336,0.0436607892527288,0.06465155331654072,0.05037783375314862,0.05289672544080604,0.05793450881612091,0.05289672544080604
331331,0.8639265126124007,0.42503514081868193,-0.26810857323582327,-0.03307420191130643,0.03699518464660323,0.5922083318680836,0.10168396961128884,-0.01992575944500502,0.2964100480214603,0.17006132335559826,0.052057094878253565,0.060453400503778336,0.0436607892527288,0.06465155331654072,0.05037783375314862,0.05289672544080604,0.05793450881612091,0.05289672544080604
332116,0.8639265126124007,0.42503514081868193,-0.26810857323582327,-0.03307420191130643,0.03699518464660323,0.5922083318680836,0.10168396961128884,-0.01992575944500502,0.2964100480214603,0.17006132335559826,0.07052896725440806,0.07388748950461797,0.05037783375314862,0.0688497061293031,0.056255247691015954,0.051217464315701094,0.06717044500419815,0.051217464315701094
353778,0.8644111928572645,0.42935171022184315,-0.2561951439515539,-0.053051360098515146,0.0025800545093144223,0.5660675999396607,0.09967327453315539,-0.07643958257865913,0.34731552746908917,0.11696065154382768,0.07052896725440806,0.07388748950461797,0.05037783375314862,0.0688497061293031,0.056255247691015954,0.051217464315701094,0.06717044500419815,0.051217464315701094
354603,0.8644111928572645,0.42935171022184315,-0.2561951439515539,-0.053051360098515146,0.0025800545093144223,0.5660675999396607,0.09967327453315539,-0.07643958257865913,0.34731552746908917,0.11696065154382768,0.12846347607052896,0.12090680100755667,0.17548278757346766,0.23173803526448364,0.15197313182199831,0.06213266162888329,0.08144416456759027,0.0764063811922754
368782,0.8678765214776123,0.4447671272202152,-0.2185945962847604,-0.034481132337829304,0.02971391229320164,0.6013917394814154,0.06863962850658506,-0.1506371196572427,0.44854047896585325,0.04405207867139274,0.12846347607052896,0.12090680100755667,0.17548278757346766,0.23173803526448364,0.15197313182199831,0.06213266162888329,0.08144416456759027,0.0764063811922754
369632,0.8678765214776123,0.4447671272202152,-0.2185945962847604,-0.034481132337829304,0.02971391229320164,0.6013917394814154,0.06863962850658506,-0.1506371196572427,0.44854047896585325,0.04405207867139274,0.14777497900923595,0.12762384550797648,0.21914357682619648,0.3198992443324937,0.21662468513853905,0.09907640638119228,0.11670864819479429,0.10411418975650713
391947,0.8675689657358329,0.46971869219066703,-0.1611398914824273,0.026877039862647653,0.10355380640096917,0.6714081223706678,0.0277147498785551,-0.20388111287411315,0.5641058397506991,-0.022846514924519112,0.14777497900923595,0.12762384550797648,0.21914357682619648,0.3198992443324937,0.21662468513853905,0.09907640638119228,0.11670864819479429,0.10411418975650713
392769,0.8675689657358329,0.46971869219066703,-0.1611398914824273,0.026877039862647653,0.10355380640096917,0.6714081223706678,0.0277147498785551,-0.20388111287411315,0.5641058397506991,-0.022846514924519112,0.1964735516372796,0.1528127623845508,0.23761544920235098,0.3417296389588581,0.24685138539042822,0.10579345088161209,0.12342569269521411,0.1309823677581864
413793,0.8567088595839287,0.4891324097634465,-0.10723148331075291,0.12369650203778773,0.15574229148967178,0.7330306675789446,-0.031827990378462956,-0.19892840568627884,0.6526635490094099,-0.034939765044029125,0.1964735516372796,0.1528127623845508,0.23761544920235098,0.3417296389588581,0.24685138539042822,0.10579345088161209,0.12342569269521411,0.1309823677581864
414592,0.8567088595839287,0.4891324097634465,-0.10723148331075291,0.12369650203778773,0.15574229148967178,0.7330306675789446,-0.031827990378462956,-0.19892840568627884,0.6526635490094099,-0.034939765044029125,0.20486985726280438,0.15449202350965574,0.2401343408900084,0.34844668345927793,0.24937027707808565,0.10831234256926953,0.12174643157010916,0.14021830394626364
428097,0.8348023327751967,0.4839603550309102,-0.037329516403995955,0.2597959721714124,0.21983822442838497,0.7491483392122752,0.02176047022194766,-0.260327039021133,0.7379085428515275,-0.055313271652479734,0.20486985726280438,0.15449202350965574,0.2401343408900084,0.34844668345927793,0.24937027707808565,0.10831234256926953,0.12174643157010916,0.14021830394626364
428953,0.8348023327751967,0.4839603550309102,-0.037329516403995955,0.2597959721714124,0.21983822442838497,0.7491483392122752,0.02176047022194766,-0.260327039021133,0.7379085428515275,-0.055313271652479734,0.20235096557514692,0.15197313182199831,0.24265323257766583,0.3534844668345928,0.25440806045340053,0.109151973131822,0.11754827875734676,0.1452560873215785
451370,0.7962284229141973,0.4570214120836679,0.04357975124797783,0.39402098005282005,0.3405060851222059,0.7102291121018303,0.14116769437268922,-0.2977449804361939,0.7370984420559076,-0.05320637307412868,0.20235096557514692,0.15197313182199831,0.24265323257766583,0.3534844668345928,0.25440806045340053,0.109151973131822,0.11754827875734676,0.1452560873215785
452148,0.7962284229141973,0.4570214120836679,0.04357975124797783,0.39402098005282005,0.3405060851222059,0.7102291121018303,0.14116769437268922,-0.2977449804361939,0.7370984420559076,-0.05320637307412868,0.17716204869857263,0.11922753988245172,0.17800167926112512,0.28211586901763225,0.21326616288832914,0.10327455919395466,0.10495382031905962,0.1418975650713686
473812,0.7663981971947137,0.4514559952858066,0.09825854108225673,0.44628079362838485,0.3293661902769248,0.5016286728904726,0.2872101041025769,-0.2187876039966172,0.53413072713315,0.01431737856453913,0.17716204869857263,0.11922753988245172,0.17800167926112512,0.28211586901763225,0.21326616288832914,0.10327455919395466,0.10495382031905962,0.1418975650713686
474601,0.7663981971947137,0.4514559952858066,0.09825854108225673,0.44628079362838485,0.3293661902769248,0.5016286728904726,0.2872101041025769,-0.2187876039966172,0.53413072713315,0.01431737856453913,0.1670864819479429,0.11838790931989925,0.12846347607052896,0.19143576826196473,0.15029387069689337,0.10579345088161209,0.07724601175482787,0.12594458438287154
487443,0.7578162531979278,0.47827948288584343,0.10754305865940575,0.4305783937608625,0.16602884226853387,0.7216963644999073,0.19730560634875166,-0.08760783085520019,0.35649716529616243,0.09014113124411041,0.1670864819479429,0.11838790931989925,0.12846347607052896,0.19143576826196473,0.15029387069689337,0.10579345088161209,0.07724601175482787,0.12594458438287154
495580,0.7578162531979278,0.47827948288584343,0.10754305865940575,0.4305783937608625,0.16602884226853387,0.7216963644999073,0.19730560634875166,-0.08760783085520019,0.35649716529616243,0.09014113124411041,0.10831234256926953,0.09319899244332494,0.09991603694374475,0.15197313182199831,0.09739714525608732,0.13937867338371115,0.07556675062972293,0.09655751469353484
511253,0.7488179762854204,0.5279883146083375,0.0622319823873676,0.39576149180660974,-0.00046939860005562606,0.641776126927478,0.08894705017162885,0.0754339638178688,0.3239527851504449,0.12363640772064832,0.10831234256926953,0.09319899244332494,0.09991603694374475,0.15197313182199831,0.09739714525608732,0.13937867338371115,0.07556675062972293,0.09655751469353484
512088,0.7488179762854204,0.5279883146083375,0.0622319823873676,0.39576149180660974,-0.00046939860005562606,0.641776126927478,0.08894705017162885,0.0754339638178688,0.3239527851504449,0.12363640772064832,0.09739714525608732,0.11670864819479429,0.10243492863140219,0.13937867338371115,0.11502938706968933,0.14693534844668346,0.07808564231738035,0.08144416456759027
533822,0.7474959626091686,0.5850476411843907,-0.01743212572496186,0.3141101151193354,0.11181507579579197,0.6431874785975448,0.14212207018300527,0.1647713326819104,0.20571546290407422,0.18824045750688895,0.09739714525608732,0.11670864819479429,0.10243492863140219,0.13937867338371115,0.11502938706968933,0.14693534844668346,0.07808564231738035,0.08144416456759027
534611,0.7474959626091686,0.5850476411843907,-0.01743212572496186,0.3141101151193354,0.11181507579579197,0.6431874785975448,0.14212207018300527,0.1647713326819104,0.20571546290407422,0.18824045750688895,0.09151973131821999,0.1200671704450042,0.109151973131822,0.12678421494542402,0.10747271200671704,0.1561712846347607,0.08312342569269521,0.07472712006717044
547492,0.7551653489510124,0.6176103360361355,-0.0955336885622742,0.19787896026286844,0.23113361584848907,0.7189600954767719,0.1754449532082909,0.1332294175058007,0.09946729926032061,0.24533602000945953,0.09151973131821999,0.1200671704450042,0.109151973131822,0.12678421494542402,0.10747271200671704,0.1561712846347607,0.08312342569269521,0.07472712006717044
555592,0.7551653489510124,0.6176103360361355,-0.0955336885622742,0.19787896026286844,0.23113361584848907,0.7189600954767719,0.1754449532082909,0.1332294175058007,0.09946729926032061,0.24533602000945953,0.08312342569269521,0.11670864819479429,0.11418975650713686,0.11586901763224182,0.10663308144416457,0.16288832913518053,0.08648194794290512,0.060453400503778336
571273,0.7713138603977501,0.6096032017616639,-0.16228563297593623,0.0843933557209806,0.31416697866581555,0.8118416391581935,0.1325341423665553,0.0745659530875863,0.0670910892258828,0.28883342231269976,0.08312342569269521,0.11670864819479429,0.11418975650713686,0.11586901763224182,0.10663308144416457,0.16288832913518053,0.08648194794290512,0.060453400503778336
572082,0.7713138603977501,0.6096032017616639,-0.16228563297593623,0.0843933557209806,0.31416697866581555,0.8118416391581935,0.1325341423665553,0.0745659530875863,0.0670910892258828,0.28883342231269976,0.07052896725440806,0.12762384550797648,0.10831234256926953,0.09655751469353484,0.10411418975650713,0.14273719563392107,0.07220822837951302,0.060453400503778336
593802,0.7812512809811842,0.5737201057673954,-0.24367738717619322,-0.03336176228095723,0.2565223938788233,0.7691116313171333,0.0902292876132022,0.10097909703056276,0.028221041190485508,0.3450219482224057,0.07052896725440806,0.12762384550797648,0.10831234256926953,0.09655751469353484,0.10411418975650713,0.14273719563392107,0.07220822837951302,0.060453400503778336
594647,0.7812512809811842,0.5737201057673954,-0.24367738717619322,-0.03336176228095723,0.2565223938788233,0.7691116313171333,0.0902292876132022,0.10097909703056276,0.028221041190485508,0.3450219482224057,0.06801007556675064,0.12258606213266163,0.10831234256926953,0.09991603694374475,0.09655751469353484,0.1015952980688497,0.061293031066330814,0.060453400503778336
607490,0.7772444736300932,0.5241693289423897,-0.31251103663697183,-0.15321355941185422,0.1867950744182748,0.6352156086341156,0.06733659549891113,0.07753613953686488,0.01990003007694862,0.33671926646603556,0.06801007556675064,0.12258606213266163,0.10831234256926953,0.09991603694374475,0.09655751469353484,0.1015952980688497,0.061293031066330814,0.060453400503778336
615566,0.7772444736300932,0.5241693289423897,-0.31251103663697183,-0.15321355941185422,0.1867950744182748,0.6352156086341156,0.06733659549891113,0.07753613953686488,0.01990003007694862,0.33671926646603556,0.09739714525608732,0.1418975650713686,0.11586901763224182,0.09655751469353484,0.07052896725440806,0.08984047019311503,0.0654911838790932,0.060453400503778336
631326,0.7833399181520745,0.5045182831808878,-0.29861826798180774,-0.20655992978614288,-0.20702663015989803,0.5103821287455695,-0.05525095638111646,-0.11004136592103231,0.24114913468357915,0.1432801085693512,0.09739714525608732,0.1418975650713686,0.11586901763224182,0.09655751469353484,0.07052896725440806,0.08984047019311503,0.0654911838790932,0.060453400503778336
632087,0.7833399181520745,0.5045182831808878,-0.29861826798180774,-0.20655992978614288,-0.20702663015989803,0.5103821287455695,-0.05525095638111646,-0.11004136592103231,0.24114913468357915,0.1432801085693512,0.1670864819479429,0.21494542401343408,0.12510495382031905,0.417296389588581,0.5869017632241813,0.09403862300587741,0.07304785894206549,0.07388748950461797
653773,0.8041938758050153,0.523939377729905,-0.22900415490176484,-0.16222464553647803,-0.13476925324807132,0.5767745511785141,-0.031778242133686324,-0.2341272193936098,0.5334488366281722,-0.023991725629177008,0.1670864819479429,0.21494542401343408,0.12510495382031905,0.417296389588581,0.5869017632241813,0.09403862300587741,0.07304785894206549,0.07388748950461797
654561,0.8041938758050153,0.523939377729905,-0.22900415490176484,-0.16222464553647803,-0.13476925324807132,0.5767745511785141,-0.031778242133686324,-0.2341272193936098,0.5334488366281722,-0.023991725629177008,0.20486985726280438,0.235936188077246,0.12342569269521411,0.6775818639798489,0.743073047858942,0.1200671704450042,0.0764063811922754,0.08228379513014274
667446,0.8233976652191328,0.5506121899034115,-0.12271806482708195,-0.061504290960439065,0.10794626836170201,0.6520853969284268,-0.021673615828190357,-0.3174598163670469,0.6893220555050028,-0.11763675262043866,0.20486985726280438,0.235936188077246,0.12342569269521411,0.6775818639798489,0.743073047858942,0.1200671704450042,0.0764063811922754,0.08228379513014274
675615,0.8233976652191328,0.5506121899034115,-0.12271806482708195,-0.061504290960439065,0.10794626836170201,0.6520853969284268,-0.021673615828190357,-0.3174598163670469,0.6893220555050028,-0.11763675262043866,0.2770780856423174,0.29303106633081444,0.1385390428211587,0.762384550797649,0.90848026868178,0.13937867338371115,0.07808564231738035,0.10075566750629723
691291,0.8275730884620881,0.5568378376707855,-0.02066856464622674,0.06802364461648137,0.15519508924511372,0.7512343001483957,-0.06384145537072541,-0.31288148188659726,0.7449778469203644,-0.10753595535113436,0.2770780856423174,0.29303106633081444,0.1385390428211587,0.762384550797649,0.90848026868178,0.13937867338371115,0.07808564231738035,0.10075566750629723
692120,0.8275730884620881,0.5568378376707855,-0.02066856464622674,0.06802364461648137,0.15519508924511372,0.7512343001483957,-0.06384145537072541,-0.31288148188659726,0.7449778469203644,-0.10753595535113436,0.2980688497061293,0.30394626364399663,0.1385390428211587,0.7909319899244333,0.9974811083123426,0.1528127623845508,0.10663308144416457,0.18723761544920234
713781,0.8221980392044601,0.531629729661878,0.044448030803532185,0.19845550490139613,0.32765282349032027,0.878286805441238,-0.052766677471971224,-0.23490767146874408,0.7229002806555019,-0.020881008606847218,0.2980688497061293,0.30394626364399663,0.1385390428211587,0.7909319899244333,0.9974811083123426,0.1528127623845508,0.10663308144416457,0.18723761544920234
714592,0.8221980392044601,0.531629729661878,0.044448030803532185,0.19845550490139613,0.32765282349032027,0.878286805441238,-0.052766677471971224,-0.23490767146874408,0.7229002806555019,-0.020881008606847218,0.2947103274559194,0.2972292191435768,0.12930310663308145,0.8035264483627204,1,0.1561712846347607,0.10747271200671704,0.1998320738874895
727491,0.8217175447825962,0.47160233171126653,0.10439541633909916,0.3024452254017992,0.39750078321467175,0.7323401641302469,0.16647862156892007,-0.2547459778065255,0.6310352765492939,0.05153499036534093,0.2947103274559194,0.2972292191435768,0.12930310663308145,0.8035264483627204,1,0.1561712846347607,0.10747271200671704,0.1998320738874895
735599,0.8217175447825962,0.47160233171126653,0.10439541633909916,0.3024452254017992,0.39750078321467175,0.7323401641302469,0.16647862156892007,-0.2547459778065255,0.6310352765492939,0.05153499036534093,0.2703610411418976,0.2502099076406381,0.11167086481947942,0.7069689336691856,0.8144416456759026,0.1452560873215785,0.09739714525608732,0.19731318219983207
751317,0.8105189033717113,0.4521479875232692,0.16131992001265424,0.3355550447585123,0.273588049811699,0.3843862036455217,0.37215721165550986,-0.23237357428948005,0.46551861105770226,0.05223778383734434,0.2703610411418976,0.2502099076406381,0.11167086481947942,0.7069689336691856,0.8144416456759026,0.1452560873215785,0.09739714525608732,0.19731318219983207
752113,0.8105189033717113,0.4521479875232692,0.16131992001265424,0.3355550447585123,0.273588049811699,0.3843862036455217,0.37215721165550986,-0.23237357428948005,0.46551861105770226,0.05223778383734434,0.24265323257766583,0.22837951301427373,0.10579345088161209,0.5020990764063812,0.6968933669185559,0.11754827875734676,0.09739714525608732,0.1964735516372796
773773,0.8048723625218683,0.48446739219554025,0.14722742559752391,0.30950914542165725,0.00952637078806401,0.6969259695874517,0.12399618097528486,-0.017335254475105782,0.3251246318705883,0.12431506483595023,0.24265323257766583,0.22837951301427373,0.10579345088161209,0.5020990764063812,0.6968933669185559,0.11754827875734676,0.09739714525608732,0.1964735516372796
774621,0.8048723625218683,0.48446739219554025,0.14722742559752391,0.30950914542165725,0.00952637078806401,0.6969259695874517,0.12399618097528486,-0.017335254475105782,0.3251246318705883,0.12431506483595023,0.15952980688497062,0.1494542401343409,0.07892527287993283,0.3593618807724601,0.4609571788413098,0.17380352644836272,0.10075566750629723,0.18723761544920234
787471,0.7907862086932335,0.5332946293032906,0.09192667750986283,0.2860131053970179,0.0012546220914805284,0.6108332120020826,0.12636574991368632,0.12284580403336595,0.3521542700526731,0.1404733961892275,0.15952980688497062,0.1494542401343409,0.07892527287993283,0.3593618807724601,0.4609571788413098,0.17380352644836272,0.10075566750629723,0.18723761544920234
795564,0.7907862086932335,0.5332946293032906,0.09192667750986283,0.2860131053970179,0.0012546220914805284,0.6108332120020826,0.12636574991368632,0.12284580403336595,0.3521542700526731,0.1404733961892275,0.13182199832073888,0.14273719563392107,0.08984047019311503,0.28967254408060455,0.20822837951301426,0.20654911838790932,0.08396305625524769,0.10243492863140219
811269,0.7835234842781218,0.5844490085148413,0.009458285501922181,0.2107625366758879,0.15208947224766933,0.6123951780115158,0.15844698499080512,0.19027724030978369,0.21767654290188526,0.21664722856517812,0.13182199832073888,0.14273719563392107,0.08984047019311503,0.28967254408060455,0.20822837951301426,0.20654911838790932,0.08396305625524769,0.10243492863140219
812092,0.7835234842781218,0.5844490085148413,0.009458285501922181,0.2107625366758879,0.15208947224766933,0.6123951780115158,0.15844698499080512,0.19027724030978369,0.21767654290188526,0.21664722856517812,0.11754827875734676,0.12342569269521411,0.10999160369437448,0.2586062132661629,0.19227539882451722,0.21914357682619648,0.08564231738035265,0.0764063811922754
833828,0.7878292515484826,0.6055426561165067,-0.062015044093280736,0.09379390350141183,0.2839621542623088,0.7040897009105702,0.1919064792829681,0.11541574440448259,0.08559833372029749,0.27290129172356825,0.11754827875734676,0.12342569269521411,0.10999160369437448,0.2586062132661629,0.19227539882451722,0.21914357682619648,0.08564231738035265,0.0764063811922754
834621,0.7878292515484826,0.6055426561165067,-0.062015044093280736,0.09379390350141183,0.2839621542623088,0.7040897009105702,0.1919064792829681,0.11541574440448259,0.08559833372029749,0.27290129172356825,0.09655751469353484,0.12426532325776658,0.12342569269521411,0.22082283795130142,0.18807724601175482,0.22082283795130142,0.08564231738035265,0.0688497061293031
847490,0.7961994045577611,0.5910704727981069,-0.127459756579338,-0.021359185865228184,0.2982185305563268,0.8094135950992206,0.1067571008722768,0.06518700882299441,0.055835109324628485,0.30727328767103734,0.09655751469353484,0.12426532325776658,0.12342569269521411,0.22082283795130142,0.18807724601175482,0.22082283795130142,0.08564231738035265,0.0688497061293031
855580,0.7961994045577611,0.5910704727981069,-0.127459756579338,-0.021359185865228184,0.2982185305563268,0.8094135950992206,0.1067571008722768,0.06518700882299441,0.055835109324628485,0.30727328767103734,0.09655751469353484,0.12594458438287154,0.1486146095717884,0.10495382031905962,0.06381192275398824,0.21998320738874896,0.08060453400503778,0.05793450881612091
871297,0.7892192591756952,0.5591674729170477,-0.21034551060059073,-0.14219516288505057,0.22797820862498896,0.7622400505182529,0.04500852528845839,0.10981347847012202,0.025948920863203793,0.35075402005806167,0.09655751469353484,0.12594458438287154,0.1486146095717884,0.10495382031905962,0.06381192275398824,0.21998320738874896,0.08060453400503778,0.05793450881612091
872066,0.7892192591756952,0.5591674729170477,-0.21034551060059073,-0.14219516288505057,0.22797820862498896,0.7622400505182529,0.04500852528845839,0.10981347847012202,0.025948920863203793,0.35075402005806167,0.09403862300587741,0.10831234256926953,0.15365239294710328,0.11335012594458438,0.06633081444164568,0.16456759026028547,0.07304785894206549,0.05373635600335852
893810,0.7778886146204997,0.5275870054724676,-0.24923997534751405,-0.23328242451836106,0.09971708283696129,0.5408835441452642,-0.05108396134831433,0.01203373798366153,0.11820360373387379,0.26104855234870167,0.09403862300587741,0.10831234256926953,0.15365239294710328,0.11335012594458438,0.06633081444164568,0.16456759026028547,0.07304785894206549,0.05373635600335852
894597,0.7778886146204997,0.5275870054724676,-0.24923997534751405,-0.23328242451836106,0.09971708283696129,0.5408835441452642,-0.05108396134831433,0.01203373798366153,0.11820360373387379,0.26104855234870167,0.1418975650713686,0.15533165407220823,0.1670864819479429,0.14273719563392107,0.15365239294710328,0.10327455919395466,0.06465155331654072,0.054575986565911
907470,0.7796010786623806,0.5308435864554149,-0.2272772012590248,-0.24243002836998195,-0.246174853809822,0.5381366241986419,-0.026516077636400126,-0.1046592792578884,0.3819175443559419,0.09066095022625537,0.1418975650713686,0.15533165407220823,0.1670864819479429,0.14273719563392107,0.15365239294710328,0.10327455919395466,0.06465155331654072,0.054575986565911
915596,0.7796010786623806,0.5308435864554149,-0.2272772012590248,-0.24243002836998195,-0.246174853809822,0.5381366241986419,-0.026516077636400126,-0.1046592792578884,0.3819175443559419,0.09066095022625537,0.18807724601175482,0.22334172963895885,0.16876574307304787,0.31150293870696893,0.20151133501259447,0.06717044500419815,0.06801007556675064,0.05877413937867338
931271,0.7991548618982962,0.5498703698950134,-0.15616395954566514,-0.18602930079655877,0.003639565709201209,0.5631730990819097,0.011292825029538045,-0.22296298231516473,0.5732035304987121,-0.034198066437766184,0.18807724601175482,0.22334172963895885,0.16876574307304787,0.31150293870696893,0.20151133501259447,0.06717044500419815,0.06801007556675064,0.05877413937867338
932114,0.7991548618982962,0.5498703698950134,-0.15616395954566514,-0.18602930079655877,0.003639565709201209,0.5631730990819097,0.011292825029538045,-0.22296298231516473,0.5732035304987121,-0.034198066437766184,0.30394626364399663,0.30142737195633923,0.1998320738874895,0.36859781696053734,0.2502099076406381,0.07388748950461797,0.07556675062972293,0.09319899244332494
953762,0.8211962668858945,0.5616674427186783,-0.05262688715843358,-0.08600456842833844,0.13021380247375064,0.6500815720608026,0.01709652452304361,-0.31123160703748726,0.682130859385869,-0.10319476215105722,0.30394626364399663,0.30142737195633923,0.1998320738874895,0.36859781696053734,0.2502099076406381,0.07388748950461797,0.07556675062972293,0.09319899244332494
954579,0.8211962668858945,0.5616674427186783,-0.05262688715843358,-0.08600456842833844,0.13021380247375064,0.6500815720608026,0.01709652452304361,-0.31123160703748726,0.682130859385869,-0.10319476215105722,0.3333333333333333,0.32997481108312343,0.2073887489504618,0.39210747271200674,0.2980688497061293,0.09655751469353484,0.09151973131821999,0.15533165407220823
967420,0.8370355224690498,0.5445090440676945,0.04233635656932774,0.0330010297700699,0.2332750606786696,0.7749731815977885,-0.025036279675239748,-0.31822343582537604,0.7003373149378476,-0.07157450215403949,0.3333333333333333,0.32997481108312343,0.2073887489504618,0.39210747271200674,0.2980688497061293,0.09655751469353484,0.09151973131821999,0.15533165407220823
975614,0.8370355224690498,0.5445090440676945,0.04233635656932774,0.0330010297700699,0.2332750606786696,0.7749731815977885,-0.025036279675239748,-0.31822343582537604,0.7003373149378476,-0.07157450215403949,0.33837111670864817,0.3350125944584383,0.20654911838790932,0.3988245172124265,0.30982367758186397,0.09655751469353484,0.09151973131821999,0.15952980688497062
989971,0.8476324032725309,0.49755838200926916,0.10896817411317805,0.14859644156301932,0.31701195415061945,0.8192929583796001,0.036435968528399976,-0.2739626734498831,0.6681878919329506,0.0035553991930363793,0.33837111670864817,0.3350125944584383,0.20654911838790932,0.3988245172124265,0.30982367758186397,0.09655751469353484,0.09151973131821999,0.15952980688497062
998065,0.8476324032725309,0.49755838200926916,0.10896817411317805,0.14859644156301932,0.31701195415061945,0.8192929583796001,0.036435968528399976,-0.2739626734498831,0.6681878919329506,0.0035553991930363793,0.3165407220822838,0.31150293870696893,0.1897565071368598,0.3887489504617968,0.2770780856423174,0.09655751469353484,0.0873215785054576,0.16120906801007556
1012470,0.8534325907576097,0.43001870140716103,0.1672772805096281,0.2423943912266877,0.3194221281551143,0.6448738700962292,0.18280042046492967,-0.2743701907414613,0.604045677617007,0.051532481037291245,0.3165407220822838,0.31150293870696893,0.1897565071368598,0.3887489504617968,0.2770780856423174,0.09655751469353484,0.0873215785054576,0.16120906801007556
1020602,0.8534325907576097,0.43001870140716103,0.1672772805096281,0.2423943912266877,0.3194221281551143,0.6448738700962292,0.18280042046492967,-0.2743701907414613,0.604045677617007,0.051532481037291245,0.29219143576826195,0.26448362720403024,0.17716204869857263,0.27455919395465994,0.24517212426532325,0.09571788413098237,0.08312342569269521,0.16036943744752308
1027533,0.8333306269138979,0.41804314712599716,0.2275879960540916,0.2810759638253766,0.2077631404709001,0.36437274200100267,0.3309119024833033,-0.24013475013860694,0.4836392067113242,0.015265331470818766,0.29219143576826195,0.26448362720403024,0.17716204869857263,0.27455919395465994,0.24517212426532325,0.09571788413098237,0.08312342569269521,0.16036943744752308
1035569,0.8333306269138979,0.41804314712599716,0.2275879960540916,0.2810759638253766,0.2077631404709001,0.36437274200100267,0.3309119024833033,-0.24013475013860694,0.4836392067113242,0.015265331470818766,0.16960537363560033,0.16624685138539042,0.12594458438287154,0.21662468513853905,0.19395465994962216,0.08312342569269521,0.07304785894206549,0.14693534844668346
1049973,0.822815968607753,0.44210894186074434,0.2264982732951675,0.2760653863220924,0.12170446716558603,0.7411283257597912,0.14180424236866818,-0.04153955722649563,0.38161697207300305,0.10162517705084206,0.16960537363560033,0.16624685138539042,0.12594458438287154,0.21662468513853905,0.19395465994962216,0.08312342569269521,0.07304785894206549,0.14693534844668346
1058089,0.822815968607753,0.44210894186074434,0.2264982732951675,0.2760653863220924,0.12170446716558603,0.7411283257597912,0.14180424236866818,-0.04153955722649563,0.38161697207300305,0.10162517705084206,0.10075566750629723,0.09991603694374475,0.08312342569269521,0.19143576826196473,0.11418975650713686,0.08228379513014274,0.05877413937867338,0.08900083963056256
1072456,0.8124410565328604,0.4833465670556528,0.18160969111062977,0.2708016725760509,0.03087344957245486,0.6284392470759398,0.1322037094840779,0.09298144862900856,0.390105834180915,0.13238144925318282,0.10075566750629723,0.09991603694374475,0.08312342569269521,0.19143576826196473,0.11418975650713686,0.08228379513014274,0.05877413937867338,0.08900083963056256
1080543,0.8124410565328604,0.4833465670556528,0.18160969111062977,0.2708016725760509,0.03087344957245486,0.6284392470759398,0.1322037094840779,0.09298144862900856,0.390105834180915,0.13238144925318282,0.11335012594458438,0.10747271200671704,0.08228379513014274,0.17632241813602015,0.08144416456759027,0.09907640638119228,0.06297229219143577,0.08060453400503778
1087521,0.8082546329655459,0.5364613713056824,0.10160477328961318,0.22047701792096966,0.1264457091611657,0.584194786658467,0.12960759248997733,0.19988457410201127,0.2762598447688885,0.21129752821871944,0.11335012594458438,0.10747271200671704,0.08228379513014274,0.17632241813602015,0.08144416456759027,0.09907640638119228,0.06297229219143577,0.08060453400503778
1095569,0.8082546329655459,0.5364613713056824,0.10160477328961318,0.22047701792096966,0.1264457091611657,0.584194786658467,0.12960759248997733,0.19988457410201127,0.2762598447688885,0.21129752821871944,0.12174643157010916,0.1015952980688497,0.09403862300587741,0.17212426532325778,0.08144416456759027,0.11754827875734676,0.06717044500419815,0.07304785894206549
1109941,0.8101127742475536,0.5746575378223084,0.027563255251482288,0.1128107893105792,0.25325603140951364,0.5996274716442294,0.22537700425569251,0.14786769550653955,0.11639176111251884,0.26942447289680493,0.12174643157010916,0.1015952980688497,0.09403862300587741,0.17212426532325778,0.08144416456759027,0.11754827875734676,0.06717044500419815,0.07304785894206549
1118049,0.8101127742475536,0.5746575378223084,0.027563255251482288,0.1128107893105792,0.25325603140951364,0.5996274716442294,0.22537700425569251,0.14786769550653955,0.11639176111251884,0.26942447289680493,0.12174643157010916,0.11838790931989925,0.0982367758186398,0.181360201511335,0.08312342569269521,0.11670864819479429,0.061293031066330814,0.06717044500419815
1132445,0.8176947531937917,0.5746577384797856,-0.03363608873359053,0.0035196220462720834,0.29162941179139024,0.7883165716703826,0.1389116799046723,0.06924333232229599,0.08174179460170135,0.2973388662140507,0.12174643157010916,0.11838790931989925,0.0982367758186398,0.181360201511335,0.08312342569269521,0.11670864819479429,0.061293031066330814,0.06717044500419815
1140589,0.8176947531937917,0.5746577384797856,-0.03363608873359053,0.0035196220462720834,0.29162941179139024,0.7883165716703826,0.1389116799046723,0.06924333232229599,0.08174179460170135,0.2973388662140507,0.12426532325776658,0.11502938706968933,0.0982367758186398,0.16792611251049538,0.07892527287993283,0.11586901763224182,0.06381192275398824,0.06297229219143577
1147523,0.8140259892004258,0.5601582647976169,-0.10705764637458731,-0.11010480297391666,0.22484796019933273,0.7849818127114672,0.05744197113234173,0.09475516245534991,0.06090037411675726,0.3281179703686239,0.12426532325776658,0.11502938706968933,0.0982367758186398,0.16792611251049538,0.07892527287993283,0.11586901763224182,0.06381192275398824,0.06297229219143577
1155545,0.8140259892004258,0.5601582647976169,-0.10705764637458731,-0.11010480297391666,0.22484796019933273,0.7849818127114672,0.05744197113234173,0.09475516245534991,0.06090037411675726,0.3281179703686239,0.12510495382031905,0.11838790931989925,0.09151973131821999,0.1746431570109152,0.06801007556675064,0.09655751469353484,0.061293031066330814,0.052057094878253565
1169943,0.7946951624178502,0.5437721250367865,-0.17288150244844402,-0.20708322233781518,0.12924973852209612,0.6447365332738526,-0.09913495591340257,0.09359136870046622,0.11049380091664811,0.30171821634107104,0.12510495382031905,0.11838790931989925,0.09151973131821999,0.1746431570109152,0.06801007556675064,0.09655751469353484,0.061293031066330814,0.052057094878253565
1178082,0.7946951624178502,0.5437721250367865,-0.17288150244844402,-0.20708322233781518,0.12924973852209612,0.6447365332738526,-0.09913495591340257,0.09359136870046622,0.11049380091664811,0.30171821634107104,0.12258606213266163,0.13937867338371115,0.10411418975650713,0.1889168765743073,0.08984047019311503,0.08480268681780016,0.06717044500419815,0.05793450881612091
1192457,0.7742839545090766,0.5503389559618981,-0.18181942052880865,-0.2540730006496612,-0.14106686750893943,0.5294852461885763,0.032805102224083005,-0.0015098534614346737,0.2887071557648424,0.15372979715919627,0.12258606213266163,0.13937867338371115,0.10411418975650713,0.1889168765743073,0.08984047019311503,0.08480268681780016,0.06717044500419815,0.05793450881612091
1200554,0.7742839545090766,0.5503389559618981,-0.18181942052880865,-0.2540730006496612,-0.14106686750893943,0.5294852461885763,0.032805102224083005,-0.0015098534614346737,0.2887071557648424,0.15372979715919627,0.13685978169605373,0.18387909319899245,0.09991603694374475,0.21158690176322417,0.15952980688497062,0.08816120906801007,0.08480268681780016,0.06968933669185558
1207606,0.7722020667929993,0.574560312842943,-0.14265610616345695,-0.23072418668340888,-0.05981125749017968,0.5560703768680579,0.04791431502474425,-0.1051533035992755,0.49932237403374197,0.026466077820542944,0.13685978169605373,0.18387909319899245,0.09991603694374475,0.21158690176322417,0.15952980688497062,0.08816120906801007,0.08480268681780016,0.06968933669185558
