Timestamp, Orientation x, Orientation y, Orientation z, Orientation w, Acceleration x, Acceleration y, Acceleration z, Rotation x, Rotation y, Rotation z, EMG 0, EMG 1, EMG 2, EMG 3, EMG 4, EMG 5, EMG 6, EMG 7
0,0.9720478564069006,-0.18263318709616627,0.01649284281951502,0.1466153810538899,-0.5477573551646349,0.5155771946522121,-0.010063694103482346,-0.5689865708450006,0.42796474532678375,0.45161526849339395,0,0,0,0,0,0,0,0
817,0.971887131649387,-0.18294779072454456,0.015756677857083734,0.14736769084926207,-0.5469687915097585,0.514259765237167,-0.01093582374936114,-0.5696897738378881,0.4278811508078513,0.4518436249921573,0,0,0,0,0,0,0,0
14267,0.9716833389076978,-0.1833103261179816,0.015048143412932702,0.14833194735973484,-0.5478692423262349,0.5143583638598281,-0.012012712149360616,-0.5711530448077464,0.42752764807454197,0.45212606882816675,0,0,0,0,0,0,0,0
36786,0.9714942739737646,-0.18349247338360208,0.01444784206514843,0.1494009628731245,-0.5480963969220818,0.5167425354402713,-0.013768296717576012,-0.5719536137081888,0.42751958335872275,0.4523493019772476,0,0,0,0,0,0,0,0
59302,0.9712808752472056,-0.1836975807020033,0.0138014340527442,0.15059276423965734,-0.5485302721968596,0.5170581492276706,-0.012756241887193875,-0.5733693390857593,0.4268190392377991,0.4525502978230335,0,0,0,0,0,0,0,0
67394,0.9712808752472056,-0.1836975807020033,0.0138014340527442,0.15059276423965734,-0.5485302721968596,0.5170581492276706,-0.012756241887193875,-0.5733693390857593,0.4268190392377991,0.4525502978230335,0.03808752025931929,0.027552674230145867,0.019448946515397084,0.01620745542949757,0.019448946515397084,0.025121555915721232,0.05915721231766612,0.03646677471636953
74364,0.9710618783681351,-0.18382467393504287,0.012924753238245212,0.15192191542550665,-0.5512257826915795,0.5176166256732894,-0.008745989013071498,-0.5754674963432054,0.42619404667955674,0.4520262238263522,0.03808752025931929,0.027552674230145867,0.019448946515397084,0.01620745542949757,0.019448946515397084,0.025121555915721232,0.05915721231766612,0.03646677471636953
89958,0.9710618783681351,-0.18382467393504287,0.012924753238245212,0.15192191542550665,-0.5512257826915795,0.5176166256732894,-0.008745989013071498,-0.5754674963432054,0.42619404667955674,0.4520262238263522,0.03646677471636953,0.027552674230145867,0.03322528363047002,0.027552674230145867,0.02188006482982172,0.029983792544570502,0.059967585089141004,0.03079416531604538
96886,0.9707670716673084,-0.183761433054317,0.011636557198913544,0.15397278598784553,-0.5524262860314797,0.520659077103039,-0.0006647845514355932,-0.5824627019210139,0.42406882860661693,0.4511170975442974,0.03646677471636953,0.027552674230145867,0.03322528363047002,0.027552674230145867,0.02188006482982172,0.029983792544570502,0.059967585089141004,0.03079416531604538
112483,0.9707670716673084,-0.183761433054317,0.011636557198913544,0.15397278598784553,-0.5524262860314797,0.520659077103039,-0.0006647845514355932,-0.5824627019210139,0.42406882860661693,0.4511170975442974,0.03565640194489465,0.03403565640194489,0.0753646677471637,0.08914100486223663,0.028363047001620744,0.029173419773095625,0.060777957860615885,0.029173419773095625
119394,0.9705426882553315,-0.18299822529121165,0.009839029889661621,0.15640247218382333,-0.5546656167439057,0.5366189314085988,0.007026910616072912,-0.5893947259793575,0.42311768633757063,0.45141361182552525,0.03565640194489465,0.03403565640194489,0.0753646677471637,0.08914100486223663,0.028363047001620744,0.029173419773095625,0.060777957860615885,0.029173419773095625
127365,0.9705426882553315,-0.18299822529121165,0.009839029889661621,0.15640247218382333,-0.5546656167439057,0.5366189314085988,0.007026910616072912,-0.5893947259793575,0.42311768633757063,0.45141361182552525,0.041329011345218804,0.04213938411669368,0.1126418152350081,0.14910858995137763,0.03322528363047002,0.02593192868719611,0.03727714748784441,0.041329011345218804
134376,0.970691335505502,-0.18146527165965612,0.007417120822022505,0.15739654594286195,-0.5627386634680547,0.5507480843675766,0.006419001229153398,-0.5814189421412579,0.42969373726047333,0.44912364328081034,0.041329011345218804,0.04213938411669368,0.1126418152350081,0.14910858995137763,0.03322528363047002,0.02593192868719611,0.03727714748784441,0.041329011345218804
149911,0.970691335505502,-0.18146527165965612,0.007417120822022505,0.15739654594286195,-0.5627386634680547,0.5507480843675766,0.006419001229153398,-0.5814189421412579,0.42969373726047333,0.44912364328081034,0.04862236628849271,0.08995137763371151,0.3549432739059968,0.34683954619124796,0.0713128038897893,0.03646677471636953,0.03322528363047002,0.04700162074554295
156881,0.9719613649892476,-0.17758622735375057,0.003504249865438347,0.1540842531064793,-0.5798592770656359,0.5693703406538342,0.007426295540684025,-0.5519442481149429,0.4468642115391904,0.4333470498882351,0.04862236628849271,0.08995137763371151,0.3549432739059968,0.34683954619124796,0.0713128038897893,0.03646677471636953,0.03322528363047002,0.04700162074554295
172418,0.9719613649892476,-0.17758622735375057,0.003504249865438347,0.1540842531064793,-0.5798592770656359,0.5693703406538342,0.007426295540684025,-0.5519442481149429,0.4468642115391904,0.4333470498882351,0.06645056726094004,0.20016207455429497,0.5089141004862237,0.5089141004862237,0.1393841166936791,0.07212317666126418,0.05834683954619125,0.09157212317666126
179372,0.9744400802110749,-0.17204214909184012,-0.0030703744313654857,0.14442507335966975,-0.5960156863973027,0.5692811364455077,0.016802590887208757,-0.5066433365308094,0.4768179101716572,0.41290132464919693,0.06645056726094004,0.20016207455429497,0.5089141004862237,0.5089141004862237,0.1393841166936791,0.07212317666126418,0.05834683954619125,0.09157212317666126
187408,0.9744400802110749,-0.17204214909184012,-0.0030703744313654857,0.14442507335966975,-0.5960156863973027,0.5692811364455077,0.016802590887208757,-0.5066433365308094,0.4768179101716572,0.41290132464919693,0.07779578606158834,0.23824959481361427,0.6191247974068071,0.5980551053484603,0.17260940032414912,0.08914100486223663,0.0713128038897893,0.10615883306320907
194389,0.9775323761249909,-0.1654892005493684,-0.01235869700141079,0.12996553672950137,-0.5864206067009925,0.5714807244205586,0.03159483548440256,-0.4729245824959097,0.5091401594353404,0.39900765203828653,0.07779578606158834,0.23824959481361427,0.6191247974068071,0.5980551053484603,0.17260940032414912,0.08914100486223663,0.0713128038897893,0.10615883306320907
209938,0.9775323761249909,-0.1654892005493684,-0.01235869700141079,0.12996553672950137,-0.5864206067009925,0.5714807244205586,0.03159483548440256,-0.4729245824959097,0.5091401594353404,0.39900765203828653,0.07779578606158834,0.23824959481361427,0.619935170178282,0.5972447325769854,0.17179902755267423,0.09157212317666126,0.07698541329011345,0.11021069692058347
216893,0.980514612908382,-0.15852627707233816,-0.025409927235315932,0.11320268967036876,-0.5778945341925121,0.5684553314812247,0.054086065994661925,-0.46189734424876744,0.5429504993161701,0.38657200611621967,0.07779578606158834,0.23824959481361427,0.619935170178282,0.5972447325769854,0.17179902755267423,0.09157212317666126,0.07698541329011345,0.11021069692058347
232388,0.980514612908382,-0.15852627707233816,-0.025409927235315932,0.11320268967036876,-0.5778945341925121,0.5684553314812247,0.054086065994661925,-0.46189734424876744,0.5429504993161701,0.38657200611621967,0.0753646677471637,0.23987034035656402,0.6320907617504052,0.6053484602917342,0.17423014586709887,0.09238249594813615,0.09076175040518639,0.10777957860615883
239345,0.9829641833566651,-0.15062409399173757,-0.04311046090514914,0.09610038869681095,-0.5759463571742915,0.5659746567177633,0.08673265580537753,-0.4684653281131879,0.5744429722942627,0.3685838111693746,0.0753646677471637,0.23987034035656402,0.6320907617504052,0.6053484602917342,0.17423014586709887,0.09238249594813615,0.09076175040518639,0.10777957860615883
247397,0.9829641833566651,-0.15062409399173757,-0.04311046090514914,0.09610038869681095,-0.5759463571742915,0.5659746567177633,0.08673265580537753,-0.4684653281131879,0.5744429722942627,0.3685838111693746,0.06888168557536467,0.22771474878444084,0.5615883306320908,0.5494327390599676,0.16450567260940033,0.09076175040518639,0.09157212317666126,0.10696920583468396
254386,0.9848218309677887,-0.1402432530530855,-0.06318858237906627,0.08040518813648947,-0.5787151680764389,0.5749152350028218,0.11389028469182605,-0.48296331496628075,0.5990182162976796,0.3487320908432298,0.06888168557536467,0.22771474878444084,0.5615883306320908,0.5494327390599676,0.16450567260940033,0.09076175040518639,0.09157212317666126,0.10696920583468396
269963,0.9848218309677887,-0.1402432530530855,-0.06318858237906627,0.08040518813648947,-0.5787151680764389,0.5749152350028218,0.11389028469182605,-0.48296331496628075,0.5990182162976796,0.3487320908432298,0.051053484602917344,0.1426256077795786,0.4319286871961102,0.41491085899513774,0.11426256077795786,0.06888168557536467,0.07779578606158834,0.07293354943273905
276867,0.9858778802212145,-0.1283499102142171,-0.08621025110840003,0.06433427113408574,-0.5744518938099045,0.582738409831789,0.11114402651149458,-0.48562603395652904,0.6248377761825433,0.33443774628485057,0.051053484602917344,0.1426256077795786,0.4319286871961102,0.41491085899513774,0.11426256077795786,0.06888168557536467,0.07779578606158834,0.07293354943273905
292386,0.9858778802212145,-0.1283499102142171,-0.08621025110840003,0.06433427113408574,-0.5744518938099045,0.582738409831789,0.11114402651149458,-0.48562603395652904,0.6248377761825433,0.33443774628485057,0.03646677471636953,0.06726094003241491,0.2576985413290113,0.27957860615883307,0.06320907617504051,0.04943273905996758,0.07212317666126418,0.055105348460291734
299346,0.9858967026156995,-0.11545012353993302,-0.11210029590224924,0.04596177112267705,-0.562871841455514,0.5957159629318914,0.11041346637121024,-0.47439658057226947,0.6547736254572268,0.32464403773849376,0.03646677471636953,0.06726094003241491,0.2576985413290113,0.27957860615883307,0.06320907617504051,0.04943273905996758,0.07212317666126418,0.055105348460291734
307414,0.9858967026156995,-0.11545012353993302,-0.11210029590224924,0.04596177112267705,-0.562871841455514,0.5957159629318914,0.11041346637121024,-0.47439658057226947,0.6547736254572268,0.32464403773849376,0.03646677471636953,0.06807131280388978,0.26904376012965964,0.2901134521880065,0.0640194489465154,0.05348460291734198,0.06564019448946515,0.04700162074554295
314351,0.9844926066293447,-0.10213103290480022,-0.1403643908629169,0.025325824520425283,-0.5572461588385337,0.5916411345215258,0.12197375491588214,-0.46094983689893176,0.6805799118576122,0.31845333273716636,0.03646677471636953,0.06807131280388978,0.26904376012965964,0.2901134521880065,0.0640194489465154,0.05348460291734198,0.06564019448946515,0.04700162074554295
329891,0.9844926066293447,-0.10213103290480022,-0.1403643908629169,0.025325824520425283,-0.5572461588385337,0.5916411345215258,0.12197375491588214,-0.46094983689893176,0.6805799118576122,0.31845333273716636,0.03889789303079417,0.05753646677471637,0.2260940032414911,0.24716369529983792,0.05672609400324149,0.0526742301458671,0.04862236628849271,0.046191247974068074
336859,0.981321582513782,-0.0890482109497407,-0.1704841895638266,0.003675449368777492,-0.5520477830219658,0.5765361878793118,0.13257527141062853,-0.45633123017982663,0.70080859422189,0.31710391866141135,0.03889789303079417,0.05753646677471637,0.2260940032414911,0.24716369529983792,0.05672609400324149,0.0526742301458671,0.04862236628849271,0.046191247974068074
352394,0.981321582513782,-0.0890482109497407,-0.1704841895638266,0.003675449368777492,-0.5520477830219658,0.5765361878793118,0.13257527141062853,-0.45633123017982663,0.70080859422189,0.31710391866141135,0.050243111831442464,0.05186385737439222,0.15235008103727715,0.17341977309562398,0.04943273905996758,0.04943273905996758,0.04294975688816856,0.04376012965964344
359319,0.9764085225496693,-0.07645492485136199,-0.2012488099411302,-0.016731947155772073,-0.543185955364547,0.562227406646041,0.142533274376058,-0.4662653634889572,0.7084253228133948,0.32100042431519665,0.050243111831442464,0.05186385737439222,0.15235008103727715,0.17341977309562398,0.04943273905996758,0.04943273905996758,0.04294975688816856,0.04376012965964344
367386,0.9764085225496693,-0.07645492485136199,-0.2012488099411302,-0.016731947155772073,-0.543185955364547,0.562227406646041,0.142533274376058,-0.4662653634889572,0.7084253228133948,0.32100042431519665,0.05753646677471637,0.051053484602917344,0.14829821717990274,0.15153970826580226,0.046191247974068074,0.05186385737439222,0.07779578606158834,0.04213938411669368
374347,0.9698691807269237,-0.06430745568748583,-0.2324147451401129,-0.03466568419264701,-0.5318217902607911,0.555324385907834,0.14575892753106995,-0.48524284720020033,0.7130216340067631,0.32719373410153385,0.05753646677471637,0.051053484602917344,0.14829821717990274,0.15153970826580226,0.046191247974068074,0.05186385737439222,0.07779578606158834,0.04213938411669368
389890,0.9698691807269237,-0.06430745568748583,-0.2324147451401129,-0.03466568419264701,-0.5318217902607911,0.555324385907834,0.14575892753106995,-0.48524284720020033,0.7130216340067631,0.32719373410153385,0.05915721231766612,0.04213938411669368,0.13695299837925445,0.14019448946515398,0.03484602917341977,0.04457050243111831,0.07212317666126418,0.03646677471636953
396829,0.9619027608275053,-0.05248307989230595,-0.2636359840271737,-0.04984649399370915,-0.5273373671026799,0.5579112783937609,0.14789679462578803,-0.5054402334470354,0.7152786417266923,0.33387113265893564,0.05915721231766612,0.04213938411669368,0.13695299837925445,0.14019448946515398,0.03484602917341977,0.04457050243111831,0.07212317666126418,0.03646677471636953
412368,0.9619027608275053,-0.05248307989230595,-0.2636359840271737,-0.04984649399370915,-0.5273373671026799,0.5579112783937609,0.14789679462578803,-0.5054402334470354,0.7152786417266923,0.33387113265893564,0.08589951377633712,0.04700162074554295,0.08427876823338736,0.08752025931928688,0.03079416531604538,0.03727714748784441,0.07617504051863858,0.03808752025931929
419330,0.9526542775836538,-0.041315893760272615,-0.2945530788258264,-0.06309760755038935,-0.5141479849443548,0.5596439759207286,0.14020954954431178,-0.517126751848323,0.715740084642005,0.3423409172123088,0.08589951377633712,0.04700162074554295,0.08427876823338736,0.08752025931928688,0.03079416531604538,0.03727714748784441,0.07617504051863858,0.03808752025931929
427378,0.9526542775836538,-0.041315893760272615,-0.2945530788258264,-0.06309760755038935,-0.5141479849443548,0.5596439759207286,0.14020954954431178,-0.517126751848323,0.715740084642005,0.3423409172123088,0.09319286871961102,0.04943273905996758,0.07779578606158834,0.08346839546191248,0.02674230145867099,0.03646677471636953,0.07779578606158834,0.03727714748784441
434344,0.942334944188366,-0.031058218599590792,-0.32487309506553746,-0.07414655839259972,-0.49741930757068537,0.5562917496866928,0.13583291557067267,-0.5304601107936034,0.7130596023154328,0.3533614218442403,0.09319286871961102,0.04943273905996758,0.07779578606158834,0.08346839546191248,0.02674230145867099,0.03646677471636953,0.07779578606158834,0.03727714748784441
449863,0.942334944188366,-0.031058218599590792,-0.32487309506553746,-0.07414655839259972,-0.49741930757068537,0.5562917496866928,0.13583291557067267,-0.5304601107936034,0.7130596023154328,0.3533614218442403,0.10777957860615883,0.05429497568881685,0.07050243111831442,0.06564019448946515,0.027552674230145867,0.03808752025931929,0.07941653160453808,0.03970826580226904
456826,0.9313254625054719,-0.02155821564878231,-0.3541251777946068,-0.08224040782333165,-0.48501683708752596,0.5484894045661367,0.12842207969953293,-0.549333971916319,0.7060889121145991,0.36468459877062664,0.10777957860615883,0.05429497568881685,0.07050243111831442,0.06564019448946515,0.027552674230145867,0.03808752025931929,0.07941653160453808,0.03970826580226904
472371,0.9313254625054719,-0.02155821564878231,-0.3541251777946068,-0.08224040782333165,-0.48501683708752596,0.5484894045661367,0.12842207969953293,-0.549333971916319,0.7060889121145991,0.36468459877062664,0.11507293354943274,0.05348460291734198,0.0526742301458671,0.05186385737439222,0.027552674230145867,0.029983792544570502,0.04457050243111831,0.04700162074554295
479327,0.9200465992713653,-0.012074205510662267,-0.38195490294150186,-0.08648075421404303,-0.4674756333439507,0.5480380686057036,0.11830925921427424,-0.5750540071982788,0.6934726679244125,0.3738364367024346,0.11507293354943274,0.05348460291734198,0.0526742301458671,0.05186385737439222,0.027552674230145867,0.029983792544570502,0.04457050243111831,0.04700162074554295
487367,0.9200465992713653,-0.012074205510662267,-0.38195490294150186,-0.08648075421404303,-0.4674756333439507,0.5480380686057036,0.11830925921427424,-0.5750540071982788,0.6934726679244125,0.3738364367024346,0.12317666126418152,0.055915721231766614,0.04051863857374392,0.051053484602917344,0.09076175040518639,0.03970826580226904,0.04700162074554295,0.0526742301458671
494329,0.9090040989096685,-0.0021768148830911965,-0.4077442910844319,-0.08632150792496833,-0.4526687182785277,0.5481506981087356,0.11852805290576415,-0.6068590576356432,0.6739930782129615,0.38103569452833175,0.12317666126418152,0.055915721231766614,0.04051863857374392,0.051053484602917344,0.09076175040518639,0.03970826580226904,0.04700162074554295,0.0526742301458671
509867,0.9090040989096685,-0.0021768148830911965,-0.4077442910844319,-0.08632150792496833,-0.4526687182785277,0.5481506981087356,0.11852805290576415,-0.6068590576356432,0.6739930782129615,0.38103569452833175,0.1094003241491086,0.04862236628849271,0.046191247974068074,0.05348460291734198,0.1272285251215559,0.03970826580226904,0.041329011345218804,0.06482982171799027
516834,0.8980945086429926,0.007654516232394534,-0.4320903279157873,-0.08164318984567791,-0.44738610364443254,0.536715488031186,0.1081776415457244,-0.6378253007557133,0.6609455635733077,0.39272283427738974,0.1094003241491086,0.04862236628849271,0.046191247974068074,0.05348460291734198,0.1272285251215559,0.03970826580226904,0.041329011345218804,0.06482982171799027
532423,0.8980945086429926,0.007654516232394534,-0.4320903279157873,-0.08164318984567791,-0.44738610364443254,0.536715488031186,0.1081776415457244,-0.6378253007557133,0.6609455635733077,0.39272283427738974,0.11750405186385737,0.055105348460291734,0.04862236628849271,0.060777957860615885,0.15721231766612642,0.04700162074554295,0.03484602917341977,0.07455429497568881
539371,0.8875738708868747,0.016953739887715952,-0.4547142017723694,-0.07183445642048367,-0.4288103561674683,0.5271714772258274,0.10899797352739515,-0.6725894859001463,0.6421192125636708,0.4115631693802976,0.11750405186385737,0.055105348460291734,0.04862236628849271,0.060777957860615885,0.15721231766612642,0.04700162074554295,0.03484602917341977,0.07455429497568881
547347,0.8875738708868747,0.016953739887715952,-0.4547142017723694,-0.07183445642048367,-0.4288103561674683,0.5271714772258274,0.10899797352739515,-0.6725894859001463,0.6421192125636708,0.4115631693802976,0.12965964343598055,0.06320907617504051,0.06645056726094004,0.08427876823338736,0.19773095623987033,0.09643435980551053,0.07941653160453808,0.27228525121555913
554337,0.8780343982680333,0.026406251579810525,-0.47455316871556324,-0.0561924852414849,-0.4023290592308658,0.5326149610305628,0.10441795947789331,-0.71207975004674,0.6137202530961684,0.42940313241865846,0.12965964343598055,0.06320907617504051,0.06645056726094004,0.08427876823338736,0.19773095623987033,0.09643435980551053,0.07941653160453808,0.27228525121555913
569869,0.8780343982680333,0.026406251579810525,-0.47455316871556324,-0.0561924852414849,-0.4023290592308658,0.5326149610305628,0.10441795947789331,-0.71207975004674,0.6137202530961684,0.42940313241865846,0.1693679092382496,0.08346839546191248,0.0753646677471637,0.09967585089141005,0.2260940032414911,0.1126418152350081,0.0940032414910859,0.2884927066450567
576873,0.8701606801264407,0.035698851208760596,-0.4903531162806075,-0.033163295043801055,-0.37597099934210404,0.5428674483978642,0.10208997372542472,-0.7607559448686002,0.5735445417044593,0.45619357597155796,0.1693679092382496,0.08346839546191248,0.0753646677471637,0.09967585089141005,0.2260940032414911,0.1126418152350081,0.0940032414910859,0.2884927066450567
592410,0.8701606801264407,0.035698851208760596,-0.4903531162806075,-0.033163295043801055,-0.37597099934210404,0.5428674483978642,0.10208997372542472,-0.7607559448686002,0.5735445417044593,0.45619357597155796,0.24473257698541329,0.1312803889789303,0.07941653160453808,0.1612641815235008,0.3427876823338736,0.15721231766612642,0.11345218800648298,0.33063209076175043
599352,0.8643649877429742,0.04458665310510522,-0.5008835199137145,-0.0009475272136460003,-0.35138344497967955,0.5520008783008643,0.08991821440907052,-0.819627994087907,0.5221932302031751,0.4931824843047379,0.24473257698541329,0.1312803889789303,0.07941653160453808,0.1612641815235008,0.3427876823338736,0.15721231766612642,0.11345218800648298,0.33063209076175043
607366,0.8643649877429742,0.04458665310510522,-0.5008835199137145,-0.0009475272136460003,-0.35138344497967955,0.5520008783008643,0.08991821440907052,-0.819627994087907,0.5221932302031751,0.4931824843047379,0.34683954619124796,0.21393841166936792,0.11507293354943274,0.1993517017828201,0.47649918962722854,0.20826580226904376,0.1693679092382496,0.4651539708265802
614386,0.8611983659430732,0.05267507275075563,-0.5038963138813382,0.04063515798521253,-0.3332800894462435,0.5507008595071319,0.07466503006442879,-0.877373033997112,0.45519717839636376,0.5358167377363959,0.34683954619124796,0.21393841166936792,0.11507293354943274,0.1993517017828201,0.47649918962722854,0.20826580226904376,0.1693679092382496,0.4651539708265802
629915,0.8611983659430732,0.05267507275075563,-0.5038963138813382,0.04063515798521253,-0.3332800894462435,0.5507008595071319,0.07466503006442879,-0.877373033997112,0.45519717839636376,0.5358167377363959,0.4011345218800648,0.2260940032414911,0.12560777957860617,0.21636952998379255,0.5542949756888168,0.2544570502431118,0.21474878444084278,0.5713128038897893
636846,0.860158046375231,0.06331629881621863,-0.49748908521711677,0.09286437233943769,-0.34049530767523173,0.547574058600568,0.04527426805963605,-0.9549195502938974,0.3768436781090949,0.5608330081109546,0.4011345218800648,0.2260940032414911,0.12560777957860617,0.21636952998379255,0.5542949756888168,0.2544570502431118,0.21474878444084278,0.5713128038897893
652390,0.860158046375231,0.06331629881621863,-0.49748908521711677,0.09286437233943769,-0.34049530767523173,0.547574058600568,0.04527426805963605,-0.9549195502938974,0.3768436781090949,0.5608330081109546,0.44327390599675853,0.2787682333873582,0.13614262560777957,0.22042139384116693,0.586709886547812,0.2552674230145867,0.21312803889789303,0.5453808752025932
659357,0.8586810144926151,0.07901588586638694,-0.48373669177346157,0.1497405027464192,-0.3780062182014728,0.5794702737345712,0.027755671553791578,-1.0023900539361335,0.3199392333054936,0.547537741260157,0.44327390599675853,0.2787682333873582,0.13614262560777957,0.22042139384116693,0.586709886547812,0.2552674230145867,0.21312803889789303,0.5453808752025932
666725,0.8586810144926151,0.07901588586638694,-0.48373669177346157,0.1497405027464192,-0.3780062182014728,0.5794702737345712,0.027755671553791578,-1.0023900539361335,0.3199392333054936,0.547537741260157,0.45623987034035657,0.28768233387358183,0.14100486223662884,0.22690437601296595,0.6012965964343598,0.260129659643436,0.21636952998379255,0.5510534846029174
675816,0.8539727958601636,0.09840415379538628,-0.4684260203946611,0.20401997417853446,-0.4397282139770513,0.6591738053694354,0.011240945497385468,-0.9998139481027667,0.3144923611089183,0.5139149426409781,0.45623987034035657,0.28768233387358183,0.14100486223662884,0.22690437601296595,0.6012965964343598,0.260129659643436,0.21636952998379255,0.5510534846029174
689902,0.8539727958601636,0.09840415379538628,-0.4684260203946611,0.20401997417853446,-0.4397282139770513,0.6591738053694354,0.011240945497385468,-0.9998139481027667,0.3144923611089183,0.5139149426409781,0.43841166936790926,0.28038897893030795,0.1458670988654781,0.20826580226904376,0.5502431118314425,0.25040518638573744,0.22285251215559157,0.5307941653160454
696842,0.8477361760637006,0.11113808496736063,-0.45919386032178866,0.24110723860028732,-0.44367254272780166,0.7415564381619741,0.022762730333450443,-0.8616628065977385,0.3734380592887057,0.4956605440617548,0.43841166936790926,0.28038897893030795,0.1458670988654781,0.20826580226904376,0.5502431118314425,0.25040518638573744,0.22285251215559157,0.5307941653160454
712394,0.8477361760637006,0.11113808496736063,-0.45919386032178866,0.24110723860028732,-0.44367254272780166,0.7415564381619741,0.022762730333450443,-0.8616628065977385,0.3734380592887057,0.4956605440617548,0.4019448946515397,0.24959481361426256,0.12884927066450566,0.1880064829821718,0.45948136142625606,0.23014586709886548,0.19043760129659643,0.44894651539708263
719325,0.8448754951277917,0.11764388198807725,-0.4549185439018385,0.25572335282014325,-0.45993079009310295,0.7819156636178594,0.061790384308102686,-0.6430286500592127,0.44626240795921385,0.45161033367593706,0.4019448946515397,0.24959481361426256,0.12884927066450566,0.1880064829821718,0.45948136142625606,0.23014586709886548,0.19043760129659643,0.44894651539708263
726728,0.8448754951277917,0.11764388198807725,-0.4549185439018385,0.25572335282014325,-0.45993079009310295,0.7819156636178594,0.061790384308102686,-0.6430286500592127,0.44626240795921385,0.45161033367593706,0.3711507293354943,0.24878444084278767,0.14100486223662884,0.17828200972447325,0.3557536466774716,0.17990275526742303,0.14748784440842788,0.34359805510534847
735816,0.8439228797152223,0.11512821680208343,-0.4661616333970037,0.23923419140619587,-0.4514170315810717,0.7654223891989128,0.07543027957807447,-0.42783879504111544,0.5229683047820198,0.3861424716844492,0.3711507293354943,0.24878444084278767,0.14100486223662884,0.17828200972447325,0.3557536466774716,0.17990275526742303,0.14748784440842788,0.34359805510534847
749886,0.8439228797152223,0.11512821680208343,-0.4661616333970037,0.23923419140619587,-0.4514170315810717,0.7654223891989128,0.07543027957807447,-0.42783879504111544,0.5229683047820198,0.3861424716844492,0.34521880064829824,0.20745542949756887,0.13371150729335493,0.1685575364667747,0.2893030794165316,0.15964343598055106,0.1426256077795786,0.32982171799027554
756827,0.84619363173672,0.10700713809371293,-0.4826500588384664,0.19888371152117607,-0.38813560641489153,0.7085396835664974,0.034450337993344515,-0.23116734065966366,0.5630412192321097,0.3355632285042018,0.34521880064829824,0.20745542949756887,0.13371150729335493,0.1685575364667747,0.2893030794165316,0.15964343598055106,0.1426256077795786,0.32982171799027554
772368,0.84619363173672,0.10700713809371293,-0.4826500588384664,0.19888371152117607,-0.38813560641489153,0.7085396835664974,0.034450337993344515,-0.23116734065966366,0.5630412192321097,0.3355632285042018,0.3273905996758509,0.1993517017828201,0.13452188006482982,0.1580226904376013,0.24230145867098865,0.14505672609400325,0.13452188006482982,0.32901134521880065
779321,0.8490184929608671,0.09805229013163198,-0.49970163809829277,0.1408957767013735,-0.3557782411581539,0.6824811203328776,0.03236735236023658,-0.10175574407626195,0.5674888110217612,0.27822007258353265,0.3273905996758509,0.1993517017828201,0.13452188006482982,0.1580226904376013,0.24230145867098865,0.14505672609400325,0.13452188006482982,0.32901134521880065
795584,0.8490184929608671,0.09805229013163198,-0.49970163809829277,0.1408957767013735,-0.3557782411581539,0.6824811203328776,0.03236735236023658,-0.10175574407626195,0.5674888110217612,0.27822007258353265,0.3387358184764992,0.21231766612641814,0.1507293354943274,0.1353322528363047,0.2171799027552674,0.12560777957860617,0.11345218800648298,0.33144246353322526
797305,0.8510308903878582,0.09313958606664531,-0.5103935225430278,0.08105487807099021,-0.3155352732601557,0.6560903146795627,0.05157320040218211,-0.10492734331831158,0.5187435224469853,0.25025324739108806,0.3387358184764992,0.21231766612641814,0.1507293354943274,0.1353322528363047,0.2171799027552674,0.12560777957860617,0.11345218800648298,0.33144246353322526
809868,0.8510308903878582,0.09313958606664531,-0.5103935225430278,0.08105487807099021,-0.3155352732601557,0.6560903146795627,0.05157320040218211,-0.10492734331831158,0.5187435224469853,0.25025324739108806,0.3038897893030794,0.18719611021069693,0.14181523500810372,0.12074554294975688,0.21150729335494328,0.09805510534846029,0.10615883306320907,0.2893030794165316
816802,0.8542842972446137,0.08478696050682752,-0.5123066622269024,0.023481793952351247,-0.24762746902317048,0.660651171152106,0.11006478948333148,-0.10877633926067345,0.4533725673434118,0.29534725301052384,0.3038897893030794,0.18719611021069693,0.14181523500810372,0.12074554294975688,0.21150729335494328,0.09805510534846029,0.10615883306320907,0.2893030794165316
832387,0.8542842972446137,0.08478696050682752,-0.5123066622269024,0.023481793952351247,-0.24762746902317048,0.660651171152106,0.11006478948333148,-0.10877633926067345,0.4533725673434118,0.29534725301052384,0.35170178282009723,0.20745542949756887,0.1547811993517018,0.2439222042139384,0.4173419773095624,0.2106969205834684,0.11750405186385737,0.24716369529983792
839358,0.8587269254552622,0.06484922170854378,-0.5075721826244741,-0.027443129700824097,-0.3202472163289613,0.7146778166142487,0.10775812513815819,-0.1064250779445175,0.41610229672807547,0.4019076951374662,0.35170178282009723,0.20745542949756887,0.1547811993517018,0.2439222042139384,0.4173419773095624,0.2106969205834684,0.11750405186385737,0.24716369529983792
855566,0.8587269254552622,0.06484922170854378,-0.5075721826244741,-0.027443129700824097,-0.3202472163289613,0.7146778166142487,0.10775812513815819,-0.1064250779445175,0.41610229672807547,0.4019076951374662,0.326580226904376,0.1920583468395462,0.15883306320907617,0.34359805510534847,0.5194489465153971,0.24959481361426256,0.11588330632090761,0.2179902755267423
857282,0.8586075990847459,0.04008331434777569,-0.5073715883586889,-0.06132201913836905,-0.39901390552423877,0.473309883108399,0.17797295823049183,-0.22854820898868713,0.4631347370966021,0.4795856692010393,0.326580226904376,0.1920583468395462,0.15883306320907617,0.34359805510534847,0.5194489465153971,0.24959481361426256,0.11588330632090761,0.2179902755267423
869879,0.8586075990847459,0.04008331434777569,-0.5073715883586889,-0.06132201913836905,-0.39901390552423877,0.473309883108399,0.17797295823049183,-0.22854820898868713,0.4631347370966021,0.4795856692010393,0.3889789303079417,0.28119935170178284,0.1880064829821718,0.37844408427876824,0.6507293354943274,0.31118314424635335,0.16288492706645058,0.33630470016207453
876846,0.8584020434665854,0.01621130487126618,-0.5085453450922119,-0.0653051096913887,-0.34593453733815777,0.2477858857007973,0.271922179449631,-0.5123570586140489,0.48211460990503985,0.48926646067163915,0.3889789303079417,0.28119935170178284,0.1880064829821718,0.37844408427876824,0.6507293354943274,0.31118314424635335,0.16288492706645058,0.33630470016207453
892354,0.8584020434665854,0.01621130487126618,-0.5085453450922119,-0.0653051096913887,-0.34593453733815777,0.2477858857007973,0.271922179449631,-0.5123570586140489,0.48211460990503985,0.48926646067163915,0.42949756888168555,0.3346839546191248,0.28038897893030795,0.5186385737439222,0.8679092382495948,0.4286871961102107,0.22852512155591573,0.5421393841166937
899351,0.8575613276020255,0.02497701960959728,-0.5125873903576514,-0.03491253555967914,-0.35216300707634374,0.25184920478980366,0.26355340058316234,-0.8267585224386691,0.4476886194801093,0.4757400893060786,0.42949756888168555,0.3346839546191248,0.28038897893030795,0.5186385737439222,0.8679092382495948,0.4286871961102107,0.22852512155591573,0.5421393841166937
915596,0.8575613276020255,0.02497701960959728,-0.5125873903576514,-0.03491253555967914,-0.35216300707634374,0.25184920478980366,0.26355340058316234,-0.8267585224386691,0.4476886194801093,0.4757400893060786,0.4376012965964344,0.36142625607779577,0.2965964343598055,0.5753646677471637,1,0.4683954619124797,0.2479740680713128,0.6077795786061588
917314,0.8543818909018062,0.04182388579570312,-0.5170531565158233,0.030632995495474033,-0.31347913248751524,0.4750785258993954,0.19050621518726607,-1.0887045715947852,0.4371529294792298,0.5675985169595368,0.4376012965964344,0.36142625607779577,0.2965964343598055,0.5753646677471637,1,0.4683954619124797,0.2479740680713128,0.6077795786061588
929879,0.8543818909018062,0.04182388579570312,-0.5170531565158233,0.030632995495474033,-0.31347913248751524,0.4750785258993954,0.19050621518726607,-1.0887045715947852,0.4371529294792298,0.5675985169595368,0.3987034035656402,0.3687196110210697,0.28768233387358183,0.5437601296596435,0.9756888168557536,0.4538087520259319,0.2479740680713128,0.6612641815235009
936798,0.8529720193421477,0.05620150416448674,-0.5092213764078342,0.09986848831507755,-0.22130957678673155,0.5840355756708074,-0.015217138056696916,-1.0801213464179777,0.35373631577779807,0.61627848010957,0.3987034035656402,0.3687196110210697,0.28768233387358183,0.5437601296596435,0.9756888168557536,0.4538087520259319,0.2479740680713128,0.6612641815235009
952326,0.8529720193421477,0.05620150416448674,-0.5092213764078342,0.09986848831507755,-0.22130957678673155,0.5840355756708074,-0.015217138056696916,-1.0801213464179777,0.35373631577779807,0.61627848010957,0.40761750405186387,0.38006482982171796,0.28687196110210694,0.4967585089141005,0.9448946515397083,0.440032414910859,0.26499189627228525,0.673419773095624
959295,0.8579167443014558,0.06628915995755151,-0.4863358534615211,0.15186192662140996,-0.19750918010803833,0.7769882001566338,-0.011197408660596264,-0.9250682412809057,0.23634138059076495,0.6128896658416283,0.40761750405186387,0.38006482982171796,0.28687196110210694,0.4967585089141005,0.9448946515397083,0.440032414910859,0.26499189627228525,0.673419773095624
975569,0.8579167443014558,0.06628915995755151,-0.4863358534615211,0.15186192662140996,-0.19750918010803833,0.7769882001566338,-0.011197408660596264,-0.9250682412809057,0.23634138059076495,0.6128896658416283,0.3557536466774716,0.32820097244732577,0.27957860615883307,0.4878444084278768,0.8743922204213939,0.40761750405186387,0.24554294975688817,0.700162074554295
977284,0.8651812733112412,0.07845554411393424,-0.4587547628037175,0.18668197426165883,-0.37318449108744034,0.8481029486917305,0.029788856709492828,-0.8101944216556745,0.19693083667402525,0.5400977507358435,0.3557536466774716,0.32820097244732577,0.27957860615883307,0.4878444084278768,0.8743922204213939,0.40761750405186387,0.24554294975688817,0.700162074554295
998127,0.8651812733112412,0.07845554411393424,-0.4587547628037175,0.18668197426165883,-0.37318449108744034,0.8481029486917305,0.029788856709492828,-0.8101944216556745,0.19693083667402525,0.5400977507358435,0.2739059967585089,0.2593192868719611,0.17828200972447325,0.3419773095623987,0.6628849270664505,0.2909238249594814,0.18962722852512157,0.5915721231766613
999831,0.8642955097758422,0.08708883669906074,-0.4543139106670052,0.19750361231677233,-0.7293387487226368,0.9161063782140342,0.02699326286655651,-0.666843649650856,0.37877937489233793,0.4330813896055207,0.2739059967585089,0.2593192868719611,0.17828200972447325,0.3419773095623987,0.6628849270664505,0.2909238249594814,0.18962722852512157,0.5915721231766613
1012399,0.8642955097758422,0.08708883669906074,-0.4543139106670052,0.19750361231677233,-0.7293387487226368,0.9161063782140342,0.02699326286655651,-0.666843649650856,0.37877937489233793,0.4330813896055207,0.293354943273906,0.24473257698541329,0.17098865478119935,0.24959481361426256,0.4286871961102107,0.23014586709886548,0.17504051863857376,0.5372771474878444
1019300,0.857807438210809,0.08640344611484888,-0.4742366809440929,0.1783267055065461,-0.5815725104457711,0.8044281003430525,0.11395542343154941,-0.4386976161128999,0.5897721788146788,0.3555223473170761,0.293354943273906,0.24473257698541329,0.17098865478119935,0.24959481361426256,0.4286871961102107,0.23014586709886548,0.17504051863857376,0.5372771474878444
1035575,0.857807438210809,0.08640344611484888,-0.4742366809440929,0.1783267055065461,-0.5815725104457711,0.8044281003430525,0.11395542343154941,-0.4386976161128999,0.5897721788146788,0.3555223473170761,0.3087520259319287,0.2325769854132901,0.1766612641815235,0.2325769854132901,0.33306320907617504,0.18233387358184766,0.16450567260940033,0.49108589951377635
1037281,0.8562481642191668,0.08147893312283033,-0.4914908768061403,0.13651733496081547,-0.3052162178283719,0.7263661027967658,0.16640517162842366,-0.2461527221919336,0.5744035012437207,0.31692986403733747,0.3087520259319287,0.2325769854132901,0.1766612641815235,0.2325769854132901,0.33306320907617504,0.18233387358184766,0.16450567260940033,0.49108589951377635
1058036,0.8562481642191668,0.08147893312283033,-0.4914908768061403,0.13651733496081547,-0.3052162178283719,0.7263661027967658,0.16640517162842366,-0.2461527221919336,0.5744035012437207,0.31692986403733747,0.3225283630470016,0.24230145867098865,0.18071312803889789,0.21961102106969205,0.2739059967585089,0.1685575364667747,0.13695299837925445,0.47244732576985415
1059764,0.8556254680136752,0.07585864234617548,-0.5038304638263127,0.09113390471354141,-0.23372339815226947,0.7035146882817087,0.10285883522376171,-0.2109017548094892,0.5423935500881856,0.31813206830863144,0.3225283630470016,0.24230145867098865,0.18071312803889789,0.21961102106969205,0.2739059967585089,0.1685575364667747,0.13695299837925445,0.47244732576985415
1072359,0.8556254680136752,0.07585864234617548,-0.5038304638263127,0.09113390471354141,-0.23372339815226947,0.7035146882817087,0.10285883522376171,-0.2109017548094892,0.5423935500881856,0.31813206830863144,0.33630470016207453,0.233387358184765,0.16045380875202594,0.1774716369529984,0.21636952998379255,0.14181523500810372,0.11993517017828201,0.3371150729335494
1079318,0.8573378606440386,0.06882805234364739,-0.5081524432876068,0.04489528146385446,-0.1714456114207604,0.6343947717813085,0.09148536424940153,-0.1959595426909299,0.478926281702618,0.3319299697309279,0.33630470016207453,0.233387358184765,0.16045380875202594,0.1774716369529984,0.21636952998379255,0.14181523500810372,0.11993517017828201,0.3371150729335494
1095565,0.8573378606440386,0.06882805234364739,-0.5081524432876068,0.04489528146385446,-0.1714456114207604,0.6343947717813085,0.09148536424940153,-0.1959595426909299,0.478926281702618,0.3319299697309279,0.353322528363047,0.23743922204213938,0.1774716369529984,0.3338735818476499,0.41085899513776336,0.2406807131280389,0.16774716369529985,0.28038897893030795
1097320,0.8636982576634238,0.060549135933856274,-0.5003358284182665,0.004814628525270939,-0.22607356666032397,0.6728286233711723,0.09427840555472869,-0.22508792242285572,0.3791606502139535,0.3706168503136297,0.353322528363047,0.23743922204213938,0.1774716369529984,0.3338735818476499,0.41085899513776336,0.2406807131280389,0.16774716369529985,0.28038897893030795
1118042,0.8636982576634238,0.060549135933856274,-0.5003358284182665,0.004814628525270939,-0.22607356666032397,0.6728286233711723,0.09427840555472869,-0.22508792242285572,0.3791606502139535,0.3706168503136297,0.3727714748784441,0.24149108589951376,0.17909238249594814,0.3873581847649919,0.5615883306320908,0.3646677471636953,0.20421393841166938,0.2755267423014587
1119747,0.8664439321944599,0.045032710871163964,-0.4966456183241038,-0.024291914590352105,-0.38812354690582396,0.5787198737456042,0.2219370331525912,-0.2923432054901731,0.42323131962579363,0.44373472405742675,0.3727714748784441,0.24149108589951376,0.17909238249594814,0.3873581847649919,0.5615883306320908,0.3646677471636953,0.20421393841166938,0.2755267423014587
1132403,0.8664439321944599,0.045032710871163964,-0.4966456183241038,-0.024291914590352105,-0.38812354690582396,0.5787198737456042,0.2219370331525912,-0.2923432054901731,0.42323131962579363,0.44373472405742675,0.373581847649919,0.2552674230145867,0.17585089141004862,0.4205834683954619,0.6320907617504052,0.3905996758508914,0.21636952998379255,0.26661264181523503
1139360,0.8641737910025821,0.03633885145723863,-0.5009700323749874,-0.030202209872764375,-0.4597171686152379,0.31243183650612383,0.277636286769797,-0.4908843972799388,0.47113772819540056,0.49095359519801074,0.373581847649919,0.2552674230145867,0.17585089141004862,0.4205834683954619,0.6320907617504052,0.3905996758508914,0.21636952998379255,0.26661264181523503
1155563,0.8641737910025821,0.03633885145723863,-0.5009700323749874,-0.030202209872764375,-0.4597171686152379,0.31243183650612383,0.277636286769797,-0.4908843972799388,0.47113772819540056,0.49095359519801074,0.4181523500810373,0.29740680713128037,0.22204213938411668,0.4586709886547812,0.7398703403565641,0.44165316045380876,0.2479740680713128,0.33144246353322526
1157277,0.8644844651435779,0.027043198517596637,-0.5018774497319191,-0.007368879829743616,-0.3172361515330977,0.35789126693508366,0.19468291098370077,-0.7106358473626531,0.472995453094958,0.5165451350794474,0.4181523500810373,0.29740680713128037,0.22204213938411668,0.4586709886547812,0.7398703403565641,0.44165316045380876,0.2479740680713128,0.33144246353322526
1178068,0.8644844651435779,0.027043198517596637,-0.5018774497319191,-0.007368879829743616,-0.3172361515330977,0.35789126693508366,0.19468291098370077,-0.7106358473626531,0.472995453094958,0.5165451350794474,0.39627228525121555,0.31037277147487846,0.23419773095623986,0.49189627228525123,0.8160453808752026,0.4854132901134522,0.27633711507293357,0.36628849270664504
1179810,0.8641223351262173,0.036169545978115086,-0.5001757116881184,0.042527771127050654,-0.24304375575575088,0.5138355683756632,0.1598330950613867,-0.9425567497218397,0.39145385223257284,0.5637863624015381,0.39627228525121555,0.31037277147487846,0.23419773095623986,0.49189627228525123,0.8160453808752026,0.4854132901134522,0.27633711507293357,0.36628849270664504
1191657,0.8641223351262173,0.036169545978115086,-0.5001757116881184,0.042527771127050654,-0.24304375575575088,0.5138355683756632,0.1598330950613867,-0.9425567497218397,0.39145385223257284,0.5637863624015381,0.3881685575364668,0.3273905996758509,0.233387358184765,0.41085899513776336,0.747163695299838,0.4538087520259319,0.25283630470016205,0.3841166936790924
1200811,0.8668085817821367,0.05360430085929581,-0.48581464066920776,0.09876029763865436,-0.2592693303863503,0.5887255264152732,0.02001927961666919,-0.9968792334799998,0.290255863143427,0.5397307096820843,0.3881685575364668,0.3273905996758509,0.233387358184765,0.41085899513776336,0.747163695299838,0.4538087520259319,0.25283630470016205,0.3841166936790924
1215555,0.8668085817821367,0.05360430085929581,-0.48581464066920776,0.09876029763865436,-0.2592693303863503,0.5887255264152732,0.02001927961666919,-0.9968792334799998,0.290255863143427,0.5397307096820843,0.3460291734197731,0.31442463533225284,0.2171799027552674,0.35089141004862234,0.6393841166936791,0.36223662884927066,0.22852512155591573,0.4035656401944895
1217278,0.8702823352732456,0.0724951118397334,-0.464241993143125,0.1477582061111649,-0.33986420091127134,0.7059655777949472,0.011165604274900348,-0.943935389825584,0.23901072176715463,0.513668146433321,0.3460291734197731,0.31442463533225284,0.2171799027552674,0.35089141004862234,0.6393841166936791,0.36223662884927066,0.22852512155591573,0.4035656401944895
1238065,0.8702823352732456,0.0724951118397334,-0.464241993143125,0.1477582061111649,-0.33986420091127134,0.7059655777949472,0.011165604274900348,-0.943935389825584,0.23901072176715463,0.513668146433321,0.3217179902755267,0.2901134521880065,0.22690437601296595,0.3192868719611021,0.5794165316045381,0.33144246353322526,0.21555915721231766,0.39303079416531606
1239814,0.8706655803884147,0.08348845367190383,-0.45155098157929036,0.1762748883566765,-0.48642195916723774,0.8115433909939312,0.11791629971602613,-0.7852086401332209,0.3245674023797103,0.48477828148178226,0.3217179902755267,0.2901134521880065,0.22690437601296595,0.3192868719611021,0.5794165316045381,0.33144246353322526,0.21555915721231766,0.39303079416531606
1260550,0.8706655803884147,0.08348845367190383,-0.45155098157929036,0.1762748883566765,-0.48642195916723774,0.8115433909939312,0.11791629971602613,-0.7852086401332209,0.3245674023797103,0.48477828148178226,0.23095623987034036,0.22204213938411668,0.17909238249594814,0.26499189627228525,0.4343598055105348,0.26175040518638576,0.17990275526742303,0.3346839546191248
1262287,0.867804570348101,0.0944438749890273,-0.4554542203018026,0.17480570748485863,-0.5395110938057854,0.905838159509661,0.07752834567040107,-0.5915036252627006,0.44169407703518704,0.3616604264705163,0.23095623987034036,0.22204213938411668,0.17909238249594814,0.26499189627228525,0.4343598055105348,0.26175040518638576,0.17990275526742303,0.3346839546191248
1275545,0.867804570348101,0.0944438749890273,-0.4554542203018026,0.17480570748485863,-0.5395110938057854,0.905838159509661,0.07752834567040107,-0.5915036252627006,0.44169407703518704,0.3616604264705163,0.22366288492706646,0.2034035656401945,0.17098865478119935,0.206645056726094,0.27228525121555913,0.1693679092382496,0.13371150729335493,0.293354943273906
1277280,0.8680964052450031,0.09777891523441667,-0.4647258896562528,0.1444913921985957,-0.3907765358741618,0.8161202243347419,0.08524738436763982,-0.34052366642866966,0.5014564945452327,0.31816839605313485,0.22366288492706646,0.2034035656401945,0.17098865478119935,0.206645056726094,0.27228525121555913,0.1693679092382496,0.13371150729335493,0.293354943273906
1298084,0.8680964052450031,0.09777891523441667,-0.4647258896562528,0.1444913921985957,-0.3907765358741618,0.8161202243347419,0.08524738436763982,-0.34052366642866966,0.5014564945452327,0.31816839605313485,0.3411669367909238,0.2576985413290113,0.1612641815235008,0.1766612641815235,0.23500810372771475,0.11912479740680713,0.12560777957860617,0.27633711507293357
1299810,0.8714335122948356,0.09213616727700037,-0.47263783126255343,0.0934239840106442,-0.28242719248192266,0.7231699974838339,0.13195404926309268,-0.16143925052380437,0.4920530908177166,0.3151204492747061,0.3411669367909238,0.2576985413290113,0.1612641815235008,0.1766612641815235,0.23500810372771475,0.11912479740680713,0.12560777957860617,0.27633711507293357
1320547,0.8714335122948356,0.09213616727700037,-0.47263783126255343,0.0934239840106442,-0.28242719248192266,0.7231699974838339,0.13195404926309268,-0.16143925052380437,0.4920530908177166,0.3151204492747061,0.419773095623987,0.3119935170178282,0.17098865478119935,0.1847649918962723,0.2260940032414911,0.0940032414910859,0.11102106969205834,0.24959481361426256
1322254,0.8747132350418239,0.07712918061214837,-0.47679045043418034,0.039983900704373077,-0.22083613794487256,0.606277328328317,0.12004313727342396,-0.11412466250578551,0.4788607890830894,0.3732003510424886,0.419773095623987,0.3119935170178282,0.17098865478119935,0.1847649918962723,0.2260940032414911,0.0940032414910859,0.11102106969205834,0.24959481361426256
1335527,0.8747132350418239,0.07712918061214837,-0.47679045043418034,0.039983900704373077,-0.22083613794487256,0.606277328328317,0.12004313727342396,-0.11412466250578551,0.4788607890830894,0.3732003510424886,0.4473257698541329,0.3241491085899514,0.18233387358184766,0.2917341977309562,0.41085899513776336,0.31685575364667745,0.16450567260940033,0.24635332252836303
1337224,0.8771829020496376,0.04899385335610955,-0.4775034732347344,-0.011840259028472896,-0.28798575911324975,0.5928323801443904,0.11362841944536928,-0.08015297518773651,0.4731607965705216,0.4677699598271551,0.4473257698541329,0.3241491085899514,0.18233387358184766,0.2917341977309562,0.41085899513776336,0.31685575364667745,0.16450567260940033,0.24635332252836303
1358048,0.8771829020496376,0.04899385335610955,-0.4775034732347344,-0.011840259028472896,-0.28798575911324975,0.5928323801443904,0.11362841944536928,-0.08015297518773651,0.4731607965705216,0.4677699598271551,0.45786061588330634,0.3233387358184765,0.1920583468395462,0.3525121555915721,0.6077795786061588,0.44165316045380876,0.17017828200972449,0.24716369529983792
1359765,0.8756962424049519,0.024874773668254066,-0.4804979943772325,-0.040730996455496965,-0.3470992268046293,0.40063909055505603,0.30411506105034264,-0.2820165335154283,0.48297078669001003,0.502084225489501,0.45786061588330634,0.3233387358184765,0.1920583468395462,0.3525121555915721,0.6077795786061588,0.44165316045380876,0.17017828200972449,0.24716369529983792
1380515,0.8756962424049519,0.024874773668254066,-0.4804979943772325,-0.040730996455496965,-0.3470992268046293,0.40063909055505603,0.30411506105034264,-0.2820165335154283,0.48297078669001003,0.502084225489501,0.5153970826580226,0.3760129659643436,0.2520259319286872,0.3873581847649919,0.6920583468395461,0.4837925445705024,0.24230145867098865,0.3038897893030794
1382232,0.8774152202905672,0.011324973460130644,-0.47829092872104106,-0.03538451189075004,-0.3177893339594085,0.32671270352609366,0.2534458323479815,-0.5919251074670059,0.4380208391712855,0.47447358410937246,0.5153970826580226,0.3760129659643436,0.2520259319286872,0.3873581847649919,0.6920583468395461,0.4837925445705024,0.24230145867098865,0.3038897893030794
1395563,0.8774152202905672,0.011324973460130644,-0.47829092872104106,-0.03538451189075004,-0.3177893339594085,0.32671270352609366,0.2534458323479815,-0.5919251074670059,0.4380208391712855,0.47447358410937246,0.44084278768233387,0.3184764991896272,0.24959481361426256,0.40923824959481364,0.8152350081037277,0.539708265802269,0.26742301458670986,0.3427876823338736
1397289,0.8796403409415607,0.022271159057167186,-0.4750584037374691,0.007508601792147324,-0.24765115597227622,0.42269580554419334,0.13132441672901585,-0.9022176878652367,0.3732152956169211,0.5103485701183264,0.44084278768233387,0.3184764991896272,0.24959481361426256,0.40923824959481364,0.8152350081037277,0.539708265802269,0.26742301458670986,0.3427876823338736
1418050,0.8796403409415607,0.022271159057167186,-0.4750584037374691,0.007508601792147324,-0.24765115597227622,0.42269580554419334,0.13132441672901585,-0.9022176878652367,0.3732152956169211,0.5103485701183264,0.446515397082658,0.3419773095623987,0.26418152350081037,0.4351701782820097,0.8743922204213939,0.553484602917342,0.28119935170178284,0.38492706645056723
1419758,0.8813630201860334,0.03616725013853486,-0.4658510710300121,0.06981358239025529,-0.3100670449441324,0.5205529680139487,0.0827747128290206,-1.0406579307926584,0.32329403064725154,0.5598739301509666,0.446515397082658,0.3419773095623987,0.26418152350081037,0.4351701782820097,0.8743922204213939,0.553484602917342,0.28119935170178284,0.38492706645056723
1440585,0.8813630201860334,0.03616725013853486,-0.4658510710300121,0.06981358239025529,-0.3100670449441324,0.5205529680139487,0.0827747128290206,-1.0406579307926584,0.32329403064725154,0.5598739301509666,0.4359805510534846,0.34359805510534847,0.24878444084278767,0.4222042139384117,0.8387358184764991,0.4708265802269044,0.26418152350081037,0.44165316045380876
1442283,0.8814632944979899,0.0555777134031501,-0.45066121071829546,0.12976151732908908,-0.36537164366728786,0.6688647957471843,0.02951568671866403,-1.0330084479460273,0.28496503921864136,0.5237365541975372,0.4359805510534846,0.34359805510534847,0.24878444084278767,0.4222042139384117,0.8387358184764991,0.4708265802269044,0.26418152350081037,0.44165316045380876
1455380,0.8814632944979899,0.0555777134031501,-0.45066121071829546,0.12976151732908908,-0.36537164366728786,0.6688647957471843,0.02951568671866403,-1.0330084479460273,0.28496503921864136,0.5237365541975372,0.42625607779578606,0.34359805510534847,0.24149108589951376,0.386547811993517,0.7277147487844409,0.3687196110210697,0.2593192868719611,0.44084278768233387
1461805,0.8809240827431479,0.06999085522739579,-0.43524160307339554,0.17215919255672002,-0.4466927584572964,0.7921081752117971,0.06874787651175573,-0.8936392562860969,0.29689116446641883,0.5054255376735666,0.42625607779578606,0.34359805510534847,0.24149108589951376,0.386547811993517,0.7277147487844409,0.3687196110210697,0.2593192868719611,0.44084278768233387
1478058,0.8809240827431479,0.06999085522739579,-0.43524160307339554,0.17215919255672002,-0.4466927584572964,0.7921081752117971,0.06874787651175573,-0.8936392562860969,0.29689116446641883,0.5054255376735666,0.3905996758508914,0.3047001620745543,0.1774716369529984,0.36223662884927066,0.6507293354943274,0.3184764991896272,0.2034035656401945,0.4359805510534846
1479783,0.8827226705743817,0.07821227937292809,-0.4249954604096328,0.18455997626930654,-0.4511905283313924,0.8330457204044812,0.10957496478740952,-0.6243411201907036,0.3804855297522253,0.46698633504066,0.3905996758508914,0.3047001620745543,0.1774716369529984,0.36223662884927066,0.6507293354943274,0.3184764991896272,0.2034035656401945,0.4359805510534846
