Timestamp, Orientation x, Orientation y, Orientation z, Orientation w, Acceleration x, Acceleration y, Acceleration z, Rotation x, Rotation y, Rotation z, EMG 0, EMG 1, EMG 2, EMG 3, EMG 4, EMG 5, EMG 6, EMG 7
0,0.9245263337794357,0.23314113070466108,-0.1712429215611221,0.24813732717452822,0.5834211419232153,0.15799981021531195,0.42781023733180434,0.5001518996942392,0.16927415222023653,0.39607898308297246,0,0,0,0,0,0,0,0
798,0.9248717430750553,0.2321135057711188,-0.17121783409814648,0.2478306530409213,0.5835419891585268,0.1582160380391166,0.42797151936461497,0.5000792712248954,0.16904266888574973,0.3960218437057821,0,0,0,0,0,0,0,0
14351,0.9252927885748359,0.231029976199684,-0.17115899158797793,0.24731155473848015,0.5856976921278516,0.15719528513703296,0.42920799296793277,0.49992975327529166,0.1683295749289888,0.39580591594594594,0,0,0,0,0,0,0,0
29331,0.9258434797364361,0.22994988288866697,-0.1711015551158021,0.2462948643921956,0.5938132248265249,0.1517631489384043,0.43335927102778954,0.5004302313510423,0.16677466137605718,0.39593338842086034,0,0,0,0,0,0,0,0
51782,0.9268582439855038,0.2283432672681898,-0.17040415643389017,0.24444952714098384,0.6086543245855415,0.1404269881866081,0.4405485412439467,0.5008541316686524,0.16231434520138385,0.3956941379668477,0,0,0,0,0,0,0,0
67495,0.9268582439855038,0.2283432672681898,-0.17040415643389017,0.24444952714098384,0.6086543245855415,0.1404269881866081,0.4405485412439467,0.5008541316686524,0.16231434520138385,0.3956941379668477,0.08590604026845637,0.20268456375838925,0.08859060402684564,0.05100671140939597,0.049664429530201344,0.0738255033557047,0.04161073825503356,0.06040268456375839
74499,0.9290421101673574,0.2239218623113741,-0.16860544476122558,0.24147869701416516,0.6233426893374817,0.13135110284841517,0.4481654491534086,0.5019789933185919,0.15110004568535246,0.39490190507679923,0.08590604026845637,0.20268456375838925,0.08859060402684564,0.05100671140939597,0.049664429530201344,0.0738255033557047,0.04161073825503356,0.06040268456375839
89961,0.9290421101673574,0.2239218623113741,-0.16860544476122558,0.24147869701416516,0.6233426893374817,0.13135110284841517,0.4481654491534086,0.5019789933185919,0.15110004568535246,0.39490190507679923,0.10738255033557047,0.27114093959731544,0.13020134228187918,0.07248322147651007,0.06845637583892618,0.07516778523489932,0.05503355704697987,0.08322147651006712
96922,0.9327919883963927,0.21476619397148108,-0.16450026228523174,0.23814754254158957,0.6387228649856478,0.12310801196313692,0.45675017772595405,0.5020609578833187,0.13775807805952894,0.39351054733733426,0.10738255033557047,0.27114093959731544,0.13020134228187918,0.07248322147651007,0.06845637583892618,0.07516778523489932,0.05503355704697987,0.08322147651006712
113163,0.9327919883963927,0.21476619397148108,-0.16450026228523174,0.23814754254158957,0.6387228649856478,0.12310801196313692,0.45675017772595405,0.5020609578833187,0.13775807805952894,0.39351054733733426,0.12885906040268458,0.35436241610738256,0.1704697986577181,0.09261744966442953,0.07516778523489932,0.08053691275167785,0.05906040268456376,0.0912751677852349
114893,0.937345075069819,0.19590081922363783,-0.1560194995926182,0.24220857750445565,0.6311085435956887,0.12587246591179485,0.4533045497795519,0.5018930245109119,0.1333725030876069,0.3942470155454956,0.12885906040268458,0.35436241610738256,0.1704697986577181,0.09261744966442953,0.07516778523489932,0.08053691275167785,0.05906040268456376,0.0912751677852349
127470,0.937345075069819,0.19590081922363783,-0.1560194995926182,0.24220857750445565,0.6311085435956887,0.12587246591179485,0.4533045497795519,0.5018930245109119,0.1333725030876069,0.3942470155454956,0.14630872483221477,0.39731543624161075,0.21476510067114093,0.11409395973154363,0.11275167785234899,0.09932885906040269,0.07516778523489932,0.09261744966442953
134483,0.941366411828469,0.172570117849742,-0.14312344875360497,0.2521200339588142,0.6085855840093723,0.13692405000727714,0.44191605100118747,0.49781427520594135,0.1394936093810259,0.39438912020304373,0.14630872483221477,0.39731543624161075,0.21476510067114093,0.11409395973154363,0.11275167785234899,0.09932885906040269,0.07516778523489932,0.09261744966442953
149954,0.941366411828469,0.172570117849742,-0.14312344875360497,0.2521200339588142,0.6085855840093723,0.13692405000727714,0.44191605100118747,0.49781427520594135,0.1394936093810259,0.39438912020304373,0.15033557046979865,0.40268456375838924,0.2348993288590604,0.13288590604026845,0.1261744966442953,0.10335570469798658,0.07919463087248323,0.10201342281879194
156906,0.9429862485423265,0.14714999793155403,-0.1255194506651115,0.2708665366440494,0.5744045244509,0.1496101536770646,0.42283943422846415,0.49108487112480326,0.16073671803955047,0.39568085479759796,0.15033557046979865,0.40268456375838924,0.2348993288590604,0.13288590604026845,0.1261744966442953,0.10335570469798658,0.07919463087248323,0.10201342281879194
173133,0.9429862485423265,0.14714999793155403,-0.1255194506651115,0.2708665366440494,0.5744045244509,0.1496101536770646,0.42283943422846415,0.49108487112480326,0.16073671803955047,0.39568085479759796,0.14899328859060404,0.3785234899328859,0.26040268456375837,0.16644295302013423,0.138255033557047,0.11006711409395974,0.08590604026845637,0.09932885906040269
174896,0.9411363024943562,0.12241368074723136,-0.10532173354878292,0.2969590600326007,0.5464720218103231,0.18015129923513995,0.4105158032284164,0.48603576379724744,0.18531369227889488,0.39801416917822474,0.14899328859060404,0.3785234899328859,0.26040268456375837,0.16644295302013423,0.138255033557047,0.11006711409395974,0.08590604026845637,0.09932885906040269
187451,0.9411363024943562,0.12241368074723136,-0.10532173354878292,0.2969590600326007,0.5464720218103231,0.18015129923513995,0.4105158032284164,0.48603576379724744,0.18531369227889488,0.39801416917822474,0.14630872483221477,0.33691275167785234,0.2550335570469799,0.17852348993288591,0.15838926174496645,0.13020134228187918,0.13020134228187918,0.09261744966442953
194473,0.9352557978863731,0.10062006858441624,-0.08756727386098018,0.3278782805654369,0.5289438497643638,0.23509145833725492,0.40872480959940966,0.49071950991406593,0.21038748354739978,0.4058155199535388,0.14630872483221477,0.33691275167785234,0.2550335570469799,0.17852348993288591,0.15838926174496645,0.13020134228187918,0.13020134228187918,0.09261744966442953
209917,0.9352557978863731,0.10062006858441624,-0.08756727386098018,0.3278782805654369,0.5289438497643638,0.23509145833725492,0.40872480959940966,0.49071950991406593,0.21038748354739978,0.4058155199535388,0.1342281879194631,0.25906040268456376,0.24026845637583893,0.18523489932885906,0.17181208053691274,0.1342281879194631,0.17852348993288591,0.09798657718120805
224404,0.9251090118915308,0.08166286087399244,-0.07798554322237747,0.3625227555881989,0.5389854503279475,0.27640221093448997,0.4225545766264166,0.5099734509146878,0.23605098553833126,0.42283978229172925,0.1342281879194631,0.25906040268456376,0.24026845637583893,0.18523489932885906,0.17181208053691274,0.1342281879194631,0.17852348993288591,0.09798657718120805
233085,0.9251090118915308,0.08166286087399244,-0.07798554322237747,0.3625227555881989,0.5389854503279475,0.27640221093448997,0.4225545766264166,0.5099734509146878,0.23605098553833126,0.42283978229172925,0.14630872483221477,0.22013422818791947,0.22550335570469798,0.1919463087248322,0.17315436241610738,0.1651006711409396,0.3436241610738255,0.15704697986577182
234898,0.9126472973370403,0.06340603364246561,-0.07714655017841437,0.3963622022301014,0.5550524314173932,0.30349372977556,0.4375500592100588,0.533307236995558,0.24414475428121812,0.43891826459047406,0.14630872483221477,0.22013422818791947,0.22550335570469798,0.1919463087248322,0.17315436241610738,0.1651006711409396,0.3436241610738255,0.15704697986577182
247454,0.9126472973370403,0.06340603364246561,-0.07714655017841437,0.3963622022301014,0.5550524314173932,0.30349372977556,0.4375500592100588,0.533307236995558,0.24414475428121812,0.43891826459047406,0.14228187919463087,0.20536912751677852,0.2080536912751678,0.1906040268456376,0.17315436241610738,0.1691275167785235,0.39731543624161075,0.15838926174496645
254381,0.9003109143049997,0.04756639714836802,-0.08363303137230246,0.424479930631707,0.5812689020391906,0.3043151890431872,0.4540649452665688,0.5489233592796742,0.23921156736395388,0.44676167388737326,0.14228187919463087,0.20536912751677852,0.2080536912751678,0.1906040268456376,0.17315436241610738,0.1691275167785235,0.39731543624161075,0.15838926174496645
269933,0.9003109143049997,0.04756639714836802,-0.08363303137230246,0.424479930631707,0.5812689020391906,0.3043151890431872,0.4540649452665688,0.5489233592796742,0.23921156736395388,0.44676167388737326,0.14228187919463087,0.1906040268456376,0.17986577181208055,0.17718120805369128,0.1865771812080537,0.19328859060402684,0.49798657718120803,0.1959731543624161
276922,0.8916902697027393,0.036913237476273564,-0.0900431727076609,0.44206119809955574,0.5798668633522324,0.257650834479791,0.44320155395641164,0.5397049500216319,0.21608207931407553,0.4343492340163586,0.14228187919463087,0.1906040268456376,0.17986577181208055,0.17718120805369128,0.1865771812080537,0.19328859060402684,0.49798657718120803,0.1959731543624161
293126,0.8916902697027393,0.036913237476273564,-0.0900431727076609,0.44206119809955574,0.5798668633522324,0.257650834479791,0.44320155395641164,0.5397049500216319,0.21608207931407553,0.4343492340163586,0.14093959731543623,0.19328859060402684,0.1691275167785235,0.174496644295302,0.1959731543624161,0.2214765100671141,0.553020134228188,0.20671140939597316
294895,0.8901191270532886,0.03531586806100595,-0.09490420192723123,0.4443353706082204,0.5623756931968693,0.20608798377730084,0.42357322939223346,0.5185332127245601,0.18538454004285504,0.412623136274092,0.14093959731543623,0.19328859060402684,0.1691275167785235,0.174496644295302,0.1959731543624161,0.2214765100671141,0.553020134228188,0.20671140939597316
307475,0.8901191270532886,0.03531586806100595,-0.09490420192723123,0.4443353706082204,0.5623756931968693,0.20608798377730084,0.42357322939223346,0.5185332127245601,0.18538454004285504,0.412623136274092,0.1597315436241611,0.19463087248322147,0.18523489932885906,0.23758389261744967,0.5033557046979866,0.3530201342281879,0.5959731543624162,0.24697986577181208
314485,0.8894906420709194,0.04247103926005452,-0.10109733750626626,0.44360110103738304,0.5613067917861375,0.1690040076685495,0.41771447311318594,0.4968134158448701,0.19742814074798723,0.39904524903590477,0.1597315436241611,0.19463087248322147,0.18523489932885906,0.23758389261744967,0.5033557046979866,0.3530201342281879,0.5959731543624162,0.24697986577181208
329942,0.8894906420709194,0.04247103926005452,-0.10109733750626626,0.44360110103738304,0.5613067917861375,0.1690040076685495,0.41771447311318594,0.4968134158448701,0.19742814074798723,0.39904524903590477,0.1476510067114094,0.18791946308724833,0.21073825503355706,0.4228187919463087,0.6241610738255033,0.4120805369127517,0.5852348993288591,0.2214765100671141
336906,0.8921232225189967,0.05952151661722749,-0.10161188450124253,0.43617470104307066,0.5836134480736683,0.1755940642558883,0.43125991710143563,0.47212071559717295,0.1891265568319287,0.3799859985587333,0.1476510067114094,0.18791946308724833,0.21073825503355706,0.4228187919463087,0.6241610738255033,0.4120805369127517,0.5852348993288591,0.2214765100671141
353099,0.8921232225189967,0.05952151661722749,-0.10161188450124253,0.43617470104307066,0.5836134480736683,0.1755940642558883,0.43125991710143563,0.47212071559717295,0.1891265568319287,0.3799859985587333,0.1704697986577181,0.20134228187919462,0.2214765100671141,0.4912751677852349,0.8067114093959732,0.5221476510067115,0.5879194630872483,0.24295302013422818
354834,0.9002701820517484,0.07687369397371313,-0.10067639935979364,0.41649525458916725,0.6106261821928798,0.2471991439657643,0.46061953366805103,0.462418883163382,0.14540350647529043,0.3624789656574236,0.1704697986577181,0.20134228187919462,0.2214765100671141,0.4912751677852349,0.8067114093959732,0.5221476510067115,0.5879194630872483,0.24295302013422818
367455,0.9002701820517484,0.07687369397371313,-0.10067639935979364,0.41649525458916725,0.6106261821928798,0.2471991439657643,0.46061953366805103,0.462418883163382,0.14540350647529043,0.3624789656574236,0.18523489932885906,0.2295302013422819,0.22281879194630871,0.538255033557047,0.8778523489932886,0.5369127516778524,0.5248322147651007,0.22550335570469798
374426,0.9143948794661831,0.09179646093921462,-0.10224035684127616,0.38079170631465703,0.6182149808660664,0.3278873601683226,0.47836395954958777,0.46708219036685983,0.09080256650682883,0.35268042750673056,0.18523489932885906,0.2295302013422819,0.22281879194630871,0.538255033557047,0.8778523489932886,0.5369127516778524,0.5248322147651007,0.22550335570469798
389914,0.9143948794661831,0.09179646093921462,-0.10224035684127616,0.38079170631465703,0.6182149808660664,0.3278873601683226,0.47836395954958777,0.46708219036685983,0.09080256650682883,0.35268042750673056,0.20671140939597316,0.30604026845637583,0.24697986577181208,0.5557046979865772,0.9140939597315436,0.5449664429530201,0.4885906040268456,0.22550335570469798
396886,0.9326937558756934,0.09673122891192171,-0.11222340335862672,0.3288332933908745,0.6470311994729117,0.38837100991295326,0.5064743699448738,0.5026277716224747,0.025851330222820185,0.36206747545119,0.20671140939597316,0.30604026845637583,0.24697986577181208,0.5557046979865772,0.9140939597315436,0.5449664429530201,0.4885906040268456,0.22550335570469798
413129,0.9326937558756934,0.09673122891192171,-0.11222340335862672,0.3288332933908745,0.6470311994729117,0.38837100991295326,0.5064743699448738,0.5026277716224747,0.025851330222820185,0.36206747545119,0.20671140939597316,0.374496644295302,0.2295302013422819,0.5315436241610738,0.7959731543624161,0.4778523489932886,0.43087248322147653,0.18120805369127516
414881,0.9558009344573543,0.0829962751417162,-0.127850998786591,0.2514166146306169,0.6423675292776827,0.3705681399251095,0.502597641222425,0.5416698443984944,-0.08789882871952512,0.3647846759264388,0.20671140939597316,0.374496644295302,0.2295302013422819,0.5315436241610738,0.7959731543624161,0.4778523489932886,0.43087248322147653,0.18120805369127516
427408,0.9558009344573543,0.0829962751417162,-0.127850998786591,0.2514166146306169,0.6423675292776827,0.3705681399251095,0.502597641222425,0.5416698443984944,-0.08789882871952512,0.3647846759264388,0.22550335570469798,0.4147651006711409,0.19463087248322147,0.39731543624161075,0.7033557046979866,0.4174496644295302,0.35436241610738256,0.17986577181208055
434483,0.9765986369703854,0.06324741605438222,-0.1409949063737555,0.14958376585273292,0.5538159302880966,0.365911712499966,0.4478296213438393,0.5391740487871566,-0.1681834667632589,0.3457227945557676,0.22550335570469798,0.4147651006711409,0.19463087248322147,0.39731543624161075,0.7033557046979866,0.4174496644295302,0.35436241610738256,0.17986577181208055
449983,0.9765986369703854,0.06324741605438222,-0.1409949063737555,0.14958376585273292,0.5538159302880966,0.365911712499966,0.4478296213438393,0.5391740487871566,-0.1681834667632589,0.3457227945557676,0.24697986577181208,0.45234899328859063,0.23221476510067113,0.312751677852349,0.4966442953020134,0.2859060402684564,0.3006711409395973,0.1691275167785235
456906,0.9865378000446621,0.06467662485453349,-0.15000722505605832,0.007611551185227883,0.44842234114706975,-0.06872457294948542,0.3031449083330192,0.49866571230752776,-0.21982632527150373,0.3013584205661891,0.24697986577181208,0.45234899328859063,0.23221476510067113,0.312751677852349,0.4966442953020134,0.2859060402684564,0.3006711409395973,0.1691275167785235
473133,0.9865378000446621,0.06467662485453349,-0.15000722505605832,0.007611551185227883,0.44842234114706975,-0.06872457294948542,0.3031449083330192,0.49866571230752776,-0.21982632527150373,0.3013584205661891,0.2483221476510067,0.48456375838926175,0.3046979865771812,0.6120805369127517,0.3597315436241611,0.2536912751677852,0.2778523489932886,0.1651006711409396
474890,0.9894441971740877,0.10036512208253176,-0.09584534642513687,-0.04172160730998925,0.3083571476751903,-0.09875659541234014,0.21139733057797683,0.30099002749603987,0.12513415283534202,0.24682633836786105,0.2483221476510067,0.48456375838926175,0.3046979865771812,0.6120805369127517,0.3597315436241611,0.2536912751677852,0.2778523489932886,0.1651006711409396
487463,0.9894441971740877,0.10036512208253176,-0.09584534642513687,-0.04172160730998925,0.3083571476751903,-0.09875659541234014,0.21139733057797683,0.30099002749603987,0.12513415283534202,0.24682633836786105,0.23355704697986576,0.44161073825503355,0.28993288590604027,0.8859060402684564,0.2832214765100671,0.21073825503355706,0.22013422818791947,0.15302013422818792
494380,0.9908153339369772,0.11266402827254723,-0.07209985836957243,0.01983434374630849,0.4292423088950865,0.30240179647247195,0.3652890539339372,0.43107532707399665,0.38591117941856623,0.3985063397216783,0.23355704697986576,0.44161073825503355,0.28993288590604027,0.8859060402684564,0.2832214765100671,0.21073825503355706,0.22013422818791947,0.15302013422818792
509908,0.9908153339369772,0.11266402827254723,-0.07209985836957243,0.01983434374630849,0.4292423088950865,0.30240179647247195,0.3652890539339372,0.43107532707399665,0.38591117941856623,0.3985063397216783,0.22818791946308725,0.37718120805369126,0.28859060402684567,0.9852348993288591,0.24966442953020135,0.20536912751677852,0.1919463087248322,0.17718120805369128
516883,0.987889654037216,0.10534821615417744,-0.06411702057573594,0.09415302688630428,0.4832962353933984,0.2974938197493865,0.390434325581349,0.4969597810074863,0.37764550937103836,0.44335116894439136,0.22818791946308725,0.37718120805369126,0.28859060402684567,0.9852348993288591,0.24966442953020135,0.20536912751677852,0.1919463087248322,0.17718120805369128
533149,0.987889654037216,0.10534821615417744,-0.06411702057573594,0.09415302688630428,0.4832962353933984,0.2974938197493865,0.390434325581349,0.4969597810074863,0.37764550937103836,0.44335116894439136,0.2080536912751678,0.31409395973154364,0.28456375838926173,0.9879194630872483,0.2550335570469799,0.19865771812080538,0.16375838926174496,0.1865771812080537
534878,0.9739464405054916,0.08878994943599205,-0.08202399312576646,0.19187688880514253,0.41192375964443584,0.4119664204167288,0.36447900339374906,0.5901911407431162,0.4349170183861276,0.5189794785702335,0.2080536912751678,0.31409395973154364,0.28456375838926173,0.9879194630872483,0.2550335570469799,0.19865771812080538,0.16375838926174496,0.1865771812080537
547486,0.9739464405054916,0.08878994943599205,-0.08202399312576646,0.19187688880514253,0.41192375964443584,0.4119664204167288,0.36447900339374906,0.5901911407431162,0.4349170183861276,0.5189794785702335,0.19865771812080538,0.2738255033557047,0.2523489932885906,1,0.4161073825503356,0.23624161073825503,0.3073825503355705,0.22416107382550335
554413,0.9403744830514473,0.1010952012345078,-0.10832410801312156,0.3061723036726852,0.577302359068602,0.34057880796277545,0.45425608192570066,0.5868955575265019,0.5663268316623873,0.5392849273650755,0.19865771812080538,0.2738255033557047,0.2523489932885906,1,0.4161073825503356,0.23624161073825503,0.3073825503355705,0.22416107382550335
569945,0.9403744830514473,0.1010952012345078,-0.10832410801312156,0.3061723036726852,0.577302359068602,0.34057880796277545,0.45425608192570066,0.5868955575265019,0.5663268316623873,0.5392849273650755,0.20939597315436242,0.20671140939597316,0.1651006711409396,0.8389261744966443,0.5342281879194631,0.2751677852348993,0.43087248322147653,0.24697986577181208
576933,0.8967794643885931,0.12233775273235042,-0.11514778189129471,0.409342222147705,0.6865835646260318,0.23526795641910614,0.5037093838926576,0.5184337843891274,0.5581118535559784,0.49198326781302293,0.20939597315436242,0.20671140939597316,0.1651006711409396,0.8389261744966443,0.5342281879194631,0.2751677852348993,0.43087248322147653,0.24697986577181208
593104,0.8967794643885931,0.12233775273235042,-0.11514778189129471,0.409342222147705,0.6865835646260318,0.23526795641910614,0.5037093838926576,0.5184337843891274,0.5581118535559784,0.49198326781302293,0.2174496644295302,0.21208053691275167,0.15704697986577182,0.5355704697986577,0.5395973154362416,0.30335570469798656,0.44966442953020136,0.26040268456375837
594880,0.8837052164602148,0.1264924999174228,-0.11366415459263912,0.4360564158757286,0.8444445694784075,0.11089292459486816,0.5833142601929762,0.49855042971520847,0.2695920145715725,0.41714290127961595,0.2174496644295302,0.21208053691275167,0.15704697986577182,0.5355704697986577,0.5395973154362416,0.30335570469798656,0.44966442953020136,0.26040268456375837
607469,0.8837052164602148,0.1264924999174228,-0.11366415459263912,0.4360564158757286,0.8444445694784075,0.11089292459486816,0.5833142601929762,0.49855042971520847,0.2695920145715725,0.41714290127961595,0.2214765100671141,0.22550335570469798,0.15570469798657718,0.3167785234899329,0.5570469798657718,0.31409395973154364,0.47248322147651006,0.24295302013422818
614384,0.8999129280027447,0.11983059890810865,-0.10390116473781444,0.4062042559414858,0.6917730426224983,0.21563461708028292,0.505538035942451,0.47423710947867254,0.04978049227134343,0.3541628512188672,0.2214765100671141,0.22550335570469798,0.15570469798657718,0.3167785234899329,0.5570469798657718,0.31409395973154364,0.47248322147651006,0.24295302013422818
629902,0.8999129280027447,0.11983059890810865,-0.10390116473781444,0.4062042559414858,0.6917730426224983,0.21563461708028292,0.505538035942451,0.47423710947867254,0.04978049227134343,0.3541628512188672,0.28456375838926173,0.42818791946308726,0.17315436241610738,0.30201342281879195,0.5597315436241611,0.3302013422818792,0.47651006711409394,0.2389261744966443
636881,0.9241047731172836,0.1135012668737456,-0.10065316268306496,0.35073746814648277,0.5977451740967258,0.3519839739238042,0.47158423458836257,0.4815298372676332,-0.025018964996215948,0.3408154765654765,0.28456375838926173,0.42818791946308726,0.17315436241610738,0.30201342281879195,0.5597315436241611,0.3302013422818792,0.47651006711409394,0.2389261744966443
653158,0.9241047731172836,0.1135012668737456,-0.10065316268306496,0.35073746814648277,0.5977451740967258,0.3519839739238042,0.47158423458836257,0.4815298372676332,-0.025018964996215948,0.3408154765654765,0.2684563758389262,0.4268456375838926,0.16241610738255033,0.2550335570469799,0.4442953020134228,0.2859060402684564,0.3946308724832215,0.18523489932885906
654907,0.9424700082336809,0.119577509444496,-0.11532504431267901,0.29008901559579214,0.6039922150591718,0.3923659020958786,0.48156852519952076,0.5089704001507545,0.004757387829358306,0.36072571219756167,0.2684563758389262,0.4268456375838926,0.16241610738255033,0.2550335570469799,0.4442953020134228,0.2859060402684564,0.3946308724832215,0.18523489932885906
666729,0.9424700082336809,0.119577509444496,-0.11532504431267901,0.29008901559579214,0.6039922150591718,0.3923659020958786,0.48156852519952076,0.5089704001507545,0.004757387829358306,0.36072571219756167,0.2523489932885906,0.42818791946308726,0.14496644295302014,0.17583892617449665,0.2859060402684564,0.2389261744966443,0.25100671140939596,0.15570469798657718
675856,0.9618161110196254,0.12136192713265981,-0.13783189597435627,0.20293698449973352,0.5959637708367562,0.2784948433612644,0.4587044335070192,0.5309851555640288,-0.07738702956836407,0.3559988107223391,0.2523489932885906,0.42818791946308726,0.14496644295302014,0.17583892617449665,0.2859060402684564,0.2389261744966443,0.25100671140939596,0.15570469798657718
689894,0.9618161110196254,0.12136192713265981,-0.13783189597435627,0.20293698449973352,0.5959637708367562,0.2784948433612644,0.4587044335070192,0.5309851555640288,-0.07738702956836407,0.3559988107223391,0.2563758389261745,0.43221476510067114,0.18120805369127516,0.14496644295302014,0.2563758389261745,0.21073825503355706,0.2295302013422819,0.1395973154362416
696920,0.9775802521752179,0.11925098355963021,-0.14325579967171195,0.09794809511938779,0.5653923011402424,-0.06026555533803449,0.37874692818678024,0.47944834975440787,-0.13309226151135953,0.3115935507875948,0.2563758389261745,0.43221476510067114,0.18120805369127516,0.14496644295302014,0.2563758389261745,0.21073825503355706,0.2295302013422819,0.1395973154362416
713149,0.9775802521752179,0.11925098355963021,-0.14325579967171195,0.09794809511938779,0.5653923011402424,-0.06026555533803449,0.37874692818678024,0.47944834975440787,-0.13309226151135953,0.3115935507875948,0.26040268456375837,0.4389261744966443,0.1959731543624161,0.28053691275167786,0.23087248322147652,0.17986577181208055,0.1825503355704698,0.1395973154362416
714899,0.9824238882949359,0.13365413460236675,-0.12626286792806318,0.032211243281386526,0.4741864409310692,-0.09316848942027736,0.3054013547324861,0.41775903741306375,0.016522525329158877,0.30336722119021176,0.26040268456375837,0.4389261744966443,0.1959731543624161,0.28053691275167786,0.23087248322147652,0.17986577181208055,0.1825503355704698,0.1395973154362416
726754,0.9824238882949359,0.13365413460236675,-0.12626286792806318,0.032211243281386526,0.4741864409310692,-0.09316848942027736,0.3054013547324861,0.41775903741306375,0.016522525329158877,0.30336722119021176,0.18120805369127516,0.2523489932885906,0.19865771812080538,0.3838926174496644,0.22281879194630871,0.15704697986577182,0.1651006711409396,0.12885906040268458
735859,0.9857026925390111,0.136249908755262,-0.09766989342939601,0.016933877376927087,0.40495675996707836,0.26242685995104886,0.34099659144177574,0.4033367274888242,0.139582858729442,0.32575083376388136,0.18120805369127516,0.2523489932885906,0.19865771812080538,0.3838926174496644,0.22281879194630871,0.15704697986577182,0.1651006711409396,0.12885906040268458
749932,0.9857026925390111,0.136249908755262,-0.09766989342939601,0.016933877376927087,0.40495675996707836,0.26242685995104886,0.34099659144177574,0.4033367274888242,0.139582858729442,0.32575083376388136,0.17852348993288591,0.22281879194630871,0.2,0.4389261744966443,0.2214765100671141,0.16375838926174496,0.16644295302013423,0.15704697986577182
756923,0.9845845669104335,0.14243797728857224,-0.08738603824645857,0.05165591493065236,0.4162492560570395,0.27904480739624216,0.3492100105931065,0.4744802100776603,0.2903232916058282,0.4060057530684368,0.17852348993288591,0.22281879194630871,0.2,0.4389261744966443,0.2214765100671141,0.16375838926174496,0.16644295302013423,0.15704697986577182
773131,0.9845845669104335,0.14243797728857224,-0.08738603824645857,0.05165591493065236,0.4162492560570395,0.27904480739624216,0.3492100105931065,0.4744802100776603,0.2903232916058282,0.4060057530684368,0.1704697986577181,0.2,0.2040268456375839,0.44161073825503355,0.2134228187919463,0.17583892617449665,0.2912751677852349,0.1691275167785235
774883,0.97608925829281,0.13173754701258783,-0.09824384045133752,0.1422783411692397,0.3993292226416144,0.349422720788652,0.34595123285145346,0.5724885966443242,0.4153386768090702,0.5024007708698431,0.1704697986577181,0.2,0.2040268456375839,0.44161073825503355,0.2134228187919463,0.17583892617449665,0.2912751677852349,0.1691275167785235
795631,0.97608925829281,0.13173754701258783,-0.09824384045133752,0.1422783411692397,0.3993292226416144,0.349422720788652,0.34595123285145346,0.5724885966443242,0.4153386768090702,0.5024007708698431,0.1691275167785235,0.17181208053691274,0.1651006711409396,0.4389261744966443,0.17852348993288591,0.15704697986577182,0.30335570469798656,0.17583892617449665
797388,0.9487712685904347,0.1300366527357575,-0.11067430634569202,0.2658472244682594,0.5179552328191319,0.3349860871365609,0.41461542236345367,0.5821668234794397,0.546095676987791,0.536288010617846,0.1691275167785235,0.17181208053691274,0.1651006711409396,0.4389261744966443,0.17852348993288591,0.15704697986577182,0.30335570469798656,0.17583892617449665
809952,0.9487712685904347,0.1300366527357575,-0.11067430634569202,0.2658472244682594,0.5179552328191319,0.3349860871365609,0.41461542236345367,0.5821668234794397,0.546095676987791,0.536288010617846,0.1476510067114094,0.14093959731543623,0.14899328859060404,0.363758389261745,0.15570469798657718,0.1704697986577181,0.3100671140939597,0.17718120805369128
816906,0.9101905781820095,0.13358524145826162,-0.11077338417415716,0.3760815762728104,0.6120474822783657,0.2904189269119117,0.4672174260988421,0.541289976018249,0.528522834833192,0.5050673826776517,0.1476510067114094,0.14093959731543623,0.14899328859060404,0.363758389261745,0.15570469798657718,0.1704697986577181,0.3100671140939597,0.17718120805369128
833083,0.9101905781820095,0.13358524145826162,-0.11077338417415716,0.3760815762728104,0.6120474822783657,0.2904189269119117,0.4672174260988421,0.541289976018249,0.528522834833192,0.5050673826776517,0.14496644295302014,0.12885906040268458,0.11543624161073826,0.2751677852348993,0.19731543624161074,0.18791946308724833,0.34630872483221475,0.18120805369127516
834832,0.872013349655307,0.14043584160741263,-0.10669684910390789,0.4566029728399137,0.6574151846237412,0.23024948227478412,0.48578366544600926,0.5142473560112046,0.45645599684929605,0.4704087503347002,0.14496644295302014,0.12885906040268458,0.11543624161073826,0.2751677852348993,0.19731543624161074,0.18791946308724833,0.34630872483221475,0.18120805369127516
855634,0.872013349655307,0.14043584160741263,-0.10669684910390789,0.4566029728399137,0.6574151846237412,0.23024948227478412,0.48578366544600926,0.5142473560112046,0.45645599684929605,0.4704087503347002,0.15838926174496645,0.12483221476510067,0.14093959731543623,0.42818791946308726,0.3597315436241611,0.22013422818791947,0.37718120805369126,0.1651006711409396
857369,0.8483318231755982,0.1543565371475084,-0.10383963347882316,0.49570606991076793,0.7141366623667805,0.16982099188556998,0.5112305546667282,0.4825149497412007,0.3389107282657601,0.4204353470868252,0.15838926174496645,0.12483221476510067,0.14093959731543623,0.42818791946308726,0.3597315436241611,0.22013422818791947,0.37718120805369126,0.1651006711409396
869894,0.8483318231755982,0.1543565371475084,-0.10383963347882316,0.49570606991076793,0.7141366623667805,0.16982099188556998,0.5112305546667282,0.4825149497412007,0.3389107282657601,0.4204353470868252,0.1610738255033557,0.12080536912751678,0.1476510067114094,0.4966442953020134,0.5302013422818792,0.23758389261744967,0.30604026845637583,0.14899328859060404
876921,0.8504855409931786,0.1689318347796659,-0.09611231627169395,0.488772751307196,0.695118171271213,0.17679689887503458,0.5006640547708974,0.4472443834884726,0.17525927859141283,0.3608259540517747,0.1610738255033557,0.12080536912751678,0.1476510067114094,0.4966442953020134,0.5302013422818792,0.23758389261744967,0.30604026845637583,0.14899328859060404
893058,0.8504855409931786,0.1689318347796659,-0.09611231627169395,0.488772751307196,0.695118171271213,0.17679689887503458,0.5006640547708974,0.4472443834884726,0.17525927859141283,0.3608259540517747,0.15167785234899328,0.138255033557047,0.15167785234899328,0.5221476510067115,0.6375838926174496,0.26711409395973157,0.3167785234899329,0.16241610738255033
894857,0.8679103819171747,0.18360529378920104,-0.08972696314397444,0.4527358359329701,0.6443421955255738,0.23165503677824026,0.4783822904140069,0.437303187586193,0.07816566076163922,0.3326321811533831,0.15167785234899328,0.138255033557047,0.15167785234899328,0.5221476510067115,0.6375838926174496,0.26711409395973157,0.3167785234899329,0.16241610738255033
915604,0.8679103819171747,0.18360529378920104,-0.08972696314397444,0.4527358359329701,0.6443421955255738,0.23165503677824026,0.4783822904140069,0.437303187586193,0.07816566076163922,0.3326321811533831,0.16241610738255033,0.1691275167785235,0.16375838926174496,0.5342281879194631,0.6536912751677852,0.2751677852348993,0.3275167785234899,0.17181208053691274
917371,0.8900301206287697,0.19536907888760707,-0.0863955644668799,0.4027568917207933,0.6210366775537995,0.335024039673092,0.47931216542525135,0.4414788149904034,0.026573803429856407,0.3233738439599831,0.16241610738255033,0.1691275167785235,0.16375838926174496,0.5342281879194631,0.6536912751677852,0.2751677852348993,0.3275167785234899,0.17181208053691274
929901,0.8900301206287697,0.19536907888760707,-0.0863955644668799,0.4027568917207933,0.6210366775537995,0.335024039673092,0.47931216542525135,0.4414788149904034,0.026573803429856407,0.3233738439599831,0.1610738255033557,0.16778523489932887,0.16241610738255033,0.5275167785234899,0.6496644295302013,0.26711409395973157,0.29261744966442954,0.1651006711409396
936883,0.9164884900709616,0.19724469737001554,-0.09465268669934312,0.3349391673535005,0.6203453370998702,0.35664934784710123,0.48258587748753035,0.4795324442028985,-0.043792069759386515,0.33289044454790195,0.1610738255033557,0.16778523489932887,0.16241610738255033,0.5275167785234899,0.6496644295302013,0.26711409395973157,0.29261744966442954,0.1651006711409396
953105,0.9164884900709616,0.19724469737001554,-0.09465268669934312,0.3349391673535005,0.6203453370998702,0.35664934784710123,0.48258587748753035,0.4795324442028985,-0.043792069759386515,0.33289044454790195,0.138255033557047,0.22684563758389262,0.138255033557047,0.35570469798657717,0.5771812080536913,0.2295302013422819,0.2442953020134228,0.15704697986577182
954856,0.9442848898016274,0.18109008929401826,-0.11408891508704437,0.2500322897268954,0.6322030504810268,0.3256723988804614,0.4855787862818788,0.5298306499946626,-0.12828072377271726,0.34906549514469576,0.138255033557047,0.22684563758389262,0.138255033557047,0.35570469798657717,0.5771812080536913,0.2295302013422819,0.2442953020134228,0.15704697986577182
