Timestamp, Orientation x, Orientation y, Orientation z, Orientation w, Acceleration x, Acceleration y, Acceleration z, Rotation x, Rotation y, Rotation z, EMG 0, EMG 1, EMG 2, EMG 3, EMG 4, EMG 5, EMG 6, EMG 7
0,0.8083742955834788,0.11745715887064528,0.17394179482860034,0.5499809688359732,-0.3874034451546692,0.8976394544013382,0.33503593208935667,-0.2733424487625917,0.621339906160659,0.4100857751388531,0,0,0,0,0,0,0,0
7405,0.8077212758538839,0.11679867541243874,0.17202680140481713,0.5516803327592003,-0.38622604173482294,0.9006731440938953,0.3360003033462805,-0.27616354875787374,0.6229982429468549,0.4099828370177282,0,0,0,0,0,0,0,0
22409,0.8070979454057763,0.11625935772075052,0.16981797236782947,0.5533882222499974,-0.38289649338666976,0.9024573294608766,0.3389740953167152,-0.2759527594757373,0.6234943631397194,0.4096573020372797,0,0,0,0,0,0,0,0
52440,0.8066638541859452,0.11540781221049234,0.16769857113116127,0.5548438090771413,-0.38386452837150153,0.9026525634710583,0.3408786742704993,-0.2748092259821316,0.6234069308509582,0.41064214257537096,0,0,0,0,0,0,0,0
68824,0.806151213744691,0.11420762232487733,0.16565788757260347,0.5564479345507922,-0.3839744101809077,0.9023092162824908,0.342731388200139,-0.2753683039948187,0.6242663176478057,0.4121583154072111,0,0,0,0,0,0,0,0
69592,0.806151213744691,0.11420762232487733,0.16565788757260347,0.5564479345507922,-0.3839744101809077,0.9023092162824908,0.342731388200139,-0.2753683039948187,0.6242663176478057,0.4121583154072111,0.017829457364341085,0.023255813953488372,0.018604651162790697,0.023255813953488372,0.020155038759689922,0.017829457364341085,0.020930232558139535,0.021705426356589147
82512,0.8053776794936995,0.11215405498047362,0.16373031490746393,0.5585522762509197,-0.3851053938891973,0.89994467989716,0.3476303235429583,-0.2780416843216435,0.6261841090293304,0.41369271668428587,0.017829457364341085,0.023255813953488372,0.018604651162790697,0.023255813953488372,0.020155038759689922,0.017829457364341085,0.020930232558139535,0.021705426356589147
90592,0.8053776794936995,0.11215405498047362,0.16373031490746393,0.5585522762509197,-0.3851053938891973,0.89994467989716,0.3476303235429583,-0.2780416843216435,0.6261841090293304,0.41369271668428587,0.017829457364341085,0.023255813953488372,0.020930232558139535,0.02558139534883721,0.01937984496124031,0.01937984496124031,0.020930232558139535,0.020930232558139535
104967,0.8040134472804334,0.1091412313027828,0.16182989836256606,0.5616597299236504,-0.38606814041240767,0.896834708489745,0.35565715394314135,-0.28297641854378064,0.6286914596544665,0.41557170921053194,0.017829457364341085,0.023255813953488372,0.020930232558139535,0.02558139534883721,0.01937984496124031,0.01937984496124031,0.020930232558139535,0.020930232558139535
113080,0.8040134472804334,0.1091412313027828,0.16182989836256606,0.5616597299236504,-0.38606814041240767,0.896834708489745,0.35565715394314135,-0.28297641854378064,0.6286914596544665,0.41557170921053194,0.017829457364341085,0.021705426356589147,0.020155038759689922,0.02635658914728682,0.02248062015503876,0.020155038759689922,0.020155038759689922,0.017829457364341085
128758,0.8016039827829854,0.10492709607680112,0.1603731703520116,0.5663053995209566,-0.3880690899889255,0.8937506745362308,0.3630718488079184,-0.2916022250793889,0.6323618058302675,0.4183415100126266,0.017829457364341085,0.021705426356589147,0.020155038759689922,0.02635658914728682,0.02248062015503876,0.020155038759689922,0.020155038759689922,0.017829457364341085
129547,0.8016039827829854,0.10492709607680112,0.1603731703520116,0.5663053995209566,-0.3880690899889255,0.8937506745362308,0.3630718488079184,-0.2916022250793889,0.6323618058302675,0.4183415100126266,0.020930232558139535,0.027131782945736434,0.02248062015503876,0.024806201550387597,0.020930232558139535,0.020155038759689922,0.020155038759689922,0.017054263565891473
142424,0.797868302765904,0.09937898824494759,0.15907255326648662,0.5729100373829623,-0.39234102760981726,0.8947839490250893,0.36588902763511055,-0.3015308446317382,0.6388781580944956,0.4213800816797697,0.020930232558139535,0.027131782945736434,0.02248062015503876,0.024806201550387597,0.020930232558139535,0.020155038759689922,0.020155038759689922,0.017054263565891473
150520,0.797868302765904,0.09937898824494759,0.15907255326648662,0.5729100373829623,-0.39234102760981726,0.8947839490250893,0.36588902763511055,-0.3015308446317382,0.6388781580944956,0.4213800816797697,0.020155038759689922,0.027131782945736434,0.021705426356589147,0.02945736434108527,0.03255813953488372,0.01937984496124031,0.020155038759689922,0.01627906976744186
164946,0.7935670743264078,0.09200049739786811,0.15696393228407046,0.5806457878823305,-0.3955269517050507,0.9010287771672187,0.36936619608282467,-0.3051772127861748,0.6484776916537546,0.42649550843946976,0.020155038759689922,0.027131782945736434,0.021705426356589147,0.02945736434108527,0.03255813953488372,0.01937984496124031,0.020155038759689922,0.01627906976744186
173078,0.7935670743264078,0.09200049739786811,0.15696393228407046,0.5806457878823305,-0.3955269517050507,0.9010287771672187,0.36936619608282467,-0.3051772127861748,0.6484776916537546,0.42649550843946976,0.02248062015503876,0.02868217054263566,0.021705426356589147,0.050387596899224806,0.10310077519379846,0.06744186046511629,0.02248062015503876,0.015503875968992248
188788,0.790136469896869,0.08245539245826022,0.15322098262092354,0.5877148948921981,-0.4011434918792246,0.9116543635524943,0.3726863777044664,-0.2982576488336569,0.6587052605774849,0.43420707550794446,0.02248062015503876,0.02868217054263566,0.021705426356589147,0.050387596899224806,0.10310077519379846,0.06744186046511629,0.02248062015503876,0.015503875968992248
189597,0.790136469896869,0.08245539245826022,0.15322098262092354,0.5877148948921981,-0.4011434918792246,0.9116543635524943,0.3726863777044664,-0.2982576488336569,0.6587052605774849,0.43420707550794446,0.027131782945736434,0.03255813953488372,0.02558139534883721,0.07364341085271318,0.14651162790697675,0.11085271317829458,0.021705426356589147,0.018604651162790697
202462,0.7880116172908603,0.06953267024495668,0.148351321498836,0.5934600106096435,-0.40877929691405784,0.9107270591100556,0.3767314356411438,-0.2869271634470292,0.670020032862658,0.4444088352743729,0.027131782945736434,0.03255813953488372,0.02558139534883721,0.07364341085271318,0.14651162790697675,0.11085271317829458,0.021705426356589147,0.018604651162790697
218083,0.7880116172908603,0.06953267024495668,0.148351321498836,0.5934600106096435,-0.40877929691405784,0.9107270591100556,0.3767314356411438,-0.2869271634470292,0.670020032862658,0.4444088352743729,0.03333333333333333,0.03643410852713178,0.027131782945736434,0.08449612403100776,0.21705426356589147,0.15658914728682172,0.02248062015503876,0.020930232558139535
225000,0.7874115552547529,0.053575515128491374,0.14190845462923185,0.5974735955125982,-0.4178622931752585,0.9130023336742563,0.37563122370099256,-0.2733529254056565,0.6830225548356395,0.4536662591256403,0.03333333333333333,0.03643410852713178,0.027131782945736434,0.08449612403100776,0.21705426356589147,0.15658914728682172,0.02248062015503876,0.020930232558139535
233109,0.7874115552547529,0.053575515128491374,0.14190845462923185,0.5974735955125982,-0.4178622931752585,0.9130023336742563,0.37563122370099256,-0.2733529254056565,0.6830225548356395,0.4536662591256403,0.03798449612403101,0.03875968992248062,0.027906976744186046,0.12403100775193798,0.3488372093023256,0.19689922480620156,0.024031007751937984,0.021705426356589147
248786,0.7892023603502427,0.032870415403118775,0.13381013200958558,0.598476414556505,-0.42387020212426313,0.9151128387725583,0.37133047499063426,-0.25164250393804105,0.6962488528539693,0.4611914424331287,0.03798449612403101,0.03875968992248062,0.027906976744186046,0.12403100775193798,0.3488372093023256,0.19689922480620156,0.024031007751937984,0.021705426356589147
249549,0.7892023603502427,0.032870415403118775,0.13381013200958558,0.598476414556505,-0.42387020212426313,0.9151128387725583,0.37133047499063426,-0.25164250393804105,0.6962488528539693,0.4611914424331287,0.03953488372093023,0.03875968992248062,0.030232558139534883,0.15271317829457365,0.4868217054263566,0.22868217054263565,0.027131782945736434,0.02248062015503876
262451,0.7946992277208285,0.008610251600300961,0.12224520681056722,0.5945040878237425,-0.4266578637465408,0.9208049268488683,0.3713029118731543,-0.21860494182880874,0.7096368316373046,0.4686077100851113,0.03953488372093023,0.03875968992248062,0.030232558139534883,0.15271317829457365,0.4868217054263566,0.22868217054263565,0.027131782945736434,0.02248062015503876
270563,0.7946992277208285,0.008610251600300961,0.12224520681056722,0.5945040878237425,-0.4266578637465408,0.9208049268488683,0.3713029118731543,-0.21860494182880874,0.7096368316373046,0.4686077100851113,0.040310077519379844,0.03798449612403101,0.03565891472868217,0.1573643410852713,0.49224806201550386,0.23333333333333334,0.03178294573643411,0.021705426356589147
284911,0.8038958923338191,-0.018998276757172264,0.10811251615926887,0.5845529433839014,-0.4230364585017098,0.9166330306726764,0.3756806972982933,-0.18360915760223875,0.7187037029944527,0.47776317872522234,0.040310077519379844,0.03798449612403101,0.03565891472868217,0.1573643410852713,0.49224806201550386,0.23333333333333334,0.03178294573643411,0.021705426356589147
293077,0.8038958923338191,-0.018998276757172264,0.10811251615926887,0.5845529433839014,-0.4230364585017098,0.9166330306726764,0.3756806972982933,-0.18360915760223875,0.7187037029944527,0.47776317872522234,0.03798449612403101,0.03643410852713178,0.03333333333333333,0.162015503875969,0.5581395348837209,0.22713178294573644,0.03255813953488372,0.018604651162790697
308754,0.8158667618142315,-0.04915382747562495,0.09185296749033961,0.5687779536642357,-0.4117438206870574,0.9161948908596447,0.3738501174850979,-0.15219124786294236,0.7253997742204426,0.48516053640692924,0.03798449612403101,0.03643410852713178,0.03333333333333333,0.162015503875969,0.5581395348837209,0.22713178294573644,0.03255813953488372,0.018604651162790697
309531,0.8158667618142315,-0.04915382747562495,0.09185296749033961,0.5687779536642357,-0.4117438206870574,0.9161948908596447,0.3738501174850979,-0.15219124786294236,0.7253997742204426,0.48516053640692924,0.03333333333333333,0.034108527131782945,0.031007751937984496,0.1635658914728682,0.5790697674418605,0.20310077519379846,0.03488372093023256,0.018604651162790697
322385,0.8292769742408155,-0.08123778830003266,0.07327929946754569,0.5480239648187505,-0.3914511029866494,0.8906388888644521,0.3732265031723757,-0.12756478023007134,0.7332800615876446,0.4875918303997388,0.03333333333333333,0.034108527131782945,0.031007751937984496,0.1635658914728682,0.5790697674418605,0.20310077519379846,0.03488372093023256,0.018604651162790697
330585,0.8292769742408155,-0.08123778830003266,0.07327929946754569,0.5480239648187505,-0.3914511029866494,0.8906388888644521,0.3732265031723757,-0.12756478023007134,0.7332800615876446,0.4875918303997388,0.027131782945736434,0.02868217054263566,0.03333333333333333,0.14186046511627906,0.5217054263565891,0.17674418604651163,0.034108527131782945,0.018604651162790697
344935,0.8426214506262714,-0.11274723740070174,0.052297310659295715,0.5239676924208145,-0.35828635035527767,0.8693550742280192,0.36079131405695725,-0.11272847171346961,0.7389469169219915,0.4808760214077572,0.027131782945736434,0.02868217054263566,0.03333333333333333,0.14186046511627906,0.5217054263565891,0.17674418604651163,0.034108527131782945,0.018604651162790697
353088,0.8426214506262714,-0.11274723740070174,0.052297310659295715,0.5239676924208145,-0.35828635035527767,0.8693550742280192,0.36079131405695725,-0.11272847171346961,0.7389469169219915,0.4808760214077572,0.03953488372093023,0.05271317829457364,0.03178294573643411,0.11472868217054263,0.4015503875968992,0.13488372093023257,0.03333333333333333,0.02635658914728682
368763,0.8555127015422497,-0.1410307843952731,0.028353228044819156,0.4973976576263446,-0.314375886484084,0.859433656762445,0.34414082036979515,-0.1035461157555933,0.7422208868782201,0.4641552887130486,0.03953488372093023,0.05271317829457364,0.03178294573643411,0.11472868217054263,0.4015503875968992,0.13488372093023257,0.03333333333333333,0.02635658914728682
369552,0.8555127015422497,-0.1410307843952731,0.028353228044819156,0.4973976576263446,-0.314375886484084,0.859433656762445,0.34414082036979515,-0.1035461157555933,0.7422208868782201,0.4641552887130486,0.08372093023255814,0.12015503875968993,0.03875968992248062,0.10542635658914729,0.38372093023255816,0.11395348837209303,0.031007751937984496,0.03875968992248062
382449,0.8685741550812125,-0.16412661152284466,0.003674497700633772,0.4675766146650571,-0.2721651229176139,0.8431857612866324,0.32868937097675766,-0.0934486467871058,0.7318687227441463,0.4439897360590679,0.08372093023255814,0.12015503875968993,0.03875968992248062,0.10542635658914729,0.38372093023255816,0.11395348837209303,0.031007751937984496,0.03875968992248062
390527,0.8685741550812125,-0.16412661152284466,0.003674497700633772,0.4675766146650571,-0.2721651229176139,0.8431857612866324,0.32868937097675766,-0.0934486467871058,0.7318687227441463,0.4439897360590679,0.11085271317829458,0.1573643410852713,0.04961240310077519,0.08682170542635659,0.26046511627906976,0.09069767441860466,0.03488372093023256,0.04806201550387597
404903,0.8827185676302234,-0.17987536378628005,-0.017992872838225427,0.433738446982312,-0.234913936539508,0.8259936012561925,0.3029861823439967,-0.08344180062138068,0.7032260693752566,0.4227875370203348,0.11085271317829458,0.1573643410852713,0.04961240310077519,0.08682170542635659,0.26046511627906976,0.09069767441860466,0.03488372093023256,0.04806201550387597
413006,0.8827185676302234,-0.17987536378628005,-0.017992872838225427,0.433738446982312,-0.234913936539508,0.8259936012561925,0.3029861823439967,-0.08344180062138068,0.7032260693752566,0.4227875370203348,0.11550387596899225,0.1635658914728682,0.05193798449612403,0.07519379844961241,0.13798449612403102,0.07984496124031008,0.03178294573643411,0.04883720930232558
428727,0.897768215565534,-0.18720158947323712,-0.034155843637264094,0.3972419594710476,-0.20952211681892388,0.8102509079259314,0.2841992219324972,-0.08162230262569214,0.6639737244673417,0.40100564667863475,0.11550387596899225,0.1635658914728682,0.05193798449612403,0.07519379844961241,0.13798449612403102,0.07984496124031008,0.03178294573643411,0.04883720930232558
429522,0.897768215565534,-0.18720158947323712,-0.034155843637264094,0.3972419594710476,-0.20952211681892388,0.8102509079259314,0.2841992219324972,-0.08162230262569214,0.6639737244673417,0.40100564667863475,0.11937984496124031,0.1682170542635659,0.05193798449612403,0.06356589147286822,0.08604651162790698,0.05116279069767442,0.03255813953488372,0.05891472868217054
442388,0.9131035551995412,-0.18718453481419567,-0.04450488505429262,0.35947623372714865,-0.18064314592415662,0.7922514990024467,0.2807424081025991,-0.08629024988618225,0.6267428660866927,0.3820806491578688,0.11937984496124031,0.1682170542635659,0.05193798449612403,0.06356589147286822,0.08604651162790698,0.05116279069767442,0.03255813953488372,0.05891472868217054
450550,0.9131035551995412,-0.18718453481419567,-0.04450488505429262,0.35947623372714865,-0.18064314592415662,0.7922514990024467,0.2807424081025991,-0.08629024988618225,0.6267428660866927,0.3820806491578688,0.12170542635658915,0.17054263565891473,0.05581395348837209,0.056589147286821705,0.056589147286821705,0.04108527131782946,0.031007751937984496,0.05891472868217054
464955,0.9270007214852507,-0.1798268174926828,-0.04959992865216173,0.32537950942549965,-0.1666301319343511,0.7525923268515609,0.3047358993025283,-0.11367008002965606,0.5958639160677186,0.3614411001429609,0.12170542635658915,0.17054263565891473,0.05581395348837209,0.056589147286821705,0.056589147286821705,0.04108527131782946,0.031007751937984496,0.05891472868217054
473139,0.9270007214852507,-0.1798268174926828,-0.04959992865216173,0.32537950942549965,-0.1666301319343511,0.7525923268515609,0.3047358993025283,-0.11367008002965606,0.5958639160677186,0.3614411001429609,0.1,0.14651162790697675,0.05193798449612403,0.04496124031007752,0.05193798449612403,0.03255813953488372,0.027906976744186046,0.05426356589147287
496262,0.9378757018037123,-0.16350045833742746,-0.04870185757509704,0.30213390600589785,-0.1653475474534117,0.7042302965158491,0.346608408233687,-0.1741060786453511,0.5669753315952215,0.33585343976599424,0.1,0.14651162790697675,0.05193798449612403,0.04496124031007752,0.05193798449612403,0.03255813953488372,0.027906976744186046,0.05426356589147287
497074,0.9378757018037123,-0.16350045833742746,-0.04870185757509704,0.30213390600589785,-0.1653475474534117,0.7042302965158491,0.346608408233687,-0.1741060786453511,0.5669753315952215,0.33585343976599424,0.07364341085271318,0.11627906976744186,0.04263565891472868,0.03488372093023256,0.043410852713178294,0.024031007751937984,0.02248062015503876,0.04806201550387597
502524,0.9434083871561378,-0.13954786398254004,-0.04015668092701691,0.2981517225814589,-0.1991087083673933,0.666506058136159,0.3920509155918594,-0.27342184329397123,0.5437977101142825,0.31840020130937785,0.07364341085271318,0.11627906976744186,0.04263565891472868,0.03488372093023256,0.043410852713178294,0.024031007751937984,0.02248062015503876,0.04806201550387597
510526,0.9434083871561378,-0.13954786398254004,-0.04015668092701691,0.2981517225814589,-0.1991087083673933,0.666506058136159,0.3920509155918594,-0.27342184329397123,0.5437977101142825,0.31840020130937785,0.06589147286821706,0.13333333333333333,0.04108527131782946,0.03333333333333333,0.03953488372093023,0.027131782945736434,0.021705426356589147,0.04806201550387597
524901,0.9433273572902703,-0.11298551327663545,-0.024424090815262978,0.31108075248272465,-0.30401484330434747,0.6860104180184143,0.4433575646875695,-0.359011025225188,0.5286630655484806,0.3222123362358257,0.06589147286821706,0.13333333333333333,0.04108527131782946,0.03333333333333333,0.03953488372093023,0.027131782945736434,0.021705426356589147,0.04806201550387597
533013,0.9433273572902703,-0.11298551327663545,-0.024424090815262978,0.31108075248272465,-0.30401484330434747,0.6860104180184143,0.4433575646875695,-0.359011025225188,0.5286630655484806,0.3222123362358257,0.07209302325581396,0.16666666666666666,0.05193798449612403,0.05736434108527132,0.03953488372093023,0.050387596899224806,0.027906976744186046,0.04108527131782946
548727,0.9389544620420047,-0.08374646221125326,-0.005941488656882987,0.33364014595226543,-0.35758981053504174,0.8000627833787233,0.4544388033734386,-0.4069686513846555,0.5262267747419699,0.32344875008021584,0.07209302325581396,0.16666666666666666,0.05193798449612403,0.05736434108527132,0.03953488372093023,0.050387596899224806,0.027906976744186046,0.04108527131782946
549519,0.9389544620420047,-0.08374646221125326,-0.005941488656882987,0.33364014595226543,-0.35758981053504174,0.8000627833787233,0.4544388033734386,-0.4069686513846555,0.5262267747419699,0.32344875008021584,0.06744186046511629,0.23953488372093024,0.07519379844961241,0.10387596899224806,0.22015503875968992,0.08759689922480621,0.03875968992248062,0.04186046511627907
562393,0.9323129193743431,-0.05609313015983998,0.00935952691520564,0.3571534409360837,-0.47670558603592905,0.8438295409781766,0.48378303268408457,-0.40952234620026695,0.54161751484933,0.3259952587329445,0.06744186046511629,0.23953488372093024,0.07519379844961241,0.10387596899224806,0.22015503875968992,0.08759689922480621,0.03875968992248062,0.04186046511627907
570548,0.9323129193743431,-0.05609313015983998,0.00935952691520564,0.3571534409360837,-0.47670558603592905,0.8438295409781766,0.48378303268408457,-0.40952234620026695,0.54161751484933,0.3259952587329445,0.08759689922480621,0.3875968992248062,0.08449612403100776,0.12945736434108526,0.3,0.13565891472868216,0.050387596899224806,0.04961240310077519
584938,0.9229373875493099,-0.04305615572965833,0.010598359870666874,0.3823877886197342,-0.7091371692293938,0.8048046576264303,0.5210977688819931,-0.3946580693702513,0.6242122048466797,0.3610048014876751,0.08759689922480621,0.3875968992248062,0.08449612403100776,0.12945736434108526,0.3,0.13565891472868216,0.050387596899224806,0.04961240310077519
593116,0.9229373875493099,-0.04305615572965833,0.010598359870666874,0.3823877886197342,-0.7091371692293938,0.8048046576264303,0.5210977688819931,-0.3946580693702513,0.6242122048466797,0.3610048014876751,0.09069767441860466,0.42248062015503873,0.09224806201550388,0.22325581395348837,0.47751937984496123,0.31085271317829455,0.056589147286821705,0.050387596899224806
608865,0.9122086835340399,-0.06430700675308279,-0.004291483693615317,0.4046251471859605,-0.7047413910114845,0.735024949318949,0.36445008858403827,-0.3463142422157293,0.7409461571735669,0.4660535717794301,0.09069767441860466,0.42248062015503873,0.09224806201550388,0.22325581395348837,0.47751937984496123,0.31085271317829455,0.056589147286821705,0.050387596899224806
609626,0.9122086835340399,-0.06430700675308279,-0.004291483693615317,0.4046251471859605,-0.7047413910114845,0.735024949318949,0.36445008858403827,-0.3463142422157293,0.7409461571735669,0.4660535717794301,0.09922480620155039,0.4418604651162791,0.13333333333333333,0.37751937984496126,0.5992248062015504,0.41550387596899224,0.07286821705426356,0.05503875968992248
622532,0.8954158102928003,-0.1025407122149964,-0.0004893703120286141,0.43326168712779944,-0.3568883131163801,0.7740512926948804,0.24530582331068343,-0.39385934063845485,0.7292051521156189,0.5621769015984149,0.09922480620155039,0.4418604651162791,0.13333333333333333,0.37751937984496126,0.5992248062015504,0.41550387596899224,0.07286821705426356,0.05503875968992248
630543,0.8954158102928003,-0.1025407122149964,-0.0004893703120286141,0.43326168712779944,-0.3568883131163801,0.7740512926948804,0.24530582331068343,-0.39385934063845485,0.7292051521156189,0.5621769015984149,0.09147286821705426,0.5837209302325581,0.2248062015503876,0.5007751937984496,0.6542635658914728,0.42170542635658914,0.07209302325581396,0.05193798449612403
644940,0.8740548285640293,-0.12484378109731897,0.002257179048543334,0.4695072865547166,-0.148209760859241,0.8590693943718681,0.362059076544753,-0.4407433541725398,0.7025144723950907,0.5089236811890553,0.09147286821705426,0.5837209302325581,0.2248062015503876,0.5007751937984496,0.6542635658914728,0.42170542635658914,0.07209302325581396,0.05193798449612403
653115,0.8740548285640293,-0.12484378109731897,0.002257179048543334,0.4695072865547166,-0.148209760859241,0.8590693943718681,0.362059076544753,-0.4407433541725398,0.7025144723950907,0.5089236811890553,0.09147286821705426,0.6007751937984496,0.24496124031007752,0.5100775193798449,0.6527131782945736,0.4317829457364341,0.07054263565891473,0.050387596899224806
668106,0.8630269569781537,-0.12784226432558676,-0.006069485008058206,0.4886757496877371,-0.2892819847763767,0.7622820901032339,0.2781935007107656,-0.3570620344347468,0.6912669761542612,0.40623284002712023,0.09147286821705426,0.6007751937984496,0.24496124031007752,0.5100775193798449,0.6527131782945736,0.4317829457364341,0.07054263565891473,0.050387596899224806
668855,0.8630269569781537,-0.12784226432558676,-0.006069485008058206,0.4886757496877371,-0.2892819847763767,0.7622820901032339,0.2781935007107656,-0.3570620344347468,0.6912669761542612,0.40623284002712023,0.07596899224806201,0.5170542635658915,0.2434108527131783,0.5108527131782946,0.641860465116279,0.4263565891472868,0.06356589147286822,0.043410852713178294
682535,0.846699333161494,-0.1464055634987098,-0.024807292068357967,0.5109307667979509,-0.4518659031032949,1.0776303197146424,0.3965702031165462,-0.3592472310995415,0.7545547223426237,0.44462431109767103,0.07596899224806201,0.5170542635658915,0.2434108527131783,0.5108527131782946,0.641860465116279,0.4263565891472868,0.06356589147286822,0.043410852713178294
690559,0.846699333161494,-0.1464055634987098,-0.024807292068357967,0.5109307667979509,-0.4518659031032949,1.0776303197146424,0.3965702031165462,-0.3592472310995415,0.7545547223426237,0.44462431109767103,0.09767441860465116,0.49534883720930234,0.2434108527131783,0.47984496124031006,0.5317829457364341,0.33178294573643413,0.06046511627906977,0.046511627906976744
704901,0.8384709870897613,-0.15881565853943444,-0.06761560461828153,0.5168869512993257,-0.5469209884471186,1.14037585824216,0.4258581141294016,-0.2647277507712164,0.8106556324210057,0.36540499200204885,0.09767441860465116,0.49534883720930234,0.2434108527131783,0.47984496124031006,0.5317829457364341,0.33178294573643413,0.06046511627906977,0.046511627906976744
713125,0.8384709870897613,-0.15881565853943444,-0.06761560461828153,0.5168869512993257,-0.5469209884471186,1.14037585824216,0.4258581141294016,-0.2647277507712164,0.8106556324210057,0.36540499200204885,0.13798449612403102,0.4906976744186046,0.23333333333333334,0.3744186046511628,0.4,0.1930232558139535,0.04496124031007752,0.05813953488372093
728115,0.8516610746198306,-0.16373295510495503,-0.10588466052898954,0.48647031980857247,-0.08931176912641065,1.0123702865943245,0.2950374542943514,-0.09442093026384948,0.7262735631712437,0.3306207353362433,0.13798449612403102,0.4906976744186046,0.23333333333333334,0.3744186046511628,0.4,0.1930232558139535,0.04496124031007752,0.05813953488372093
728915,0.8516610746198306,-0.16373295510495503,-0.10588466052898954,0.48647031980857247,-0.08931176912641065,1.0123702865943245,0.2950374542943514,-0.09442093026384948,0.7262735631712437,0.3306207353362433,0.16434108527131783,0.3015503875968992,0.15891472868217055,0.1875968992248062,0.30697674418604654,0.17751937984496124,0.04573643410852713,0.06744186046511629
742523,0.8861509641575287,-0.14781243897075103,-0.12367687315410664,0.42141663784789457,0.006878796762943201,0.8826650462467659,0.2485999658010738,0.04376556395099859,0.5666547446096423,0.28067014203436114,0.16434108527131783,0.3015503875968992,0.15891472868217055,0.1875968992248062,0.30697674418604654,0.17751937984496124,0.04573643410852713,0.06744186046511629
750582,0.8861509641575287,-0.14781243897075103,-0.12367687315410664,0.42141663784789457,0.006878796762943201,0.8826650462467659,0.2485999658010738,0.04376556395099859,0.5666547446096423,0.28067014203436114,0.17131782945736435,0.2124031007751938,0.1310077519379845,0.13798449612403102,0.22248062015503875,0.13643410852713178,0.04186046511627907,0.06821705426356589
764905,0.9315227188729449,-0.11937919498263899,-0.1132126046269879,0.3243407747762027,0.002139107823712877,0.8656422737357881,0.21437467576253882,0.14868481843690137,0.39663720421195015,0.2652756446195036,0.17131782945736435,0.2124031007751938,0.1310077519379845,0.13798449612403102,0.22248062015503875,0.13643410852713178,0.04186046511627907,0.06821705426356589
773079,0.9315227188729449,-0.11937919498263899,-0.1132126046269879,0.3243407747762027,0.002139107823712877,0.8656422737357881,0.21437467576253882,0.14868481843690137,0.39663720421195015,0.2652756446195036,0.175968992248062,0.2178294573643411,0.12868217054263567,0.11317829457364341,0.15503875968992248,0.11395348837209303,0.04108527131782946,0.06899224806201551
787462,0.9653814001733475,-0.09627587690796374,-0.08624334308806475,0.22656520804824354,-0.2086842620938438,0.7582101278525026,0.1801271628617773,0.12020831278225477,0.3327330115126404,0.3101079793248414,0.175968992248062,0.2178294573643411,0.12868217054263567,0.11317829457364341,0.15503875968992248,0.11395348837209303,0.04108527131782946,0.06899224806201551
795550,0.9653814001733475,-0.09627587690796374,-0.08624334308806475,0.22656520804824354,-0.2086842620938438,0.7582101278525026,0.1801271628617773,0.12020831278225477,0.3327330115126404,0.3101079793248414,0.1697674418604651,0.2054263565891473,0.1263565891472868,0.10465116279069768,0.12713178294573643,0.08449612403100776,0.03875968992248062,0.06666666666666667
802501,0.9832489712953909,-0.0592093497451751,-0.05767747099578935,0.16244698424051815,-0.35624275254100723,0.45417397692589495,0.210989467723675,-0.046054201392592364,0.367512608898147,0.2692820137356233,0.1697674418604651,0.2054263565891473,0.1263565891472868,0.10465116279069768,0.12713178294573643,0.08449612403100776,0.03875968992248062,0.06666666666666667
810519,0.9832489712953909,-0.0592093497451751,-0.05767747099578935,0.16244698424051815,-0.35624275254100723,0.45417397692589495,0.210989467723675,-0.046054201392592364,0.367512608898147,0.2692820137356233,0.1387596899224806,0.21007751937984495,0.11472868217054263,0.10465116279069768,0.10465116279069768,0.07519379844961241,0.044186046511627906,0.056589147286821705
824963,0.984793013508272,-0.009629470332271975,-0.022180797878684766,0.1720407104492462,-0.56152181592351,0.22531415619656753,0.30428600685875673,-0.3814039944119605,0.4425859400777215,0.23549782331037328,0.1387596899224806,0.21007751937984495,0.11472868217054263,0.10465116279069768,0.10465116279069768,0.07519379844961241,0.044186046511627906,0.056589147286821705
833109,0.984793013508272,-0.009629470332271975,-0.022180797878684766,0.1720407104492462,-0.56152181592351,0.22531415619656753,0.30428600685875673,-0.3814039944119605,0.4425859400777215,0.23549782331037328,0.10930232558139535,0.6,0.10542635658914729,0.09844961240310078,0.10542635658914729,0.11162790697674418,0.04496124031007752,0.04573643410852713
847433,0.9607480197143132,0.03904968182786843,-0.00014876631256566242,0.2746604136615838,-0.5567392178068227,0.6198488735893853,0.3641208276393742,-0.7641307263141194,0.6584500711002601,0.22424903446971306,0.10930232558139535,0.6,0.10542635658914729,0.09844961240310078,0.10542635658914729,0.11162790697674418,0.04496124031007752,0.04573643410852713
855538,0.9607480197143132,0.03904968182786843,-0.00014876631256566242,0.2746604136615838,-0.5567392178068227,0.6198488735893853,0.3641208276393742,-0.7641307263141194,0.6584500711002601,0.22424903446971306,0.09689922480620156,0.8984496124031007,0.14651162790697675,0.21007751937984495,0.3372093023255814,0.21705426356589147,0.05736434108527132,0.053488372093023255
862493,0.9204454760194694,0.06364945121076765,0.013764604907680944,0.3854081066708334,-0.5592292490485691,1.0576940723979578,0.42270318494890613,-0.7923247146902777,0.7420297223566366,0.3069935397759542,0.09689922480620156,0.8984496124031007,0.14651162790697675,0.21007751937984495,0.3372093023255814,0.21705426356589147,0.05736434108527132,0.053488372093023255
870558,0.9204454760194694,0.06364945121076765,0.013764604907680944,0.3854081066708334,-0.5592292490485691,1.0576940723979578,0.42270318494890613,-0.7923247146902777,0.7420297223566366,0.3069935397759542,0.08604651162790698,0.9728682170542635,0.17209302325581396,0.23488372093023255,0.3682170542635659,0.27364341085271315,0.06124031007751938,0.05193798449612403
885011,0.9008369077557955,0.07035486842361774,0.014988871133522375,0.42815697104708517,-0.5303387791511444,1.0782389126007172,0.41969834995218197,-0.4694624988763412,0.6832977907442361,0.37432524278136403,0.08604651162790698,0.9728682170542635,0.17209302325581396,0.23488372093023255,0.3682170542635659,0.27364341085271315,0.06124031007751938,0.05193798449612403
893095,0.9008369077557955,0.07035486842361774,0.014988871133522375,0.42815697104708517,-0.5303387791511444,1.0782389126007172,0.41969834995218197,-0.4694624988763412,0.6832977907442361,0.37432524278136403,0.07131782945736434,0.9976744186046511,0.3,0.2527131782945736,0.3945736434108527,0.3364341085271318,0.07674418604651163,0.056589147286821705
907431,0.910428548919542,0.05288892758605142,0.013952456208505715,0.410034081043033,-0.42085018266653595,0.7963446376663408,0.31259924919530785,-0.1743865521223299,0.6182529978107654,0.4737384655589464,0.07131782945736434,0.9976744186046511,0.3,0.2527131782945736,0.3945736434108527,0.3364341085271318,0.07674418604651163,0.056589147286821705
915524,0.910428548919542,0.05288892758605142,0.013952456208505715,0.410034081043033,-0.42085018266653595,0.7963446376663408,0.31259924919530785,-0.1743865521223299,0.6182529978107654,0.4737384655589464,0.06124031007751938,1,0.32248062015503876,0.26046511627906976,0.44263565891472867,0.35426356589147284,0.07209302325581396,0.05503875968992248
922479,0.9124485060132765,0.026481558437942157,0.04096037016448706,0.4062741672969449,-0.2286191328732136,0.7679771553468041,0.2955719802815432,-0.286840232836053,0.5611027268234149,0.5562614890299477,0.06124031007751938,1,0.32248062015503876,0.26046511627906976,0.44263565891472867,0.35426356589147284,0.07209302325581396,0.05503875968992248
930524,0.9124485060132765,0.026481558437942157,0.04096037016448706,0.4062741672969449,-0.2286191328732136,0.7679771553468041,0.2955719802815432,-0.286840232836053,0.5611027268234149,0.5562614890299477,0.05736434108527132,0.8325581395348837,0.3201550387596899,0.26356589147286824,0.4565891472868217,0.3627906976744186,0.07131782945736434,0.05426356589147287
944849,0.8971674624824653,0.013357235613689261,0.06867224529495514,0.4361149518712748,-0.32736926180202486,0.92273286722691,0.32432590886013624,-0.4513509650310864,0.5950621656929522,0.5037415398001157,0.05736434108527132,0.8325581395348837,0.3201550387596899,0.26356589147286824,0.4565891472868217,0.3627906976744186,0.07131782945736434,0.05426356589147287
953084,0.8971674624824653,0.013357235613689261,0.06867224529495514,0.4361149518712748,-0.32736926180202486,0.92273286722691,0.32432590886013624,-0.4513509650310864,0.5950621656929522,0.5037415398001157,0.053488372093023255,0.5403100775193799,0.30465116279069765,0.1875968992248062,0.32945736434108525,0.3124031007751938,0.06124031007751938,0.043410852713178294
967440,0.8867037027756746,0.02274464635880799,0.05980267531791933,0.45788957683129305,-0.538619150167214,0.7986622474672127,0.40893174077972216,-0.3623778088159082,0.6633394406983926,0.3504519740939982,0.053488372093023255,0.5403100775193799,0.30465116279069765,0.1875968992248062,0.32945736434108525,0.3124031007751938,0.06124031007751938,0.043410852713178294
975525,0.8867037027756746,0.02274464635880799,0.05980267531791933,0.45788957683129305,-0.538619150167214,0.7986622474672127,0.40893174077972216,-0.3623778088159082,0.6633394406983926,0.3504519740939982,0.044186046511627906,0.41007751937984493,0.3,0.15658914728682172,0.2930232558139535,0.26356589147286824,0.05736434108527132,0.04108527131782946
982548,0.8709409166144685,0.012992281224008043,0.0649332349099005,0.4869053248830636,-0.4038507252064163,0.7524907208635253,0.26463005406529017,-0.4108941709388646,0.6792805487335134,0.43666505797605143,0.044186046511627906,0.41007751937984493,0.3,0.15658914728682172,0.2930232558139535,0.26356589147286824,0.05736434108527132,0.04108527131782946
998028,0.8709409166144685,0.012992281224008043,0.0649332349099005,0.4869053248830636,-0.4038507252064163,0.7524907208635253,0.26463005406529017,-0.4108941709388646,0.6792805487335134,0.43666505797605143,0.04496124031007752,0.6015503875968993,0.17519379844961241,0.13410852713178295,0.28449612403100777,0.17829457364341086,0.03333333333333333,0.031007751937984496
1004974,0.8264175517703387,-0.015543449299517481,0.05297624181920807,0.5603444914626232,-0.47928353071679325,1.1444321150847028,0.3417494920972943,-0.6026937267509103,0.8518449893660134,0.4562530367160398,0.04496124031007752,0.6015503875968993,0.17519379844961241,0.13410852713178295,0.28449612403100777,0.17829457364341086,0.03333333333333333,0.031007751937984496
1012996,0.8264175517703387,-0.015543449299517481,0.05297624181920807,0.5603444914626232,-0.47928353071679325,1.1444321150847028,0.3417494920972943,-0.6026937267509103,0.8518449893660134,0.4562530367160398,0.05116279069767442,0.7007751937984497,0.1248062015503876,0.11472868217054263,0.21472868217054264,0.1372093023255814,0.03255813953488372,0.02558139534883721
1027421,0.8184050349966561,-0.02259870810882754,0.030931176200906407,0.5733635490879788,-0.25042195285546376,1.1774476114509387,0.35596416185899127,-0.3022175763454633,0.7269331324592201,0.37873807550710703,0.05116279069767442,0.7007751937984497,0.1248062015503876,0.11472868217054263,0.21472868217054264,0.1372093023255814,0.03255813953488372,0.02558139534883721
1035499,0.8184050349966561,-0.02259870810882754,0.030931176200906407,0.5733635490879788,-0.25042195285546376,1.1774476114509387,0.35596416185899127,-0.3022175763454633,0.7269331324592201,0.37873807550710703,0.11007751937984496,0.7085271317829457,0.12015503875968993,0.10155038759689923,0.17364341085271318,0.07674418604651163,0.03488372093023256,0.04263565891472868
1042470,0.8510470983742486,-0.025231442611656982,0.015973380675339488,0.5242395080135677,-0.23753333945844424,0.9616540293433813,0.3778773565526595,0.0019133907805923278,0.5850356039234423,0.40383288274096124,0.11007751937984496,0.7085271317829457,0.12015503875968993,0.10155038759689923,0.17364341085271318,0.07674418604651163,0.03488372093023256,0.04263565891472868
1058003,0.8510470983742486,-0.025231442611656982,0.015973380675339488,0.5242395080135677,-0.23753333945844424,0.9616540293433813,0.3778773565526595,0.0019133907805923278,0.5850356039234423,0.40383288274096124,0.12015503875968993,0.6775193798449612,0.10155038759689923,0.1,0.1682170542635659,0.06744186046511629,0.034108527131782945,0.04496124031007752
1064945,0.8897312361272394,-0.02302687416182604,0.009282583244683174,0.45580908741943227,-0.29816368199100846,0.8893374524353973,0.3374385040420628,0.07079495486319182,0.5175625086272189,0.4025062030565526,0.12015503875968993,0.6775193798449612,0.10155038759689923,0.1,0.1682170542635659,0.06744186046511629,0.034108527131782945,0.04496124031007752
1073025,0.8897312361272394,-0.02302687416182604,0.009282583244683174,0.45580908741943227,-0.29816368199100846,0.8893374524353973,0.3374385040420628,0.07079495486319182,0.5175625086272189,0.4025062030565526,0.12170542635658915,0.6651162790697674,0.06821705426356589,0.1,0.1682170542635659,0.06434108527131784,0.03255813953488372,0.04496124031007752
1087405,0.920354523592057,-0.018094347710316178,0.009625618906550615,0.3905476833182374,-0.33288778405442165,0.8268088621480163,0.3132360089098388,0.030932282437408698,0.4976211234413386,0.4014174115711117,0.12170542635658915,0.6651162790697674,0.06821705426356589,0.1,0.1682170542635659,0.06434108527131784,0.03255813953488372,0.04496124031007752
1095509,0.920354523592057,-0.018094347710316178,0.009625618906550615,0.3905476833182374,-0.33288778405442165,0.8268088621480163,0.3132360089098388,0.030932282437408698,0.4976211234413386,0.4014174115711117,0.12790697674418605,0.4565891472868217,0.053488372093023255,0.08527131782945736,0.11472868217054263,0.05503875968992248,0.031007751937984496,0.04883720930232558
1102462,0.9420151291442074,-0.013765673507963844,0.01614918461790238,0.3348988004345066,-0.3219878081249923,0.7551623276789072,0.3000289637901865,-0.031170431816011757,0.49489127326529003,0.4088055933877152,0.12790697674418605,0.4565891472868217,0.053488372093023255,0.08527131782945736,0.11472868217054263,0.05503875968992248,0.031007751937984496,0.04883720930232558
1117981,0.9420151291442074,-0.013765673507963844,0.01614918461790238,0.3348988004345066,-0.3219878081249923,0.7551623276789072,0.3000289637901865,-0.031170431816011757,0.49489127326529003,0.4088055933877152,0.12868217054263567,0.2317829457364341,0.050387596899224806,0.07286821705426356,0.07209302325581396,0.03565891472868217,0.02868217054263566,0.04883720930232558
1124947,0.953742885159387,-0.008002838448989052,0.021706151614382718,0.2997320579562711,-0.33345093570113477,0.6932171215044785,0.34200797254783416,-0.1265300119994342,0.5291218564707437,0.3937590605476514,0.12868217054263567,0.2317829457364341,0.050387596899224806,0.07286821705426356,0.07209302325581396,0.03565891472868217,0.02868217054263566,0.04883720930232558
1133021,0.953742885159387,-0.008002838448989052,0.021706151614382718,0.2997320579562711,-0.33345093570113477,0.6932171215044785,0.34200797254783416,-0.1265300119994342,0.5291218564707437,0.3937590605476514,0.08217054263565891,0.16744186046511628,0.047286821705426356,0.046511627906976744,0.06589147286821706,0.02635658914728682,0.020930232558139535,0.03333333333333333
1147382,0.9557871547876262,-0.00047239812663635306,0.03417251778053548,0.29206665439848434,-0.27994150008875923,0.67761732085842,0.34124254977320706,-0.25600007508402767,0.5688653975016926,0.3592180170385697,0.08217054263565891,0.16744186046511628,0.047286821705426356,0.046511627906976744,0.06589147286821706,0.02635658914728682,0.020930232558139535,0.03333333333333333
1163755,0.9557871547876262,-0.00047239812663635306,0.03417251778053548,0.29206665439848434,-0.27994150008875923,0.67761732085842,0.34124254977320706,-0.25600007508402767,0.5688653975016926,0.3592180170385697,0.06899224806201551,0.13643410852713178,0.03643410852713178,0.03875968992248062,0.053488372093023255,0.02558139534883721,0.017829457364341085,0.031007751937984496
1165464,0.9499652140969683,0.013858088491068704,0.054685670365001326,0.3072190144600514,-0.2628327595659854,0.6923699555744023,0.3386058633784354,-0.3698195926617727,0.5661799400734608,0.3410953641822658,0.06899224806201551,0.13643410852713178,0.03643410852713178,0.03875968992248062,0.053488372093023255,0.02558139534883721,0.017829457364341085,0.031007751937984496
1178030,0.9499652140969683,0.013858088491068704,0.054685670365001326,0.3072190144600514,-0.2628327595659854,0.6923699555744023,0.3386058633784354,-0.3698195926617727,0.5661799400734608,0.3410953641822658,0.06589147286821706,0.11782945736434108,0.03255813953488372,0.040310077519379844,0.043410852713178294,0.03178294573643411,0.027131782945736434,0.031007751937984496
1185008,0.939182665071447,0.030758034187028438,0.07720657091674471,0.3332101594632459,-0.3311521953171263,0.7275526505475587,0.3585635032877923,-0.4285648184032977,0.5488582148338367,0.3569155807546258,0.06589147286821706,0.11782945736434108,0.03255813953488372,0.040310077519379844,0.043410852713178294,0.03178294573643411,0.027131782945736434,0.031007751937984496
1200515,0.939182665071447,0.030758034187028438,0.07720657091674471,0.3332101594632459,-0.3311521953171263,0.7275526505475587,0.3585635032877923,-0.4285648184032977,0.5488582148338367,0.3569155807546258,0.047286821705426356,0.07054263565891473,0.027906976744186046,0.044186046511627906,0.04496124031007752,0.03255813953488372,0.027906976744186046,0.027131782945736434
1207486,0.9260359405894139,0.04480740667787578,0.09978834850539081,0.3612367901336327,-0.4337735856590047,0.7594454464018139,0.3799952950565943,-0.4405302505588292,0.5535573075643777,0.36664608506841184,0.047286821705426356,0.07054263565891473,0.027906976744186046,0.044186046511627906,0.04496124031007752,0.03255813953488372,0.027906976744186046,0.027131782945736434
1215553,0.9260359405894139,0.04480740667787578,0.09978834850539081,0.3612367901336327,-0.4337735856590047,0.7594454464018139,0.3799952950565943,-0.4405302505588292,0.5535573075643777,0.36664608506841184,0.037209302325581395,0.09069767441860466,0.024031007751937984,0.04573643410852713,0.044186046511627906,0.034108527131782945,0.02945736434108527,0.024031007751937984
1222477,0.9118673572693462,0.05279182804755671,0.11582256640078814,0.3902513020482457,-0.4798041090205417,0.8153748967832188,0.3881436753606279,-0.4343447129188091,0.5888028570842304,0.38173406540783444,0.037209302325581395,0.09069767441860466,0.024031007751937984,0.04573643410852713,0.044186046511627906,0.034108527131782945,0.02945736434108527,0.024031007751937984
1238033,0.9118673572693462,0.05279182804755671,0.11582256640078814,0.3902513020482457,-0.4798041090205417,0.8153748967832188,0.3881436753606279,-0.4343447129188091,0.5888028570842304,0.38173406540783444,0.03488372093023256,0.10155038759689923,0.02635658914728682,0.05581395348837209,0.047286821705426356,0.037209302325581395,0.030232558139534883,0.027131782945736434
1245009,0.9000308812029796,0.054529616066925315,0.12720194268565277,0.4132681933437148,-0.42212725731142176,0.8623278133773236,0.3644467606879286,-0.3992145194318802,0.6083416605851305,0.40591107963661227,0.03488372093023256,0.10155038759689923,0.02635658914728682,0.05581395348837209,0.047286821705426356,0.037209302325581395,0.030232558139534883,0.027131782945736434
1260512,0.9000308812029796,0.054529616066925315,0.12720194268565277,0.4132681933437148,-0.42212725731142176,0.8623278133773236,0.3644467606879286,-0.3992145194318802,0.6083416605851305,0.40591107963661227,0.02635658914728682,0.10387596899224806,0.027906976744186046,0.056589147286821705,0.047286821705426356,0.03798449612403101,0.031007751937984496,0.02635658914728682
1267448,0.8923567164079618,0.05555596754320771,0.1396834680353502,0.42556028234500004,-0.3647577319003983,0.8686254895795782,0.34898858989239745,-0.3523455107927341,0.5952836195532797,0.42190893798211776,0.02635658914728682,0.10387596899224806,0.027906976744186046,0.056589147286821705,0.047286821705426356,0.03798449612403101,0.031007751937984496,0.02635658914728682
1275501,0.8923567164079618,0.05555596754320771,0.1396834680353502,0.42556028234500004,-0.3647577319003983,0.8686254895795782,0.34898858989239745,-0.3523455107927341,0.5952836195532797,0.42190893798211776,0.02558139534883721,0.11550387596899225,0.024806201550387597,0.050387596899224806,0.04108527131782946,0.03255813953488372,0.02248062015503876,0.024806201550387597
1282509,0.8854163240075636,0.06107241576677046,0.1515354011538816,0.435138041787289,-0.35271200411385684,0.8702292885205359,0.35401334046529365,-0.34118304119299403,0.5804975416891525,0.40774687239219537,0.02558139534883721,0.11550387596899225,0.024806201550387597,0.050387596899224806,0.04108527131782946,0.03255813953488372,0.02248062015503876,0.024806201550387597
1298170,0.8854163240075636,0.06107241576677046,0.1515354011538816,0.435138041787289,-0.35271200411385684,0.8702292885205359,0.35401334046529365,-0.34118304119299403,0.5804975416891525,0.40774687239219537,0.024031007751937984,0.11162790697674418,0.024031007751937984,0.04573643410852713,0.02868217054263566,0.031007751937984496,0.020930232558139535,0.023255813953488372
1304994,0.8754363392991051,0.06887503011142146,0.16066764555344715,0.4506144180272587,-0.36904319460678026,0.8786309920916262,0.3620938153882491,-0.3648706702993235,0.5894373680506062,0.38649835239827784,0.024031007751937984,0.11162790697674418,0.024031007751937984,0.04573643410852713,0.02868217054263566,0.031007751937984496,0.020930232558139535,0.023255813953488372
1320484,0.8754363392991051,0.06887503011142146,0.16066764555344715,0.4506144180272587,-0.36904319460678026,0.8786309920916262,0.3620938153882491,-0.3648706702993235,0.5894373680506062,0.38649835239827784,0.02248062015503876,0.09302325581395349,0.024806201550387597,0.04186046511627907,0.027131782945736434,0.02945736434108527,0.020930232558139535,0.02248062015503876
1327448,0.8615971389694449,0.07667640666209616,0.16911323257039296,0.472410640598461,-0.3634618627731776,0.8599349549234174,0.3541733987516096,-0.393688047217879,0.6036678312585504,0.3779930408886193,0.02248062015503876,0.09302325581395349,0.024806201550387597,0.04186046511627907,0.027131782945736434,0.02945736434108527,0.020930232558139535,0.02248062015503876
1335499,0.8615971389694449,0.07667640666209616,0.16911323257039296,0.472410640598461,-0.3634618627731776,0.8599349549234174,0.3541733987516096,-0.393688047217879,0.6036678312585504,0.3779930408886193,0.021705426356589147,0.08062015503875969,0.02558139534883721,0.02635658914728682,0.024806201550387597,0.02635658914728682,0.020155038759689922,0.02248062015503876
1342450,0.8448965839694114,0.08349909393594165,0.1809162246927858,0.4964342689134241,-0.36190024122070197,0.845279907134513,0.34329655645589724,-0.41347835360387786,0.5985064887487767,0.3840826656653653,0.021705426356589147,0.08062015503875969,0.02558139534883721,0.02635658914728682,0.024806201550387597,0.02635658914728682,0.020155038759689922,0.02248062015503876
1357984,0.8448965839694114,0.08349909393594165,0.1809162246927858,0.4964342689134241,-0.36190024122070197,0.845279907134513,0.34329655645589724,-0.41347835360387786,0.5985064887487767,0.3840826656653653,0.020930232558139535,0.07596899224806201,0.023255813953488372,0.02248062015503876,0.024031007751937984,0.023255813953488372,0.01937984496124031,0.020930232558139535
1364961,0.8238606293487369,0.08856080104786249,0.196563544278966,0.524188344955661,-0.402656753543314,0.8844697750889788,0.3285260043673189,-0.4445774018451048,0.5963502876551654,0.3953560148894643,0.020930232558139535,0.07596899224806201,0.023255813953488372,0.02248062015503876,0.024031007751937984,0.023255813953488372,0.01937984496124031,0.020930232558139535
1380476,0.8238606293487369,0.08856080104786249,0.196563544278966,0.524188344955661,-0.402656753543314,0.8844697750889788,0.3285260043673189,-0.4445774018451048,0.5963502876551654,0.3953560148894643,0.023255813953488372,0.07054263565891473,0.02248062015503876,0.02248062015503876,0.023255813953488372,0.02248062015503876,0.020155038759689922,0.021705426356589147
1387501,0.8014538576070251,0.09315221171033194,0.21186053043343933,0.5514612363754625,-0.384779332171585,0.9572132722325466,0.3162524445619861,-0.4472484859097512,0.5984304188791296,0.4013510513491673,0.023255813953488372,0.07054263565891473,0.02248062015503876,0.02248062015503876,0.023255813953488372,0.02248062015503876,0.020155038759689922,0.021705426356589147
1395474,0.8014538576070251,0.09315221171033194,0.21186053043343933,0.5514612363754625,-0.384779332171585,0.9572132722325466,0.3162524445619861,-0.4472484859097512,0.5984304188791296,0.4013510513491673,0.020930232558139535,0.06434108527131784,0.024031007751937984,0.02248062015503876,0.021705426356589147,0.021705426356589147,0.020155038759689922,0.021705426356589147
1402453,0.7848749727148716,0.10219019998153536,0.22486772262177052,0.5682982910025882,-0.3531468704281027,0.985438328667974,0.3297582461887183,-0.3959117431138474,0.574370618323454,0.39661398544907317,0.020930232558139535,0.06434108527131784,0.024031007751937984,0.02248062015503876,0.021705426356589147,0.021705426356589147,0.020155038759689922,0.021705426356589147
1417974,0.7848749727148716,0.10219019998153536,0.22486772262177052,0.5682982910025882,-0.3531468704281027,0.985438328667974,0.3297582461887183,-0.3959117431138474,0.574370618323454,0.39661398544907317,0.020930232558139535,0.07209302325581396,0.02248062015503876,0.018604651162790697,0.01937984496124031,0.02248062015503876,0.017829457364341085,0.021705426356589147
1424957,0.7744382499636028,0.11428619901036732,0.2357797547724984,0.5758402286645974,-0.3776547214658352,0.9656633697851977,0.3280594324129614,-0.34615315041519723,0.5553277750932089,0.3930458049477392,0.020930232558139535,0.07209302325581396,0.02248062015503876,0.018604651162790697,0.01937984496124031,0.02248062015503876,0.017829457364341085,0.021705426356589147
1440525,0.7744382499636028,0.11428619901036732,0.2357797547724984,0.5758402286645974,-0.3776547214658352,0.9656633697851977,0.3280594324129614,-0.34615315041519723,0.5553277750932089,0.3930458049477392,0.020930232558139535,0.08914728682170543,0.020155038759689922,0.01937984496124031,0.017054263565891473,0.020155038759689922,0.018604651162790697,0.020930232558139535
1447476,0.7658357292953346,0.12712569290153553,0.24118349312612314,0.5823789286903066,-0.3968254689970785,0.9438496999194373,0.32854516484265095,-0.336422726619065,0.5591911273966359,0.3918580565972464,0.020930232558139535,0.08914728682170543,0.020155038759689922,0.01937984496124031,0.017054263565891473,0.020155038759689922,0.018604651162790697,0.020930232558139535
1455484,0.7658357292953346,0.12712569290153553,0.24118349312612314,0.5823789286903066,-0.3968254689970785,0.9438496999194373,0.32854516484265095,-0.336422726619065,0.5591911273966359,0.3918580565972464,0.020930232558139535,0.09844961240310078,0.024031007751937984,0.021705426356589147,0.014728682170542635,0.017829457364341085,0.01937984496124031,0.020155038759689922
1462514,0.7580900708003684,0.1406969846504797,0.24480710860041455,0.5878548142550677,-0.3847841566021668,0.958388575584094,0.32109525778548254,-0.3292566122542915,0.5613349513689753,0.3899680812493374,0.020930232558139535,0.09844961240310078,0.024031007751937984,0.021705426356589147,0.014728682170542635,0.017829457364341085,0.01937984496124031,0.020155038759689922
1478216,0.7580900708003684,0.1406969846504797,0.24480710860041455,0.5878548142550677,-0.3847841566021668,0.958388575584094,0.32109525778548254,-0.3292566122542915,0.5613349513689753,0.3899680812493374,0.017829457364341085,0.08682170542635659,0.023255813953488372,0.020155038759689922,0.015503875968992248,0.01937984496124031,0.017829457364341085,0.01937984496124031
1485020,0.7546832439473563,0.15554994669517744,0.2463477077418338,0.5878522112559982,-0.37949215246399637,0.9694995573043139,0.3141579502070328,-0.2979911721666578,0.5541952779822774,0.3905755565562015,0.017829457364341085,0.08682170542635659,0.023255813953488372,0.020155038759689922,0.015503875968992248,0.01937984496124031,0.017829457364341085,0.01937984496124031
1500562,0.7546832439473563,0.15554994669517744,0.2463477077418338,0.5878522112559982,-0.37949215246399637,0.9694995573043139,0.3141579502070328,-0.2979911721666578,0.5541952779822774,0.3905755565562015,0.017054263565891473,0.08372093023255814,0.02248062015503876,0.018604651162790697,0.01627906976744186,0.01937984496124031,0.018604651162790697,0.020930232558139535
1507515,0.7561250439932377,0.16964016546901448,0.24616013913202023,0.582153174008675,-0.392179817632208,0.9490742868359225,0.3098898326184116,-0.2618834424109904,0.5482302448955091,0.3901733803971792,0.017054263565891473,0.08372093023255814,0.02248062015503876,0.018604651162790697,0.01627906976744186,0.01937984496124031,0.018604651162790697,0.020930232558139535
1515571,0.7561250439932377,0.16964016546901448,0.24616013913202023,0.582153174008675,-0.392179817632208,0.9490742868359225,0.3098898326184116,-0.2618834424109904,0.5482302448955091,0.3901733803971792,0.015503875968992248,0.07441860465116279,0.023255813953488372,0.020155038759689922,0.01627906976744186,0.021705426356589147,0.018604651162790697,0.020930232558139535
1522519,0.7601878517018695,0.1806846603364813,0.24448529696419002,0.5741902325991961,-0.4050070185653129,0.9219996785347502,0.3162682999938167,-0.2421131083114355,0.5521395292705561,0.39094543749175903,0.015503875968992248,0.07441860465116279,0.023255813953488372,0.020155038759689922,0.01627906976744186,0.021705426356589147,0.018604651162790697,0.020930232558139535
1538011,0.7601878517018695,0.1806846603364813,0.24448529696419002,0.5741902325991961,-0.4050070185653129,0.9219996785347502,0.3162682999938167,-0.2421131083114355,0.5521395292705561,0.39094543749175903,0.015503875968992248,0.050387596899224806,0.021705426356589147,0.01937984496124031,0.018604651162790697,0.021705426356589147,0.017829457364341085,0.017054263565891473
1544977,0.7647880919468403,0.18807083967956226,0.24139038626747633,0.5669737340443334,-0.4076178963961737,0.9146790053790226,0.32074422357060933,-0.239496095768078,0.5658820713534938,0.39446840913709447,0.015503875968992248,0.050387596899224806,0.021705426356589147,0.01937984496124031,0.018604651162790697,0.021705426356589147,0.017829457364341085,0.017054263565891473
1560521,0.7647880919468403,0.18807083967956226,0.24139038626747633,0.5669737340443334,-0.4076178963961737,0.9146790053790226,0.32074422357060933,-0.239496095768078,0.5658820713534938,0.39446840913709447,0.015503875968992248,0.024031007751937984,0.017054263565891473,0.017829457364341085,0.01937984496124031,0.021705426356589147,0.018604651162790697,0.01937984496124031
