Timestamp, Orientation x, Orientation y, Orientation z, Orientation w, Acceleration x, Acceleration y, Acceleration z, Rotation x, Rotation y, Rotation z, EMG 0, EMG 1, EMG 2, EMG 3, EMG 4, EMG 5, EMG 6, EMG 7
0,0.9913455441525301,0.021519721380475556,-0.09593917845517848,0.08698613520542356,-0.23875934535666032,-0.5039471029482504,-0.39911844002069097,-0.3039698477714559,-0.3411668602079635,-0.38362392372426,0,0,0,0,0,0,0,0
850,0.9912113524569437,0.02258193088127116,-0.09693862876464733,0.08713789882353198,-0.23724382510338912,-0.5047664525795489,-0.39964930504463764,-0.304478954574516,-0.337431330888736,-0.3764518116026341,0,0,0,0,0,0,0,0
21795,0.9912145801425932,0.024252668053592295,-0.09750786628463323,0.0860097681524782,-0.2350599420104874,-0.5045142618379058,-0.3995575143663147,-0.3028787470372438,-0.3329624869987947,-0.3689769794248094,0,0,0,0,0,0,0,0
36765,0.991321963969214,0.026444215290356555,-0.09731168228953495,0.08433210373208021,-0.23214874962473261,-0.5029708007342409,-0.40001548561610445,-0.29932147319967634,-0.32877872290180365,-0.36414618042389707,0,0,0,0,0,0,0,0
59295,0.9914541172751565,0.02920284407621635,-0.09589362309463073,0.08348856380238885,-0.22763609013618225,-0.5009545549530852,-0.40038747476746744,-0.29236633875168805,-0.3264289645262424,-0.3663678830445686,0,0,0,0,0,0,0,0
67364,0.9914541172751565,0.02920284407621635,-0.09589362309463073,0.08348856380238885,-0.22763609013618225,-0.5009545549530852,-0.40038747476746744,-0.29236633875168805,-0.3264289645262424,-0.3663678830445686,0.14309764309764308,0.07744107744107744,0.06060606060606061,0.05723905723905724,0.05387205387205387,0.06565656565656566,0.10606060606060606,0.2037037037037037
83085,0.9914013316780323,0.03311610711261163,-0.0926817205498621,0.08623700871810958,-0.22718949649630413,-0.4980047156987611,-0.3996578159742963,-0.2776730134706851,-0.3284462350009136,-0.3829978164521761,0.14309764309764308,0.07744107744107744,0.06060606060606061,0.05723905723905724,0.05387205387205387,0.06565656565656566,0.10606060606060606,0.2037037037037037
83867,0.9914013316780323,0.03311610711261163,-0.0926817205498621,0.08623700871810958,-0.22718949649630413,-0.4980047156987611,-0.3996578159742963,-0.2776730134706851,-0.3284462350009136,-0.3829978164521761,0.14983164983164984,0.08417508417508418,0.06060606060606061,0.06228956228956229,0.05723905723905724,0.08249158249158249,0.16161616161616163,0.21885521885521886
96746,0.9907001281576415,0.039178208550863076,-0.08842745957066894,0.09570218616654214,-0.2298456861944259,-0.49575313803388993,-0.39934541510342175,-0.25403208618584244,-0.33791197327573497,-0.41447563642239993,0.14983164983164984,0.08417508417508418,0.06060606060606061,0.06228956228956229,0.05723905723905724,0.08249158249158249,0.16161616161616163,0.21885521885521886
104867,0.9907001281576415,0.039178208550863076,-0.08842745957066894,0.09570218616654214,-0.2298456861944259,-0.49575313803388993,-0.39934541510342175,-0.25403208618584244,-0.33791197327573497,-0.41447563642239993,0.132996632996633,0.11447811447811448,0.07912457912457913,0.08922558922558922,0.0707070707070707,0.12121212121212122,0.2676767676767677,0.2037037037037037
119241,0.9889490293765555,0.048996532098690024,-0.08335083449168647,0.11239126090141703,-0.23711692134886095,-0.4948006604199581,-0.39860752982837977,-0.23081676509548565,-0.35379152582700135,-0.4482878766176557,0.132996632996633,0.11447811447811448,0.07912457912457913,0.08922558922558922,0.0707070707070707,0.12121212121212122,0.2676767676767677,0.2037037037037037
127429,0.9889490293765555,0.048996532098690024,-0.08335083449168647,0.11239126090141703,-0.23711692134886095,-0.4948006604199581,-0.39860752982837977,-0.23081676509548565,-0.35379152582700135,-0.4482878766176557,0.13973063973063973,0.13804713804713806,0.07912457912457913,0.11616161616161616,0.15488215488215487,0.132996632996633,0.31313131313131315,0.2138047138047138
142419,0.9857930591048797,0.06011012987151329,-0.08050653859384793,0.13460131556233113,-0.2371514068272469,-0.48959189419029936,-0.3891206463213514,-0.22004196972441664,-0.36892587700535096,-0.47040000994109893,0.13973063973063973,0.13804713804713806,0.07912457912457913,0.11616161616161616,0.15488215488215487,0.132996632996633,0.31313131313131315,0.2138047138047138
143213,0.9857930591048797,0.06011012987151329,-0.08050653859384793,0.13460131556233113,-0.2371514068272469,-0.48959189419029936,-0.3891206463213514,-0.22004196972441664,-0.36892587700535096,-0.47040000994109893,0.13973063973063973,0.15656565656565657,0.1026936026936027,0.13636363636363635,0.1835016835016835,0.14646464646464646,0.335016835016835,0.20875420875420875
156866,0.9814018762998821,0.06995280151724462,-0.07966795643073796,0.16003118281481943,-0.2310065147172816,-0.4827655657163353,-0.38423225810860945,-0.22447033722445295,-0.3811246858985718,-0.48449746996902576,0.13973063973063973,0.15656565656565657,0.1026936026936027,0.13636363636363635,0.1835016835016835,0.14646464646464646,0.335016835016835,0.20875420875420875
164899,0.9814018762998821,0.06995280151724462,-0.07966795643073796,0.16003118281481943,-0.2310065147172816,-0.4827655657163353,-0.38423225810860945,-0.22447033722445295,-0.3811246858985718,-0.48449746996902576,0.15656565656565657,0.1919191919191919,0.15993265993265993,0.21885521885521886,0.4006734006734007,0.18181818181818182,0.38552188552188554,0.23905723905723905
179268,0.975591240367839,0.0770529429019492,-0.07792793274187305,0.1902940172634672,-0.22162751798448468,-0.47593501504455454,-0.37654045086128024,-0.23021506172519968,-0.394954001900687,-0.5140340645540948,0.15656565656565657,0.1919191919191919,0.15993265993265993,0.21885521885521886,0.4006734006734007,0.18181818181818182,0.38552188552188554,0.23905723905723905
187390,0.975591240367839,0.0770529429019492,-0.07792793274187305,0.1902940172634672,-0.22162751798448468,-0.47593501504455454,-0.37654045086128024,-0.23021506172519968,-0.394954001900687,-0.5140340645540948,0.17003367003367004,0.23737373737373738,0.18855218855218855,0.3063973063973064,0.7895622895622896,0.25757575757575757,0.4107744107744108,0.2356902356902357
201847,0.9678870058695898,0.08118184127492216,-0.07568256112085266,0.2255579802582975,-0.21971889297840075,-0.4776136675577123,-0.3766149545212661,-0.23732468520107056,-0.41053210036386245,-0.5459860114612893,0.17003367003367004,0.23737373737373738,0.18855218855218855,0.3063973063973064,0.7895622895622896,0.25757575757575757,0.4107744107744108,0.2356902356902357
209905,0.9678870058695898,0.08118184127492216,-0.07568256112085266,0.2255579802582975,-0.21971889297840075,-0.4776136675577123,-0.3766149545212661,-0.23732468520107056,-0.41053210036386245,-0.5459860114612893,0.1734006734006734,0.2474747474747475,0.20707070707070707,0.3181818181818182,0.8602693602693603,0.32323232323232326,0.37542087542087543,0.21212121212121213
216865,0.9591207548999993,0.08255629357566226,-0.07644038472816864,0.2596703746939844,-0.2202023522746851,-0.480085498003732,-0.37856859117183944,-0.25566053565707264,-0.41784913034443366,-0.541760968760494,0.1734006734006734,0.2474747474747475,0.20707070707070707,0.3181818181818182,0.8602693602693603,0.32323232323232326,0.37542087542087543,0.21212121212121213
224892,0.9591207548999993,0.08255629357566226,-0.07644038472816864,0.2596703746939844,-0.2202023522746851,-0.480085498003732,-0.37856859117183944,-0.25566053565707264,-0.41784913034443366,-0.541760968760494,0.16835016835016836,0.25252525252525254,0.2239057239057239,0.31986531986531985,0.9764309764309764,0.3771043771043771,0.37373737373737376,0.2222222222222222
239318,0.9517334159224942,0.08164871852807606,-0.0806634688561251,0.2846583857386267,-0.2071387231913194,-0.480719999424127,-0.3755196601006605,-0.28459430211321735,-0.40716807571312097,-0.4967422279642993,0.16835016835016836,0.25252525252525254,0.2239057239057239,0.31986531986531985,0.9764309764309764,0.3771043771043771,0.37373737373737376,0.2222222222222222
247388,0.9517334159224942,0.08164871852807606,-0.0806634688561251,0.2846583857386267,-0.2071387231913194,-0.480719999424127,-0.3755196601006605,-0.28459430211321735,-0.40716807571312097,-0.4967422279642993,0.16498316498316498,0.2609427609427609,0.3047138047138047,0.32154882154882153,1,0.39225589225589225,0.3686868686868687,0.22727272727272727
261816,0.9461377487456896,0.08008090682550902,-0.08509926880248989,0.3019412578792835,-0.21928845187165757,-0.4982960067953952,-0.3739735223109816,-0.29949464557559485,-0.3883415087478433,-0.4518389654065961,0.16498316498316498,0.2609427609427609,0.3047138047138047,0.32154882154882153,1,0.39225589225589225,0.3686868686868687,0.22727272727272727
269855,0.9461377487456896,0.08008090682550902,-0.08509926880248989,0.3019412578792835,-0.21928845187165757,-0.4982960067953952,-0.3739735223109816,-0.29949464557559485,-0.3883415087478433,-0.4518389654065961,0.1414141414141414,0.24915824915824916,0.29292929292929293,0.2777777777777778,0.9562289562289562,0.38215488215488214,0.3265993265993266,0.19023569023569023
276833,0.9442987482839834,0.07917171257823716,-0.09061630074498658,0.30630115892047427,-0.24685460763041217,-0.5088209141418897,-0.3580282194208952,-0.31639057912728824,-0.35892650227087397,-0.38571779845429466,0.1414141414141414,0.24915824915824916,0.29292929292929293,0.2777777777777778,0.9562289562289562,0.38215488215488214,0.3265993265993266,0.19023569023569023
284882,0.9442987482839834,0.07917171257823716,-0.09061630074498658,0.30630115892047427,-0.24685460763041217,-0.5088209141418897,-0.3580282194208952,-0.31639057912728824,-0.35892650227087397,-0.38571779845429466,0.12794612794612795,0.24074074074074073,0.3434343434343434,0.18518518518518517,0.6835016835016835,0.3383838383838384,0.2895622895622896,0.19023569023569023
299267,0.9483241912772425,0.07754552360580957,-0.10002781100518608,0.2909679656466937,-0.2530429507169439,-0.5057605974055395,-0.3607306019730798,-0.35238131668391004,-0.3200439090201626,-0.28275575155397237,0.12794612794612795,0.24074074074074073,0.3434343434343434,0.18518518518518517,0.6835016835016835,0.3383838383838384,0.2895622895622896,0.19023569023569023
307396,0.9483241912772425,0.07754552360580957,-0.10002781100518608,0.2909679656466937,-0.2530429507169439,-0.5057605974055395,-0.3607306019730798,-0.35238131668391004,-0.3200439090201626,-0.28275575155397237,0.2053872053872054,0.3787878787878788,0.4175084175084175,0.18518518518518517,0.5993265993265994,0.2845117845117845,0.3501683501683502,0.24915824915824916
321829,0.957728083701999,0.07469028250971929,-0.11360556421354118,0.25351933884190786,-0.23794341558805768,-0.49534099538634224,-0.3633015030425897,-0.3957446063148823,-0.28179867033939465,-0.17894454404497778,0.2053872053872054,0.3787878787878788,0.4175084175084175,0.18518518518518517,0.5993265993265994,0.2845117845117845,0.3501683501683502,0.24915824915824916
329863,0.957728083701999,0.07469028250971929,-0.11360556421354118,0.25351933884190786,-0.23794341558805768,-0.49534099538634224,-0.3633015030425897,-0.3957446063148823,-0.28179867033939465,-0.17894454404497778,0.2138047138047138,0.4276094276094276,0.48484848484848486,0.18013468013468015,0.3720538720538721,0.22895622895622897,0.3451178451178451,0.24579124579124578
336849,0.9684590561284274,0.06819309824633318,-0.12789623926691723,0.2026803146232531,-0.19729480653150072,-0.4890785273630522,-0.3659253770063472,-0.42971992092495725,-0.2532770322569449,-0.10774741648959471,0.2138047138047138,0.4276094276094276,0.48484848484848486,0.18013468013468015,0.3720538720538721,0.22895622895622897,0.3451178451178451,0.24579124579124578
344906,0.9684590561284274,0.06819309824633318,-0.12789623926691723,0.2026803146232531,-0.19729480653150072,-0.4890785273630522,-0.3659253770063472,-0.42971992092495725,-0.2532770322569449,-0.10774741648959471,0.2946127946127946,0.4713804713804714,0.4562289562289562,0.18013468013468015,0.30134680134680136,0.22727272727272727,0.3872053872053872,0.2878787878787879
359273,0.9782152281436927,0.060123318813954926,-0.13945397127495027,0.1415370759137839,-0.13686984880036013,-0.4811953495203666,-0.36132137721989904,-0.44660072708331144,-0.2290760348144758,-0.06609829342011171,0.2946127946127946,0.4713804713804714,0.4562289562289562,0.18013468013468015,0.30134680134680136,0.22727272727272727,0.3872053872053872,0.2878787878787879
367391,0.9782152281436927,0.060123318813954926,-0.13945397127495027,0.1415370759137839,-0.13686984880036013,-0.4811953495203666,-0.36132137721989904,-0.44660072708331144,-0.2290760348144758,-0.06609829342011171,0.32491582491582494,0.4797979797979798,0.47474747474747475,0.1717171717171717,0.30303030303030304,0.29124579124579125,0.4764309764309764,0.3501683501683502
381844,0.9857207010029686,0.056229102399260815,-0.13856071068650722,0.07742039209174709,-0.13355257746882457,-0.4494583429119009,-0.3113308899572477,-0.41086575125987157,-0.19838511973721423,-0.06844725541877208,0.32491582491582494,0.4797979797979798,0.47474747474747475,0.1717171717171717,0.30303030303030304,0.29124579124579125,0.4764309764309764,0.3501683501683502
389877,0.9857207010029686,0.056229102399260815,-0.13856071068650722,0.07742039209174709,-0.13355257746882457,-0.4494583429119009,-0.3113308899572477,-0.41086575125987157,-0.19838511973721423,-0.06844725541877208,0.32154882154882153,0.48148148148148145,0.4781144781144781,0.1717171717171717,0.28619528619528617,0.2895622895622896,0.4730639730639731,0.398989898989899
396824,0.9917279195035489,0.04254104969620826,-0.11823514550110377,0.026200059851837338,-0.10189496002695951,-0.3895979331547402,-0.2999250476238219,-0.41235239333651647,-0.2029809580041942,-0.17280838835634527,0.32154882154882153,0.48148148148148145,0.4781144781144781,0.1717171717171717,0.28619528619528617,0.2895622895622896,0.4730639730639731,0.398989898989899
404887,0.9917279195035489,0.04254104969620826,-0.11823514550110377,0.026200059851837338,-0.10189496002695951,-0.3895979331547402,-0.2999250476238219,-0.41235239333651647,-0.2029809580041942,-0.17280838835634527,0.27441077441077444,0.3787878787878788,0.41919191919191917,0.13973063973063973,0.27441077441077444,0.27104377104377103,0.41245791245791247,0.36195286195286197
419256,0.9954622090596116,-0.000004392284887994036,-0.09442582855400639,-0.011779355532272088,-0.26140429706757434,-0.4638614369022232,-0.4521138782344299,-0.5214482729901868,-0.24374318397899347,-0.2687801683849852,0.27441077441077444,0.3787878787878788,0.41919191919191917,0.13973063973063973,0.27441077441077444,0.27104377104377103,0.41245791245791247,0.36195286195286197
427363,0.9954622090596116,-0.000004392284887994036,-0.09442582855400639,-0.011779355532272088,-0.26140429706757434,-0.4638614369022232,-0.4521138782344299,-0.5214482729901868,-0.24374318397899347,-0.2687801683849852,0.2760942760942761,0.32491582491582494,0.35185185185185186,0.15656565656565657,0.27441077441077444,0.26262626262626265,0.40235690235690236,0.35353535353535354
441769,0.994788909395083,-0.02914073316815536,-0.09424274459026331,-0.02577107888812073,-0.3028002953219018,-0.6575513035267553,-0.7536305707774271,-0.47784503111045046,-0.33716514701361805,-0.35106094480790995,0.2760942760942761,0.32491582491582494,0.35185185185185186,0.15656565656565657,0.27441077441077444,0.26262626262626265,0.40235690235690236,0.35353535353535354
449869,0.994788909395083,-0.02914073316815536,-0.09424274459026331,-0.02577107888812073,-0.3028002953219018,-0.6575513035267553,-0.7536305707774271,-0.47784503111045046,-0.33716514701361805,-0.35106094480790995,0.23905723905723905,0.30134680134680136,0.3838383838383838,0.19865319865319866,0.27104377104377103,0.23737373737373738,0.35185185185185186,0.32323232323232326
456890,0.9913448973050389,-0.02815154221160223,-0.11496148392743469,-0.05680354277307406,-0.3218751121135724,-0.5909563868457279,-0.5087418675187392,-0.4027265232931187,-0.31998376651715765,-0.2011575606125942,0.23905723905723905,0.30134680134680136,0.3838383838383838,0.19865319865319866,0.27104377104377103,0.23737373737373738,0.35185185185185186,0.32323232323232326
464884,0.9913448973050389,-0.02815154221160223,-0.11496148392743469,-0.05680354277307406,-0.3218751121135724,-0.5909563868457279,-0.5087418675187392,-0.4027265232931187,-0.31998376651715765,-0.2011575606125942,0.21717171717171718,0.3063973063973064,0.3787878787878788,0.22727272727272727,0.2053872053872054,0.1447811447811448,0.20033670033670034,0.2558922558922559
479267,0.9843743882516558,-0.00951405892410042,-0.14140265409629452,-0.10450758753071843,-0.34054625460319154,-0.5297967624232456,-0.45058155639219577,-0.3504931424236925,-0.2814486879678352,-0.08396792087925695,0.21717171717171718,0.3063973063973064,0.3787878787878788,0.22727272727272727,0.2053872053872054,0.1447811447811448,0.20033670033670034,0.2558922558922559
487366,0.9843743882516558,-0.00951405892410042,-0.14140265409629452,-0.10450758753071843,-0.34054625460319154,-0.5297967624232456,-0.45058155639219577,-0.3504931424236925,-0.2814486879678352,-0.08396792087925695,0.23232323232323232,0.29292929292929293,0.32996632996632996,0.2609427609427609,0.20202020202020202,0.1531986531986532,0.19528619528619529,0.16835016835016836
501772,0.9815745689789119,0.005812815602751403,-0.1725274777829375,-0.08192585744738705,-0.20975589280055973,-0.43869458318201765,-0.3727804326746061,-0.2912412893978886,-0.43753754191825184,-0.4163631184755685,0.23232323232323232,0.29292929292929293,0.32996632996632996,0.2609427609427609,0.20202020202020202,0.1531986531986532,0.19528619528619529,0.16835016835016836
509890,0.9815745689789119,0.005812815602751403,-0.1725274777829375,-0.08192585744738705,-0.20975589280055973,-0.43869458318201765,-0.3727804326746061,-0.2912412893978886,-0.43753754191825184,-0.4163631184755685,0.25084175084175087,0.3114478114478115,0.33164983164983164,0.30808080808080807,0.4781144781144781,0.18518518518518517,0.23063973063973064,0.19528619528619529
516866,0.9806460388382023,0.006259611213458133,-0.1956078432323147,0.005633422086218694,-0.16062956983789617,-0.37889098702207297,-0.3585590358662826,-0.2701017550762677,-0.5729899287295018,-0.7856441478553634,0.25084175084175087,0.3114478114478115,0.33164983164983164,0.30808080808080807,0.4781144781144781,0.18518518518518517,0.23063973063973064,0.19528619528619529
524868,0.9806460388382023,0.006259611213458133,-0.1956078432323147,0.005633422086218694,-0.16062956983789617,-0.37889098702207297,-0.3585590358662826,-0.2701017550762677,-0.5729899287295018,-0.7856441478553634,0.24915824915824916,0.32491582491582494,0.3400673400673401,0.3265993265993266,0.7037037037037037,0.2474747474747475,0.2356902356902357,0.19696969696969696
539268,0.9690898784725702,-0.0044391989589328655,-0.21835340568194386,0.11474707482859337,-0.08348268718482828,-0.41220491499007916,-0.4454783743599346,-0.30738597763839126,-0.6318607333825962,-0.9041208011042807,0.24915824915824916,0.32491582491582494,0.3400673400673401,0.3265993265993266,0.7037037037037037,0.2474747474747475,0.2356902356902357,0.19696969696969696
547394,0.9690898784725702,-0.0044391989589328655,-0.21835340568194386,0.11474707482859337,-0.08348268718482828,-0.41220491499007916,-0.4454783743599346,-0.30738597763839126,-0.6318607333825962,-0.9041208011042807,0.2138047138047138,0.3148148148148148,0.4393939393939394,0.3282828282828283,0.7323232323232324,0.2542087542087542,0.23232323232323232,0.19023569023569023
561718,0.9446079659187131,-0.0020985554849766025,-0.23779946271054248,0.22619195901350056,-0.003366726478407916,-0.5414654817757268,-0.48633691031244636,-0.2352081728729291,-0.6278969456455583,-0.9144049173335903,0.2138047138047138,0.3148148148148148,0.4393939393939394,0.3282828282828283,0.7323232323232324,0.2542087542087542,0.23232323232323232,0.19023569023569023
569880,0.9446079659187131,-0.0020985554849766025,-0.23779946271054248,0.22619195901350056,-0.003366726478407916,-0.5414654817757268,-0.48633691031244636,-0.2352081728729291,-0.6278969456455583,-0.9144049173335903,0.21212121212121213,0.2946127946127946,0.4511784511784512,0.30976430976430974,0.765993265993266,0.2676767676767677,0.22895622895622897,0.18518518518518517
576838,0.9191812760998211,0.02137439072571285,-0.2552234292206266,0.299182082126375,-0.17331504272254392,-0.5652170132664552,-0.30363735313106294,-0.14964684856018867,-0.5212506517062119,-0.7163730537935745,0.21212121212121213,0.2946127946127946,0.4511784511784512,0.30976430976430974,0.765993265993266,0.2676767676767677,0.22895622895622897,0.18518518518518517
584854,0.9191812760998211,0.02137439072571285,-0.2552234292206266,0.299182082126375,-0.17331504272254392,-0.5652170132664552,-0.30363735313106294,-0.14964684856018867,-0.5212506517062119,-0.7163730537935745,0.2542087542087542,0.43434343434343436,0.5185185185185185,0.2878787878787879,0.7828282828282829,0.2609427609427609,0.22053872053872053,0.19865319865319866
599304,0.9196970691322022,0.03554997064150345,-0.2503157789218278,0.30039226261637325,-0.30398920426504356,-0.5156496031950945,-0.29934502847170685,-0.23633760016834363,-0.31895282990823465,-0.3840070054898417,0.2542087542087542,0.43434343434343436,0.5185185185185185,0.2878787878787879,0.7828282828282829,0.2609427609427609,0.22053872053872053,0.19865319865319866
607393,0.9196970691322022,0.03554997064150345,-0.2503157789218278,0.30039226261637325,-0.30398920426504356,-0.5156496031950945,-0.29934502847170685,-0.23633760016834363,-0.31895282990823465,-0.3840070054898417,0.24074074074074073,0.4562289562289562,0.5808080808080808,0.2441077441077441,0.6632996632996633,0.24242424242424243,0.17845117845117844,0.17003367003367004
621715,0.9318799589893424,0.03843658455240611,-0.24877044588371322,0.26121951737338867,-0.23675756147362093,-0.5134300789452396,-0.3562171148595226,-0.32478691915143104,-0.23743261269080515,-0.1761827351508801,0.24074074074074073,0.4562289562289562,0.5808080808080808,0.2441077441077441,0.6632996632996633,0.24242424242424243,0.17845117845117844,0.17003367003367004
629911,0.9318799589893424,0.03843658455240611,-0.24877044588371322,0.26121951737338867,-0.23675756147362093,-0.5134300789452396,-0.3562171148595226,-0.32478691915143104,-0.23743261269080515,-0.1761827351508801,0.25925925925925924,0.5757575757575758,0.7474747474747475,0.2222222222222222,0.4225589225589226,0.18518518518518517,0.18181818181818182,0.18013468013468015
636869,0.9470338415006578,0.028936450527888555,-0.2481156948212731,0.20181225648287812,-0.19592407989419708,-0.4823221430141528,-0.36300597743673135,-0.4046954619178515,-0.20490666586618822,-0.0786784940540253,0.25925925925925924,0.5757575757575758,0.7474747474747475,0.2222222222222222,0.4225589225589226,0.18518518518518517,0.18181818181818182,0.18013468013468015
644888,0.9470338415006578,0.028936450527888555,-0.2481156948212731,0.20181225648287812,-0.19592407989419708,-0.4823221430141528,-0.36300597743673135,-0.4046954619178515,-0.20490666586618822,-0.0786784940540253,0.25757575757575757,0.6531986531986532,0.803030303030303,0.19696969696969696,0.367003367003367,0.1919191919191919,0.2356902356902357,0.22727272727272727
659216,0.9597760716230261,0.010379531227889122,-0.24362109285298184,0.13917945533906947,-0.19719744883697723,-0.479937112847556,-0.38378245540969547,-0.4570084211325053,-0.20570897204607086,-0.06975137910948266,0.25757575757575757,0.6531986531986532,0.803030303030303,0.19696969696969696,0.367003367003367,0.1919191919191919,0.2356902356902357,0.22727272727272727
667429,0.9597760716230261,0.010379531227889122,-0.24362109285298184,0.13917945533906947,-0.19719744883697723,-0.479937112847556,-0.38378245540969547,-0.4570084211325053,-0.20570897204607086,-0.06975137910948266,0.2542087542087542,0.6851851851851852,0.8451178451178452,0.20875420875420875,0.31313131313131315,0.18181818181818182,0.29124579124579125,0.2441077441077441
681727,0.9684597191551848,-0.014509257172456031,-0.23622780272777769,0.07792097951495652,-0.1812463874477237,-0.46857736865840127,-0.3977877247514537,-0.4834270433835555,-0.20967808865920565,-0.08067659275939697,0.2542087542087542,0.6851851851851852,0.8451178451178452,0.20875420875420875,0.31313131313131315,0.18181818181818182,0.29124579124579125,0.2441077441077441
689842,0.9684597191551848,-0.014509257172456031,-0.23622780272777769,0.07792097951495652,-0.1812463874477237,-0.46857736865840127,-0.3977877247514537,-0.4834270433835555,-0.20967808865920565,-0.08067659275939697,0.22053872053872053,0.6279461279461279,0.8400673400673401,0.23232323232323232,0.2996632996632997,0.18181818181818182,0.30808080808080807,0.2356902356902357
696842,0.9725779112063125,-0.045291791174471505,-0.2269991444226109,0.022632912255757847,-0.17407647732840206,-0.47773144235983506,-0.45451492466853877,-0.5052941846113177,-0.22596273850885093,-0.12777951019218356,0.22053872053872053,0.6279461279461279,0.8400673400673401,0.23232323232323232,0.2996632996632997,0.18181818181818182,0.30808080808080807,0.2356902356902357
704887,0.9725779112063125,-0.045291791174471505,-0.2269991444226109,0.022632912255757847,-0.17407647732840206,-0.47773144235983506,-0.45451492466853877,-0.5052941846113177,-0.22596273850885093,-0.12777951019218356,0.22895622895622897,0.6178451178451179,0.8080808080808081,0.2542087542087542,0.3148148148148148,0.20202020202020202,0.3164983164983165,0.2356902356902357
719226,0.9730409264187994,-0.07281434285485011,-0.2187945547044564,0.0042860028394551206,-0.31942293899058805,-0.5982633311008962,-0.5984255557225485,-0.45793125098225174,-0.30408629168288437,-0.31150570943843764,0.22895622895622897,0.6178451178451179,0.8080808080808081,0.2542087542087542,0.3148148148148148,0.20202020202020202,0.3164983164983165,0.2356902356902357
727358,0.9730409264187994,-0.07281434285485011,-0.2187945547044564,0.0042860028394551206,-0.31942293899058805,-0.5982633311008962,-0.5984255557225485,-0.45793125098225174,-0.30408629168288437,-0.31150570943843764,0.24915824915824916,0.5420875420875421,0.6548821548821548,0.3047138047138047,0.37542087542087543,0.2037037037037037,0.3047138047138047,0.2356902356902357
741815,0.9700648054450149,-0.0800901759938336,-0.22896526523483093,-0.011607939616728399,-0.32697770404093,-0.5813129230849126,-0.6216011045771763,-0.38862150584645244,-0.33517783787219285,-0.29200452170154745,0.24915824915824916,0.5420875420875421,0.6548821548821548,0.3047138047138047,0.37542087542087543,0.2037037037037037,0.3047138047138047,0.2356902356902357
749903,0.9700648054450149,-0.0800901759938336,-0.22896526523483093,-0.011607939616728399,-0.32697770404093,-0.5813129230849126,-0.6216011045771763,-0.38862150584645244,-0.33517783787219285,-0.29200452170154745,0.2777777777777778,0.46464646464646464,0.49663299663299665,0.36363636363636365,0.5185185185185185,0.18855218855218855,0.27104377104377103,0.21043771043771045
756828,0.9633855911071384,-0.08715736525970778,-0.24871697667385353,-0.04931188540659419,-0.29500326202958116,-0.5008096617225901,-0.47291941880227106,-0.42513583159690355,-0.3106059336510004,-0.1662252049130627,0.2777777777777778,0.46464646464646464,0.49663299663299665,0.36363636363636365,0.5185185185185185,0.18855218855218855,0.27104377104377103,0.21043771043771045
764863,0.9633855911071384,-0.08715736525970778,-0.24871697667385353,-0.04931188540659419,-0.29500326202958116,-0.5008096617225901,-0.47291941880227106,-0.42513583159690355,-0.3106059336510004,-0.1662252049130627,0.31313131313131315,0.46296296296296297,0.39730639730639733,0.4006734006734007,0.5336700336700336,0.18855218855218855,0.2138047138047138,0.21212121212121213
779285,0.9572883725022453,-0.08138481666694154,-0.27427746077316073,-0.041801411458445195,-0.22970471992908573,-0.45549550296944724,-0.38988814888512435,-0.3393716318251797,-0.40987052420429704,-0.37881515676104227,0.31313131313131315,0.46296296296296297,0.39730639730639733,0.4006734006734007,0.5336700336700336,0.18855218855218855,0.2138047138047138,0.21212121212121213
787372,0.9572883725022453,-0.08138481666694154,-0.27427746077316073,-0.041801411458445195,-0.22970471992908573,-0.45549550296944724,-0.38988814888512435,-0.3393716318251797,-0.40987052420429704,-0.37881515676104227,0.2996632996632997,0.4292929292929293,0.30808080808080807,0.44107744107744107,0.6599326599326599,0.28114478114478114,0.26936026936026936,0.2222222222222222
801766,0.9529602894603061,-0.06313319298552196,-0.29352240660059076,0.041538939304945864,-0.14174834610269144,-0.44877272225550985,-0.4380030003253409,-0.2030321030545147,-0.5430926589715341,-0.7782204728410905,0.2996632996632997,0.4292929292929293,0.30808080808080807,0.44107744107744107,0.6599326599326599,0.28114478114478114,0.26936026936026936,0.2222222222222222
809877,0.9529602894603061,-0.06313319298552196,-0.29352240660059076,0.041538939304945864,-0.14174834610269144,-0.44877272225550985,-0.4380030003253409,-0.2030321030545147,-0.5430926589715341,-0.7782204728410905,0.29292929292929293,0.4225589225589226,0.32491582491582494,0.4511784511784512,0.7121212121212122,0.2946127946127946,0.265993265993266,0.23063973063973064
816810,0.9396638025553413,-0.04160828200271259,-0.306014184352588,0.14715980433202336,-0.10396517203484966,-0.4887374505606887,-0.49277049173400905,-0.1682680564901862,-0.5811354053286537,-0.8983183768993022,0.29292929292929293,0.4225589225589226,0.32491582491582494,0.4511784511784512,0.7121212121212122,0.2946127946127946,0.265993265993266,0.23063973063973064
824882,0.9396638025553413,-0.04160828200271259,-0.306014184352588,0.14715980433202336,-0.10396517203484966,-0.4887374505606887,-0.49277049173400905,-0.1682680564901862,-0.5811354053286537,-0.8983183768993022,0.25252525252525254,0.38215488215488214,0.48653198653198654,0.4175084175084175,0.7087542087542088,0.3114478114478115,0.27441077441077444,0.22053872053872053
839276,0.9207581429694413,-0.006505761535912646,-0.3128440193584879,0.23300372695287536,-0.13335621582934068,-0.548936978156327,-0.43517604405122834,-0.10278104337705045,-0.5244384361835174,-0.8022187173132886,0.25252525252525254,0.38215488215488214,0.48653198653198654,0.4175084175084175,0.7087542087542088,0.3114478114478115,0.27441077441077444,0.22053872053872053
847370,0.9207581429694413,-0.006505761535912646,-0.3128440193584879,0.23300372695287536,-0.13335621582934068,-0.548936978156327,-0.43517604405122834,-0.10278104337705045,-0.5244384361835174,-0.8022187173132886,0.22053872053872053,0.36195286195286197,0.4882154882154882,0.36363636363636365,0.67003367003367,0.3164983164983165,0.3047138047138047,0.21212121212121213
861766,0.907761711643085,0.01645835479515098,-0.31377048163658305,0.2779314345046276,-0.256561665374766,-0.5325452997644422,-0.3133497128981047,-0.17871728227190498,-0.43126720288367393,-0.6036021202199618,0.22053872053872053,0.36195286195286197,0.4882154882154882,0.36363636363636365,0.67003367003367,0.3164983164983165,0.3047138047138047,0.21212121212121213
869867,0.907761711643085,0.01645835479515098,-0.31377048163658305,0.2779314345046276,-0.256561665374766,-0.5325452997644422,-0.3133497128981047,-0.17871728227190498,-0.43126720288367393,-0.6036021202199618,0.19696969696969696,0.3333333333333333,0.5117845117845118,0.3434343434343434,0.8501683501683501,0.34175084175084175,0.3468013468013468,0.22895622895622897
876844,0.9105918009914531,0.020552205470641613,-0.30661289976596323,0.276385072886619,-0.27633964979551945,-0.5139555894192824,-0.3177549162436842,-0.29061758694335543,-0.3190765728320794,-0.3758693151872478,0.19696969696969696,0.3333333333333333,0.5117845117845118,0.3434343434343434,0.8501683501683501,0.34175084175084175,0.3468013468013468,0.22895622895622897
884841,0.9105918009914531,0.020552205470641613,-0.30661289976596323,0.276385072886619,-0.27633964979551945,-0.5139555894192824,-0.3177549162436842,-0.29061758694335543,-0.3190765728320794,-0.3758693151872478,0.26936026936026936,0.37542087542087543,0.5606060606060606,0.2895622895622896,0.7727272727272727,0.2946127946127946,0.3451178451178451,0.28114478114478114
899271,0.9207404934548739,0.012681696947430945,-0.30199554983908605,0.2467282029934908,-0.25834750991784855,-0.5209726637077722,-0.36484289994310565,-0.3657422931146564,-0.2650923408647372,-0.22880458085890207,0.26936026936026936,0.37542087542087543,0.5606060606060606,0.2895622895622896,0.7727272727272727,0.2946127946127946,0.3451178451178451,0.28114478114478114
907337,0.9207404934548739,0.012681696947430945,-0.30199554983908605,0.2467282029934908,-0.25834750991784855,-0.5209726637077722,-0.36484289994310565,-0.3657422931146564,-0.2650923408647372,-0.22880458085890207,0.30134680134680136,0.4006734006734007,0.5757575757575758,0.265993265993266,0.7424242424242424,0.3114478114478115,0.4090909090909091,0.3282828282828283
921741,0.9328500811853916,0.00006077561445929497,-0.3002661573735817,0.19907525480289223,-0.2316391497689508,-0.5129274168020264,-0.3979264553327253,-0.39987273986248173,-0.23272547616118944,-0.13477508390016824,0.30134680134680136,0.4006734006734007,0.5757575757575758,0.265993265993266,0.7424242424242424,0.3114478114478115,0.4090909090909091,0.3282828282828283
929854,0.9328500811853916,0.00006077561445929497,-0.3002661573735817,0.19907525480289223,-0.2316391497689508,-0.5129274168020264,-0.3979264553327253,-0.39987273986248173,-0.23272547616118944,-0.13477508390016824,0.38047138047138046,0.45791245791245794,0.6632996632996633,0.2845117845117845,0.7239057239057239,0.3484848484848485,0.5151515151515151,0.4175084175084175
936842,0.9444419489012621,-0.01646257034537461,-0.2974143057195288,0.13893566743849456,-0.18203163914617101,-0.49375647837056713,-0.4281395032648402,-0.4254484203881185,-0.2076594816822953,-0.07528678459310614,0.38047138047138046,0.45791245791245794,0.6632996632996633,0.2845117845117845,0.7239057239057239,0.3484848484848485,0.5151515151515151,0.4175084175084175
944838,0.9444419489012621,-0.01646257034537461,-0.2974143057195288,0.13893566743849456,-0.18203163914617101,-0.49375647837056713,-0.4281395032648402,-0.4254484203881185,-0.2076594816822953,-0.07528678459310614,0.46296296296296297,0.5505050505050505,0.8316498316498316,0.2878787878787879,0.6750841750841751,0.3501683501683502,0.5117845117845118,0.4292929292929293
959224,0.9532281844848169,-0.036090350598558724,-0.28767357944229033,0.08542497637291716,-0.16463149942308036,-0.4777862255871692,-0.4476034552742887,-0.43136558949332016,-0.21460218575200218,-0.11907461009648743,0.46296296296296297,0.5505050505050505,0.8316498316498316,0.2878787878787879,0.6750841750841751,0.3501683501683502,0.5117845117845118,0.4292929292929293
974890,0.9532281844848169,-0.036090350598558724,-0.28767357944229033,0.08542497637291716,-0.16463149942308036,-0.4777862255871692,-0.4476034552742887,-0.43136558949332016,-0.21460218575200218,-0.11907461009648743,0.45454545454545453,0.5471380471380471,0.8451178451178452,0.26430976430976433,0.4292929292929293,0.3282828282828283,0.49158249158249157,0.4377104377104377
981862,0.959860030381295,-0.05877283868867802,-0.2686830879659553,0.0549897604102133,-0.17804279942271234,-0.47075477140996247,-0.47579780622937606,-0.42215768881791493,-0.2502723280978514,-0.2483905499394421,0.45454545454545453,0.5471380471380471,0.8451178451178452,0.26430976430976433,0.4292929292929293,0.3282828282828283,0.49158249158249157,0.4377104377104377
989899,0.959860030381295,-0.05877283868867802,-0.2686830879659553,0.0549897604102133,-0.17804279942271234,-0.47075477140996247,-0.47579780622937606,-0.42215768881791493,-0.2502723280978514,-0.2483905499394421,0.4158249158249158,0.5269360269360269,0.8484848484848485,0.27946127946127947,0.43434343434343436,0.30976430976430974,0.45791245791245794,0.4006734006734007
996868,0.9618628730415878,-0.08276322906241126,-0.2553049324881681,0.052815270770463954,-0.283088280125206,-0.5480468310003102,-0.5661080220462534,-0.4121271519089473,-0.3193377614313778,-0.38760962493351936,0.4158249158249158,0.5269360269360269,0.8484848484848485,0.27946127946127947,0.43434343434343436,0.30976430976430974,0.45791245791245794,0.4006734006734007
1012364,0.9618628730415878,-0.08276322906241126,-0.2553049324881681,0.052815270770463954,-0.283088280125206,-0.5480468310003102,-0.5661080220462534,-0.4121271519089473,-0.3193377614313778,-0.38760962493351936,0.41414141414141414,0.5134680134680135,0.8552188552188552,0.3434343434343434,0.44107744107744107,0.265993265993266,0.4057239057239057,0.37037037037037035
1019364,0.959046016842109,-0.10119251379459017,-0.26323125241907785,0.02645978989147233,-0.4205298410852205,-0.6618459854022726,-0.6048667121992792,-0.4463802646136765,-0.3172320368002667,-0.24535700053713974,0.41414141414141414,0.5134680134680135,0.8552188552188552,0.3434343434343434,0.44107744107744107,0.265993265993266,0.4057239057239057,0.37037037037037035
1034907,0.959046016842109,-0.10119251379459017,-0.26323125241907785,0.02645978989147233,-0.4205298410852205,-0.6618459854022726,-0.6048667121992792,-0.4463802646136765,-0.3172320368002667,-0.24535700053713974,0.3787878787878788,0.48653198653198654,0.7003367003367004,0.3838383838383838,0.44107744107744107,0.1835016835016835,0.24242424242424243,0.2777777777777778
1041818,0.9584924139714721,-0.1060041863542906,-0.2624182781028669,-0.0345261082665207,-0.32361172614382266,-0.5743458990537509,-0.478998093336154,-0.39150554852060576,-0.22116962236050197,-0.0641459026723164,0.3787878787878788,0.48653198653198654,0.7003367003367004,0.3838383838383838,0.44107744107744107,0.1835016835016835,0.24242424242424243,0.2777777777777778
1049875,0.9584924139714721,-0.1060041863542906,-0.2624182781028669,-0.0345261082665207,-0.32361172614382266,-0.5743458990537509,-0.478998093336154,-0.39150554852060576,-0.22116962236050197,-0.0641459026723164,0.29797979797979796,0.367003367003367,0.4713804713804714,0.3838383838383838,0.43434343434343436,0.17003367003367004,0.21885521885521886,0.265993265993266
1056869,0.9548543635485843,-0.10147417630278821,-0.26959871118719797,-0.07261315915245971,-0.25845636310648984,-0.48343137615602216,-0.4375362079301788,-0.34253885046203914,-0.27945614919829487,-0.16047002369305507,0.29797979797979796,0.367003367003367,0.4713804713804714,0.3838383838383838,0.43434343434343436,0.17003367003367004,0.21885521885521886,0.265993265993266
1072367,0.9548543635485843,-0.10147417630278821,-0.26959871118719797,-0.07261315915245971,-0.25845636310648984,-0.48343137615602216,-0.4375362079301788,-0.34253885046203914,-0.27945614919829487,-0.16047002369305507,0.30303030303030304,0.38047138047138046,0.41919191919191917,0.4006734006734007,0.398989898989899,0.16835016835016836,0.2255892255892256,0.22895622895622897
1079315,0.9552175865430914,-0.08767013760475573,-0.2801795103396026,-0.037050658793275515,-0.22633381457718674,-0.4410013950713108,-0.40036112089313247,-0.24073685868421965,-0.4265442179230527,-0.5276906807891139,0.30303030303030304,0.38047138047138046,0.41919191919191917,0.4006734006734007,0.398989898989899,0.16835016835016836,0.2255892255892256,0.22895622895622897
1094863,0.9552175865430914,-0.08767013760475573,-0.2801795103396026,-0.037050658793275515,-0.22633381457718674,-0.4410013950713108,-0.40036112089313247,-0.24073685868421965,-0.4265442179230527,-0.5276906807891139,0.31313131313131315,0.3956228956228956,0.3653198653198653,0.3888888888888889,0.3602693602693603,0.16666666666666666,0.21548821548821548,0.2239057239057239
1101856,0.9530324711755148,-0.06897596199864828,-0.29190030644237647,0.04201947941490003,-0.183613644463412,-0.45754048329612035,-0.44376694107406967,-0.18821634721980782,-0.5165888074228465,-0.7629247986495481,0.31313131313131315,0.3956228956228956,0.3653198653198653,0.3888888888888889,0.3602693602693603,0.16666666666666666,0.21548821548821548,0.2239057239057239
1109866,0.9530324711755148,-0.06897596199864828,-0.29190030644237647,0.04201947941490003,-0.183613644463412,-0.45754048329612035,-0.44376694107406967,-0.18821634721980782,-0.5165888074228465,-0.7629247986495481,0.2962962962962963,0.45791245791245794,0.5471380471380471,0.40404040404040403,0.4764309764309764,0.2053872053872054,0.21548821548821548,0.22053872053872053
1116847,0.9406841964318546,-0.04944728729046528,-0.3066149717338081,0.1365850192065229,-0.13906325371012657,-0.48234327283916817,-0.4779083937269318,-0.1871592578104861,-0.5618101170842179,-0.8405539123833012,0.2962962962962963,0.45791245791245794,0.5471380471380471,0.40404040404040403,0.4764309764309764,0.2053872053872054,0.21548821548821548,0.22053872053872053
1132340,0.9406841964318546,-0.04944728729046528,-0.3066149717338081,0.1365850192065229,-0.13906325371012657,-0.48234327283916817,-0.4779083937269318,-0.1871592578104861,-0.5618101170842179,-0.8405539123833012,0.2474747474747475,0.43265993265993263,0.6430976430976431,0.367003367003367,0.5033670033670034,0.21548821548821548,0.22895622895622897,0.20033670033670034
1139315,0.9191034047939218,-0.02982817625300549,-0.3204965956347551,0.22724687761149115,-0.13136717106481283,-0.5430013110299376,-0.46281632962375224,-0.19246719724985284,-0.5605359991763313,-0.8251210634533699,0.2474747474747475,0.43265993265993263,0.6430976430976431,0.367003367003367,0.5033670033670034,0.21548821548821548,0.22895622895622897,0.20033670033670034
1154865,0.9191034047939218,-0.02982817625300549,-0.3204965956347551,0.22724687761149115,-0.13136717106481283,-0.5430013110299376,-0.46281632962375224,-0.19246719724985284,-0.5605359991763313,-0.8251210634533699,0.21885521885521886,0.4562289562289562,0.6666666666666666,0.3653198653198653,0.5505050505050505,0.22727272727272727,0.234006734006734,0.19023569023569023
1161844,0.9043529404205515,-0.013489017175989708,-0.32780495180299746,0.27296102128648897,-0.22731623498442594,-0.5414340695721538,-0.34405189444199014,-0.22060586524972242,-0.4500414632026809,-0.6028424773784122,0.21885521885521886,0.4562289562289562,0.6666666666666666,0.3653198653198653,0.5505050505050505,0.22727272727272727,0.234006734006734,0.19023569023569023
1169863,0.9043529404205515,-0.013489017175989708,-0.32780495180299746,0.27296102128648897,-0.22731623498442594,-0.5414340695721538,-0.34405189444199014,-0.22060586524972242,-0.4500414632026809,-0.6028424773784122,0.24242424242424243,0.44107744107744107,0.7087542087542088,0.34175084175084175,0.5740740740740741,0.2542087542087542,0.28619528619528617,0.20875420875420875
1176816,0.9094220637498603,-0.00982993352489208,-0.3217649050878199,0.2632911472603427,-0.2793028164215906,-0.5188559383896426,-0.31523561636724734,-0.2948342560605562,-0.30094777324681554,-0.3312811055852009,0.24242424242424243,0.44107744107744107,0.7087542087542088,0.34175084175084175,0.5740740740740741,0.2542087542087542,0.28619528619528617,0.20875420875420875
1192381,0.9094220637498603,-0.00982993352489208,-0.3217649050878199,0.2632911472603427,-0.2793028164215906,-0.5188559383896426,-0.31523561636724734,-0.2948342560605562,-0.30094777324681554,-0.3312811055852009,0.26936026936026936,0.5353535353535354,0.8080808080808081,0.3468013468013468,0.5673400673400674,0.26936026936026936,0.2996632996632997,0.23737373737373738
1199343,0.9251365138891334,-0.013533055924010405,-0.3085259293238344,0.22079637225571247,-0.21871245711318116,-0.5140391548070529,-0.37081215742016754,-0.33922990642419704,-0.21466613187548855,-0.1705872015802392,0.26936026936026936,0.5353535353535354,0.8080808080808081,0.3468013468013468,0.5673400673400674,0.26936026936026936,0.2996632996632997,0.23737373737373738
1214839,0.9251365138891334,-0.013533055924010405,-0.3085259293238344,0.22079637225571247,-0.21871245711318116,-0.5140391548070529,-0.37081215742016754,-0.33922990642419704,-0.21466613187548855,-0.1705872015802392,0.3569023569023569,0.5505050505050505,0.7811447811447811,0.265993265993266,0.44276094276094274,0.28114478114478114,0.39225589225589225,0.31313131313131315
1221812,0.9407243847904961,-0.025419670788540287,-0.29545491385860934,0.1646142948663539,-0.1814876953923501,-0.48708011709217636,-0.40951006822325164,-0.3888831592169197,-0.19291197587554482,-0.10336727393104865,0.3569023569023569,0.5505050505050505,0.7811447811447811,0.265993265993266,0.44276094276094274,0.28114478114478114,0.39225589225589225,0.31313131313131315
1229838,0.9407243847904961,-0.025419670788540287,-0.29545491385860934,0.1646142948663539,-0.1814876953923501,-0.48708011709217636,-0.40951006822325164,-0.3888831592169197,-0.19291197587554482,-0.10336727393104865,0.40404040404040403,0.5808080808080808,0.7306397306397306,0.24915824915824916,0.3888888888888889,0.265993265993266,0.39730639730639733,0.3434343434343434
1236815,0.9530742714416713,-0.049285581640068965,-0.27782461504213785,0.1096988962342629,-0.20871303771406283,-0.4728457634061646,-0.4327162514238032,-0.44925325692383405,-0.20085416010752413,-0.11248595631102234,0.40404040404040403,0.5808080808080808,0.7306397306397306,0.24915824915824916,0.3888888888888889,0.265993265993266,0.39730639730639733,0.3434343434343434
1252323,0.9530742714416713,-0.049285581640068965,-0.27782461504213785,0.1096988962342629,-0.20871303771406283,-0.4728457634061646,-0.4327162514238032,-0.44925325692383405,-0.20085416010752413,-0.11248595631102234,0.4074074074074074,0.5538720538720538,0.7104377104377104,0.27441077441077444,0.468013468013468,0.2946127946127946,0.4595959595959596,0.3956228956228956
