Timestamp, Orientation x, Orientation y, Orientation z, Orientation w, Acceleration x, Acceleration y, Acceleration z, Rotation x, Rotation y, Rotation z, EMG 0, EMG 1, EMG 2, EMG 3, EMG 4, EMG 5, EMG 6, EMG 7
0,0.9416292437555933,0.20674847852583106,-0.10686693636626679,0.24324656594330663,0.546816195867141,0.033648534761393956,0.3571963796171488,0.28259695469724466,0.07285237044287815,0.046829117506128115,0,0,0,0,0,0,0,0
7530,0.9321821302288564,0.18684948571601218,-0.10445015508817174,0.2919142183445506,0.5152639457041942,0.15230668975429823,0.2546595268650254,0.20768493713895003,0.13842975300900778,-0.07408540996494106,0,0,0,0,0,0,0,0
22529,0.930264180626865,0.16470520187540444,-0.0982934183239462,0.3127605388024565,0.4941927359303428,0.1702012864743731,0.23051193591062336,0.12621202704014528,-0.037045974879098685,-0.013844763607191335,0,0,0,0,0,0,0,0
44994,0.9334514861524452,0.15424821730602023,-0.08923678859747797,0.31130789584993646,0.49804877830144206,0.1399077034359605,0.2508513270728703,0.10553789349459299,-0.09105184217509005,0.025405021046729648,0,0,0,0,0,0,0,0
59993,0.935001626937234,0.15303650227111,-0.07152892779457592,0.31182591150497435,0.4368452904858189,0.12553128507688813,0.20772506679117306,0.0695995012662465,-0.02612892639790955,-0.03402407503086996,0,0,0,0,0,0,0,0
68125,0.935001626937234,0.15303650227111,-0.07152892779457592,0.31182591150497435,0.4368452904858189,0.12553128507688813,0.20772506679117306,0.0695995012662465,-0.02612892639790955,-0.03402407503086996,0.22921615201900236,0.39548693586698336,0.25653206650831356,0.09026128266033254,0.06294536817102138,0.07957244655581948,0.09026128266033254,0.166270783847981
82455,0.9357638604665153,0.1692515156874816,-0.04309951456323988,0.3063369937286506,0.4094643657840759,0.13601835631043013,0.17843340313778616,-0.005189724503889187,0.05009613257209242,-0.12436404899562495,0.22921615201900236,0.39548693586698336,0.25653206650831356,0.09026128266033254,0.06294536817102138,0.07957244655581948,0.09026128266033254,0.166270783847981
90619,0.9357638604665153,0.1692515156874816,-0.04309951456323988,0.3063369937286506,0.4094643657840759,0.13601835631043013,0.17843340313778616,-0.005189724503889187,0.05009613257209242,-0.12436404899562495,0.2161520190023753,0.36342042755344417,0.24346793349168647,0.1021377672209026,0.06532066508313539,0.11401425178147269,0.1187648456057007,0.17220902612826602
104920,0.93423604205721,0.20327194852494745,-0.006424061806547216,0.2929885050544742,0.42457207551143195,0.14524089772509352,0.18535821122985888,-0.045012626014732465,0.11893736532138907,-0.1792963464723262,0.2161520190023753,0.36342042755344417,0.24346793349168647,0.1021377672209026,0.06532066508313539,0.11401425178147269,0.1187648456057007,0.17220902612826602
113128,0.93423604205721,0.20327194852494745,-0.006424061806547216,0.2929885050544742,0.42457207551143195,0.14524089772509352,0.18535821122985888,-0.045012626014732465,0.11893736532138907,-0.1792963464723262,0.16508313539192399,0.27909738717339666,0.22446555819477435,0.15558194774346792,0.11520190023752969,0.18883610451306412,0.22565320665083136,0.1995249406175772
120079,0.9283407729908029,0.2475793482061287,0.03138497568783942,0.2755047347065758,0.577552342155305,0.30817271572318017,0.23404147282526383,-0.03952991572037483,0.1678181877921786,-0.19228147912422144,0.16508313539192399,0.27909738717339666,0.22446555819477435,0.15558194774346792,0.11520190023752969,0.18883610451306412,0.22565320665083136,0.1995249406175772
128135,0.9283407729908029,0.2475793482061287,0.03138497568783942,0.2755047347065758,0.577552342155305,0.30817271572318017,0.23404147282526383,-0.03952991572037483,0.1678181877921786,-0.19228147912422144,0.2007125890736342,0.4002375296912114,0.19596199524940616,0.17695961995249407,0.19477434679334918,0.27197149643705465,0.42280285035629456,0.34323040380047504
142470,0.9324091040859002,0.24420531184923988,0.028338885391449194,0.2649036350394507,0.6657815980783026,0.29257113312179045,0.32165930673403853,0.15118575741515242,-0.10716367900390394,0.09663656956826716,0.2007125890736342,0.4002375296912114,0.19596199524940616,0.17695961995249407,0.19477434679334918,0.27197149643705465,0.42280285035629456,0.34323040380047504
150608,0.9324091040859002,0.24420531184923988,0.028338885391449194,0.2649036350394507,0.6657815980783026,0.29257113312179045,0.32165930673403853,0.15118575741515242,-0.10716367900390394,0.09663656956826716,0.22446555819477435,0.4346793349168646,0.17933491686460806,0.18171021377672208,0.20308788598574823,0.29097387173396677,0.7482185273159145,0.4857482185273159
164975,0.9431478279873273,0.23143466978430877,0.004469205046642145,0.23851665432599317,0.511071142592534,0.190113089406713,0.23611258151909081,0.22544730641403588,-0.2855773608999298,0.27698969831212844,0.22446555819477435,0.4346793349168646,0.17933491686460806,0.18171021377672208,0.20308788598574823,0.29097387173396677,0.7482185273159145,0.4857482185273159
173118,0.9431478279873273,0.23143466978430877,0.004469205046642145,0.23851665432599317,0.511071142592534,0.190113089406713,0.23611258151909081,0.22544730641403588,-0.2855773608999298,0.27698969831212844,0.21852731591448932,0.4477434679334917,0.17220902612826602,0.22565320665083136,0.20546318289786222,0.29097387173396677,0.8990498812351544,0.5166270783847982
180087,0.9517892586372301,0.2322284067373786,-0.014787224492891483,0.19987123914862617,0.43334710577668833,0.18883924354538983,0.16764596069343965,0.19885652779279656,-0.27749657546771134,0.2738428373035371,0.21852731591448932,0.4477434679334917,0.17220902612826602,0.22565320665083136,0.20546318289786222,0.29097387173396677,0.8990498812351544,0.5166270783847982
188130,0.9517892586372301,0.2322284067373786,-0.014787224492891483,0.19987123914862617,0.43334710577668833,0.18883924354538983,0.16764596069343965,0.19885652779279656,-0.27749657546771134,0.2738428373035371,0.22209026128266032,0.4501187648456057,0.15795724465558195,0.23040380047505937,0.20902612826603326,0.2862232779097387,0.9643705463182898,0.5391923990498813
202507,0.9549658979515774,0.24540276686471474,-0.034849931557915284,0.16310456166241424,0.40698832330436346,0.2519246663018083,0.11061144142255205,0.24557856719920362,-0.17790006485018958,0.2614066735623663,0.22209026128266032,0.4501187648456057,0.15795724465558195,0.23040380047505937,0.20902612826603326,0.2862232779097387,0.9643705463182898,0.5391923990498813
210573,0.9549658979515774,0.24540276686471474,-0.034849931557915284,0.16310456166241424,0.40698832330436346,0.2519246663018083,0.11061144142255205,0.24557856719920362,-0.17790006485018958,0.2614066735623663,0.2042755344418052,0.4144893111638955,0.12351543942992874,0.19714964370546317,0.19714964370546317,0.24703087885985747,0.9572446555819477,0.517814726840855
224999,0.9517407725945278,0.2630051234332516,-0.054656265640488796,0.14842674777568718,0.3086837646916514,0.1969739738388036,0.06566783671154669,0.3131156949386868,-0.014078637118065535,0.205257940013743,0.2042755344418052,0.4144893111638955,0.12351543942992874,0.19714964370546317,0.19714964370546317,0.24703087885985747,0.9572446555819477,0.517814726840855
233103,0.9517407725945278,0.2630051234332516,-0.054656265640488796,0.14842674777568718,0.3086837646916514,0.1969739738388036,0.06566783671154669,0.3131156949386868,-0.014078637118065535,0.205257940013743,0.16508313539192399,0.27909738717339666,0.13539192399049882,0.1828978622327791,0.12589073634204276,0.15320665083135393,0.8954869358669834,0.4346793349168646
240057,0.941630008313721,0.26821998806960334,-0.07510069895766622,0.18907895297762117,0.45428863961525806,0.042304144100785535,0.2894271064587284,0.43139074733114025,0.21505391120165449,0.10804432090275945,0.16508313539192399,0.27909738717339666,0.13539192399049882,0.1828978622327791,0.12589073634204276,0.15320665083135393,0.8954869358669834,0.4346793349168646
248072,0.941630008313721,0.26821998806960334,-0.07510069895766622,0.18907895297762117,0.45428863961525806,0.042304144100785535,0.2894271064587284,0.43139074733114025,0.21505391120165449,0.10804432090275945,0.1330166270783848,0.22802850356294538,0.16864608076009502,0.18883610451306412,0.11757719714964371,0.11282660332541568,0.6555819477434679,0.2648456057007126
262495,0.9306979529661767,0.2574649241761079,-0.08564224552787159,0.24531314466310772,0.5649598796317813,0.04456282809111545,0.36750272604710177,0.3540550983794816,0.23211861575313822,-0.0021065742025486722,0.1330166270783848,0.22802850356294538,0.16864608076009502,0.18883610451306412,0.11757719714964371,0.11282660332541568,0.6555819477434679,0.2648456057007126
270595,0.9306979529661767,0.2574649241761079,-0.08564224552787159,0.24531314466310772,0.5649598796317813,0.04456282809111545,0.36750272604710177,0.3540550983794816,0.23211861575313822,-0.0021065742025486722,0.16983372921615203,0.24109263657957244,0.21258907363420426,0.13895486935866982,0.12232779097387174,0.1187648456057007,0.4418052256532066,0.2161520190023753
284987,0.9210042953290172,0.2302992871288964,-0.08329040926506509,0.3029455958714041,0.5224344264765786,0.17628543776881458,0.23988508280138157,0.22561638637656783,0.15295268576261742,-0.08074473590748288,0.16983372921615203,0.24109263657957244,0.21258907363420426,0.13895486935866982,0.12232779097387174,0.1187648456057007,0.4418052256532066,0.2161520190023753
293075,0.9210042953290172,0.2302992871288964,-0.08329040926506509,0.3029455958714041,0.5224344264765786,0.17628543776881458,0.23988508280138157,0.22561638637656783,0.15295268576261742,-0.08074473590748288,0.21258907363420426,0.3159144893111639,0.23515439429928742,0.11995249406175772,0.1163895486935867,0.10095011876484561,0.26365795724465557,0.17695961995249407
300059,0.9219002811979375,0.20315026330549824,-0.08007846208618798,0.3200270019169963,0.5005583897475268,0.1624418877933538,0.2387285819405607,0.13286629159896599,-0.08877459029205971,0.022949182322926975,0.21258907363420426,0.3159144893111639,0.23515439429928742,0.11995249406175772,0.1163895486935867,0.10095011876484561,0.26365795724465557,0.17695961995249407
308102,0.9219002811979375,0.20315026330549824,-0.08007846208618798,0.3200270019169963,0.5005583897475268,0.1624418877933538,0.2387285819405607,0.13286629159896599,-0.08877459029205971,0.022949182322926975,0.23040380047505937,0.33016627078384797,0.25653206650831356,0.13064133016627077,0.10688836104513064,0.09144893111638955,0.2161520190023753,0.18171021377672208
322469,0.9254206110321322,0.19557785272740225,-0.07407470072489959,0.3160046438139322,0.4769814523461088,0.11422625828944338,0.24937225013870729,0.12785888138489276,-0.08714955969445656,0.049312983572944724,0.23040380047505937,0.33016627078384797,0.25653206650831356,0.13064133016627077,0.10688836104513064,0.09144893111638955,0.2161520190023753,0.18171021377672208
330601,0.9254206110321322,0.19557785272740225,-0.07407470072489959,0.3160046438139322,0.4769814523461088,0.11422625828944338,0.24937225013870729,0.12785888138489276,-0.08714955969445656,0.049312983572944724,0.27197149643705465,0.37173396674584325,0.3016627078384798,0.14608076009501186,0.10451306413301663,0.08432304038004751,0.18527315914489312,0.19477434679334918
347656,0.926964783319671,0.20424735421265972,-0.06027448029048462,0.3088467189528737,0.434308514881034,0.13340825769572695,0.2032510256433965,0.10142621546718696,-0.009847261476883605,0.0013547428151756136,0.27197149643705465,0.37173396674584325,0.3016627078384798,0.14608076009501186,0.10451306413301663,0.08432304038004751,0.18527315914489312,0.19477434679334918
349354,0.935001626937234,0.15303650227111,-0.07152892779457592,0.31182591150497435,0.4368452904858189,0.12553128507688813,0.20772506679117306,0.0695995012662465,-0.02612892639790955,-0.03402407503086996,0.27197149643705465,0.37173396674584325,0.3016627078384798,0.14608076009501186,0.10451306413301663,0.08432304038004751,0.18527315914489312,0.19477434679334918
350103,0.935001626937234,0.15303650227111,-0.07152892779457592,0.31182591150497435,0.4368452904858189,0.12553128507688813,0.20772506679117306,0.0695995012662465,-0.02612892639790955,-0.03402407503086996,0.22921615201900236,0.39548693586698336,0.25653206650831356,0.09026128266033254,0.06294536817102138,0.07957244655581948,0.09026128266033254,0.166270783847981
356006,0.9357638604665153,0.1692515156874816,-0.04309951456323988,0.3063369937286506,0.4094643657840759,0.13601835631043013,0.17843340313778616,-0.005189724503889187,0.05009613257209242,-0.12436404899562495,0.22921615201900236,0.39548693586698336,0.25653206650831356,0.09026128266033254,0.06294536817102138,0.07957244655581948,0.09026128266033254,0.166270783847981
356804,0.9357638604665153,0.1692515156874816,-0.04309951456323988,0.3063369937286506,0.4094643657840759,0.13601835631043013,0.17843340313778616,-0.005189724503889187,0.05009613257209242,-0.12436404899562495,0.2161520190023753,0.36342042755344417,0.24346793349168647,0.1021377672209026,0.06532066508313539,0.11401425178147269,0.1187648456057007,0.17220902612826602
378575,0.93423604205721,0.20327194852494745,-0.006424061806547216,0.2929885050544742,0.42457207551143195,0.14524089772509352,0.18535821122985888,-0.045012626014732465,0.11893736532138907,-0.1792963464723262,0.2161520190023753,0.36342042755344417,0.24346793349168647,0.1021377672209026,0.06532066508313539,0.11401425178147269,0.1187648456057007,0.17220902612826602
379377,0.93423604205721,0.20327194852494745,-0.006424061806547216,0.2929885050544742,0.42457207551143195,0.14524089772509352,0.18535821122985888,-0.045012626014732465,0.11893736532138907,-0.1792963464723262,0.16508313539192399,0.27909738717339666,0.22446555819477435,0.15558194774346792,0.11520190023752969,0.18883610451306412,0.22565320665083136,0.1995249406175772
380193,0.93423604205721,0.20327194852494745,-0.006424061806547216,0.2929885050544742,0.42457207551143195,0.14524089772509352,0.18535821122985888,-0.045012626014732465,0.11893736532138907,-0.1792963464723262,0.2161520190023753,0.36342042755344417,0.24346793349168647,0.1021377672209026,0.06532066508313539,0.11401425178147269,0.1187648456057007,0.17220902612826602
385180,0.93423604205721,0.20327194852494745,-0.006424061806547216,0.2929885050544742,0.42457207551143195,0.14524089772509352,0.18535821122985888,-0.045012626014732465,0.11893736532138907,-0.1792963464723262,0.16508313539192399,0.27909738717339666,0.22446555819477435,0.15558194774346792,0.11520190023752969,0.18883610451306412,0.22565320665083136,0.1995249406175772
401067,0.9283407729908029,0.2475793482061287,0.03138497568783942,0.2755047347065758,0.577552342155305,0.30817271572318017,0.23404147282526383,-0.03952991572037483,0.1678181877921786,-0.19228147912422144,0.16508313539192399,0.27909738717339666,0.22446555819477435,0.15558194774346792,0.11520190023752969,0.18883610451306412,0.22565320665083136,0.1995249406175772
401841,0.9283407729908029,0.2475793482061287,0.03138497568783942,0.2755047347065758,0.577552342155305,0.30817271572318017,0.23404147282526383,-0.03952991572037483,0.1678181877921786,-0.19228147912422144,0.2007125890736342,0.4002375296912114,0.19596199524940616,0.17695961995249407,0.19477434679334918,0.27197149643705465,0.42280285035629456,0.34323040380047504
423561,0.9324091040859002,0.24420531184923988,0.028338885391449194,0.2649036350394507,0.6657815980783026,0.29257113312179045,0.32165930673403853,0.15118575741515242,-0.10716367900390394,0.09663656956826716,0.2007125890736342,0.4002375296912114,0.19596199524940616,0.17695961995249407,0.19477434679334918,0.27197149643705465,0.42280285035629456,0.34323040380047504
424334,0.9324091040859002,0.24420531184923988,0.028338885391449194,0.2649036350394507,0.6657815980783026,0.29257113312179045,0.32165930673403853,0.15118575741515242,-0.10716367900390394,0.09663656956826716,0.22446555819477435,0.4346793349168646,0.17933491686460806,0.18171021377672208,0.20308788598574823,0.29097387173396677,0.7482185273159145,0.4857482185273159
446028,0.9431478279873273,0.23143466978430877,0.004469205046642145,0.23851665432599317,0.511071142592534,0.190113089406713,0.23611258151909081,0.22544730641403588,-0.2855773608999298,0.27698969831212844,0.22446555819477435,0.4346793349168646,0.17933491686460806,0.18171021377672208,0.20308788598574823,0.29097387173396677,0.7482185273159145,0.4857482185273159
446866,0.9431478279873273,0.23143466978430877,0.004469205046642145,0.23851665432599317,0.511071142592534,0.190113089406713,0.23611258151909081,0.22544730641403588,-0.2855773608999298,0.27698969831212844,0.21852731591448932,0.4477434679334917,0.17220902612826602,0.22565320665083136,0.20546318289786222,0.29097387173396677,0.8990498812351544,0.5166270783847982
476038,0.9517892586372301,0.2322284067373786,-0.014787224492891483,0.19987123914862617,0.43334710577668833,0.18883924354538983,0.16764596069343965,0.19885652779279656,-0.27749657546771134,0.2738428373035371,0.21852731591448932,0.4477434679334917,0.17220902612826602,0.22565320665083136,0.20546318289786222,0.29097387173396677,0.8990498812351544,0.5166270783847982
476845,0.9517892586372301,0.2322284067373786,-0.014787224492891483,0.19987123914862617,0.43334710577668833,0.18883924354538983,0.16764596069343965,0.19885652779279656,-0.27749657546771134,0.2738428373035371,0.22209026128266032,0.4501187648456057,0.15795724465558195,0.23040380047505937,0.20902612826603326,0.2862232779097387,0.9643705463182898,0.5391923990498813
491048,0.9517892586372301,0.2322284067373786,-0.014787224492891483,0.19987123914862617,0.43334710577668833,0.18883924354538983,0.16764596069343965,0.19885652779279656,-0.27749657546771134,0.2738428373035371,0.32066508313539194,0.9608076009501187,0.21852731591448932,0.33016627078384797,0.1496437054631829,0.2007125890736342,0.5700712589073634,0.23515439429928742
502444,0.9452464638359795,0.2738071165439032,-0.09138037682697367,0.15227741876735906,0.3215525342593767,0.17755132273756558,0.08699823042210086,0.32356448320884806,-0.09693734897538414,0.26579807245001963,0.32066508313539194,0.9608076009501187,0.21852731591448932,0.33016627078384797,0.1496437054631829,0.2007125890736342,0.5700712589073634,0.23515439429928742
510626,0.9452464638359795,0.2738071165439032,-0.09138037682697367,0.15227741876735906,0.3215525342593767,0.17755132273756558,0.08699823042210086,0.32356448320884806,-0.09693734897538414,0.26579807245001963,0.3159144893111639,0.9014251781472684,0.19833729216152018,0.28741092636579574,0.1543942992874109,0.14726840855106887,0.5249406175771971,0.19121140142517815
527708,0.9357584047815621,0.2765016298458494,-0.10712985456971565,0.19085662376015758,0.42806903601947693,0.05817640353882528,0.24990753367201532,0.38488036718275564,0.1870834136369716,0.08381284745898582,0.3159144893111639,0.9014251781472684,0.19833729216152018,0.28741092636579574,0.1543942992874109,0.14726840855106887,0.5249406175771971,0.19121140142517815
529287,0.941630008313721,0.26821998806960334,-0.07510069895766622,0.18907895297762117,0.45428863961525806,0.042304144100785535,0.2894271064587284,0.43139074733114025,0.21505391120165449,0.10804432090275945,0.3159144893111639,0.9014251781472684,0.19833729216152018,0.28741092636579574,0.1543942992874109,0.14726840855106887,0.5249406175771971,0.19121140142517815
530168,0.941630008313721,0.26821998806960334,-0.07510069895766622,0.18907895297762117,0.45428863961525806,0.042304144100785535,0.2894271064587284,0.43139074733114025,0.21505391120165449,0.10804432090275945,0.1330166270783848,0.22802850356294538,0.16864608076009502,0.18883610451306412,0.11757719714964371,0.11282660332541568,0.6555819477434679,0.2648456057007126
536064,0.9306979529661767,0.2574649241761079,-0.08564224552787159,0.24531314466310772,0.5649598796317813,0.04456282809111545,0.36750272604710177,0.3540550983794816,0.23211861575313822,-0.0021065742025486722,0.1330166270783848,0.22802850356294538,0.16864608076009502,0.18883610451306412,0.11757719714964371,0.11282660332541568,0.6555819477434679,0.2648456057007126
536839,0.9306979529661767,0.2574649241761079,-0.08564224552787159,0.24531314466310772,0.5649598796317813,0.04456282809111545,0.36750272604710177,0.3540550983794816,0.23211861575313822,-0.0021065742025486722,0.16983372921615203,0.24109263657957244,0.21258907363420426,0.13895486935866982,0.12232779097387174,0.1187648456057007,0.4418052256532066,0.2161520190023753
557634,0.9210042953290172,0.2302992871288964,-0.08329040926506509,0.3029455958714041,0.5224344264765786,0.17628543776881458,0.23988508280138157,0.22561638637656783,0.15295268576261742,-0.08074473590748288,0.16983372921615203,0.24109263657957244,0.21258907363420426,0.13895486935866982,0.12232779097387174,0.1187648456057007,0.4418052256532066,0.2161520190023753
558439,0.9210042953290172,0.2302992871288964,-0.08329040926506509,0.3029455958714041,0.5224344264765786,0.17628543776881458,0.23988508280138157,0.22561638637656783,0.15295268576261742,-0.08074473590748288,0.21258907363420426,0.3159144893111639,0.23515439429928742,0.11995249406175772,0.1163895486935867,0.10095011876484561,0.26365795724465557,0.17695961995249407
580206,0.9219002811979375,0.20315026330549824,-0.08007846208618798,0.3200270019169963,0.5005583897475268,0.1624418877933538,0.2387285819405607,0.13286629159896599,-0.08877459029205971,0.022949182322926975,0.21258907363420426,0.3159144893111639,0.23515439429928742,0.11995249406175772,0.1163895486935867,0.10095011876484561,0.26365795724465557,0.17695961995249407
580985,0.9219002811979375,0.20315026330549824,-0.08007846208618798,0.3200270019169963,0.5005583897475268,0.1624418877933538,0.2387285819405607,0.13286629159896599,-0.08877459029205971,0.022949182322926975,0.23040380047505937,0.33016627078384797,0.25653206650831356,0.13064133016627077,0.10688836104513064,0.09144893111638955,0.2161520190023753,0.18171021377672208
596814,0.9254206110321322,0.19557785272740225,-0.07407470072489959,0.3160046438139322,0.4769814523461088,0.11422625828944338,0.24937225013870729,0.12785888138489276,-0.08714955969445656,0.049312983572944724,0.23040380047505937,0.33016627078384797,0.25653206650831356,0.13064133016627077,0.10688836104513064,0.09144893111638955,0.2161520190023753,0.18171021377672208
597671,0.9254206110321322,0.19557785272740225,-0.07407470072489959,0.3160046438139322,0.4769814523461088,0.11422625828944338,0.24937225013870729,0.12785888138489276,-0.08714955969445656,0.049312983572944724,0.27197149643705465,0.37173396674584325,0.3016627078384798,0.14608076009501186,0.10451306413301663,0.08432304038004751,0.18527315914489312,0.19477434679334918
618576,0.926964783319671,0.20424735421265972,-0.06027448029048462,0.3088467189528737,0.434308514881034,0.13340825769572695,0.2032510256433965,0.10142621546718696,-0.009847261476883605,0.0013547428151756136,0.27197149643705465,0.37173396674584325,0.3016627078384798,0.14608076009501186,0.10451306413301663,0.08432304038004751,0.18527315914489312,0.19477434679334918
619353,0.926964783319671,0.20424735421265972,-0.06027448029048462,0.3088467189528737,0.434308514881034,0.13340825769572695,0.2032510256433965,0.10142621546718696,-0.009847261476883605,0.0013547428151756136,0.2695961995249406,0.36223277909738716,0.30997624703087884,0.13064133016627077,0.09263657957244656,0.08788598574821853,0.16508313539192399,0.19714964370546317
641001,0.9281077565554128,0.23450474721027087,-0.039285974659284045,0.2864962965774517,0.4256637201994226,0.1671887855223988,0.17557019600383222,0.037569104837685025,0.04615762895139321,-0.056764867001374675,0.2695961995249406,0.36223277909738716,0.30997624703087884,0.13064133016627077,0.09263657957244656,0.08788598574821853,0.16508313539192399,0.19714964370546317
641813,0.9281077565554128,0.23450474721027087,-0.039285974659284045,0.2864962965774517,0.4256637201994226,0.1671887855223988,0.17557019600383222,0.037569104837685025,0.04615762895139321,-0.056764867001374675,0.25534441805225655,0.36104513064133015,0.2838479809976247,0.22684085510688837,0.09501187648456057,0.13895486935866982,0.14726840855106887,0.1828978622327791
663487,0.923596815983688,0.27515642352685116,-0.019535572438981855,0.26622589187790563,0.4316978951264724,0.26641974937104107,0.11809744355970087,0.07352369426954669,0.13728265459343747,-0.07476622740933259,0.25534441805225655,0.36104513064133015,0.2838479809976247,0.22684085510688837,0.09501187648456057,0.13895486935866982,0.14726840855106887,0.1828978622327791
664310,0.923596815983688,0.27515642352685116,-0.019535572438981855,0.26622589187790563,0.4316978951264724,0.26641974937104107,0.11809744355970087,0.07352369426954669,0.13728265459343747,-0.07476622740933259,0.25415676959619954,0.5332541567695962,0.30522565320665085,0.32066508313539194,0.12707838479809977,0.1828978622327791,0.27909738717339666,0.171021377672209
686026,0.9156411481715141,0.28529748592168924,-0.014248026505591642,0.28284912240028387,0.608687377672085,0.2566019380107682,0.2821473896063762,0.20356325791319205,0.1636093085896562,-0.03422866585991491,0.25415676959619954,0.5332541567695962,0.30522565320665085,0.32066508313539194,0.12707838479809977,0.1828978622327791,0.27909738717339666,0.171021377672209
686880,0.9156411481715141,0.28529748592168924,-0.014248026505591642,0.28284912240028387,0.608687377672085,0.2566019380107682,0.2821473896063762,0.20356325791319205,0.1636093085896562,-0.03422866585991491,0.25653206650831356,0.6294536817102138,0.3016627078384798,0.3681710213776722,0.12351543942992874,0.23159144893111638,0.3752969121140142,0.21852731591448932
708599,0.917480695501673,0.2728046033293094,-0.013572518536209936,0.28917573986191947,0.6578306347739853,0.16813103077110134,0.37726988492516345,0.15327027714344005,-0.05301345634061205,0.04271242759655364,0.25653206650831356,0.6294536817102138,0.3016627078384798,0.3681710213776722,0.12351543942992874,0.23159144893111638,0.3752969121140142,0.21852731591448932
709285,0.917480695501673,0.2728046033293094,-0.013572518536209936,0.28917573986191947,0.6578306347739853,0.16813103077110134,0.37726988492516345,0.15327027714344005,-0.05301345634061205,0.04271242759655364,0.2375296912114014,0.7600950118764845,0.25415676959619954,0.37885985748218526,0.13539192399049882,0.2517814726840855,0.5213776722090261,0.21971496437054633
731000,0.9295144796810106,0.2577417497969263,-0.025257607067962626,0.26255299609823357,0.5235672987121736,0.2078396681303616,0.2282604768537221,0.13197808451139403,-0.2872823620412528,0.19458798476466188,0.2375296912114014,0.7600950118764845,0.25415676959619954,0.37885985748218526,0.13539192399049882,0.2517814726840855,0.5213776722090261,0.21971496437054633
731853,0.9295144796810106,0.2577417497969263,-0.025257607067962626,0.26255299609823357,0.5235672987121736,0.2078396681303616,0.2282604768537221,0.13197808451139403,-0.2872823620412528,0.19458798476466188,0.3028503562945368,0.9251781472684085,0.2505938242280285,0.39429928741092635,0.14370546318289787,0.2505938242280285,0.5819477434679335,0.2375296912114014
760193,0.9413681352036536,0.2527808163565732,-0.03701961852614089,0.220357529368703,0.4329581228633397,0.1950159199177831,0.16232992193827722,0.12099283490486412,-0.32374721015355856,0.23271451765185705,0.3028503562945368,0.9251781472684085,0.2505938242280285,0.39429928741092635,0.14370546318289787,0.2505938242280285,0.5819477434679335,0.2375296912114014
760998,0.9413681352036536,0.2527808163565732,-0.03701961852614089,0.220357529368703,0.4329581228633397,0.1950159199177831,0.16232992193827722,0.12099283490486412,-0.32374721015355856,0.23271451765185705,0.31353919239904987,1,0.2505938242280285,0.3824228028503563,0.17220902612826602,0.23159144893111638,0.6128266033254157,0.24703087885985747
776002,0.9469219610981054,0.262885465093371,-0.06445002903166619,0.1734249854853015,0.36343240272662447,0.25060282594123295,0.07774279812153884,0.2559308866830101,-0.2578249903121919,0.327254926979552,0.31353919239904987,1,0.2505938242280285,0.3824228028503563,0.17220902612826602,0.23159144893111638,0.6128266033254157,0.24703087885985747
776830,0.9469219610981054,0.262885465093371,-0.06445002903166619,0.1734249854853015,0.36343240272662447,0.25060282594123295,0.07774279812153884,0.2559308866830101,-0.2578249903121919,0.327254926979552,0.32066508313539194,0.9608076009501187,0.21852731591448932,0.33016627078384797,0.1496437054631829,0.2007125890736342,0.5700712589073634,0.23515439429928742
795596,0.9469219610981054,0.262885465093371,-0.06445002903166619,0.1734249854853015,0.36343240272662447,0.25060282594123295,0.07774279812153884,0.2559308866830101,-0.2578249903121919,0.327254926979552,0.3859857482185273,0.8432304038004751,0.18646080760095013,0.2695961995249406,0.14133016627078385,0.12114014251781473,0.47268408551068886,0.22802850356294538
802598,0.9274265370935298,0.2966770709914346,-0.09741969943332765,0.20584493193898834,0.3819766804580902,0.11705685856377686,0.17338820630108598,0.34458694997912903,0.13974684195473294,0.09778959920677288,0.3859857482185273,0.8432304038004751,0.18646080760095013,0.2695961995249406,0.14133016627078385,0.12114014251781473,0.47268408551068886,0.22802850356294538
810601,0.9274265370935298,0.2966770709914346,-0.09741969943332765,0.20584493193898834,0.3819766804580902,0.11705685856377686,0.17338820630108598,0.34458694997912903,0.13974684195473294,0.09778959920677288,0.27078384798099764,0.5605700712589073,0.14251781472684086,0.2505938242280285,0.14726840855106887,0.11757719714964371,0.41092636579572445,0.19121140142517815
827673,0.9169403096883701,0.2981673823269389,-0.10458272181627812,0.2436783430721648,0.5008676475083143,0.02882180455586264,0.3329391486379741,0.3351634471977063,0.19681713667978404,0.03144119399295964,0.27078384798099764,0.5605700712589073,0.14251781472684086,0.2505938242280285,0.14726840855106887,0.11757719714964371,0.41092636579572445,0.19121140142517815
829325,0.9169403096883701,0.2981673823269389,-0.10458272181627812,0.2436783430721648,0.5008676475083143,0.02882180455586264,0.3329391486379741,0.3351634471977063,0.19681713667978404,0.03144119399295964,0.29691211401425177,0.7909738717339667,0.18883610451306412,0.28859857482185275,0.16033254156769597,0.11045130641330166,0.40498812351543945,0.17458432304038005
835192,0.9264586451152657,0.2690084400640197,-0.11062509185089199,0.23889522205035932,0.5035064472925668,0.061488788529180494,0.3042852246892635,0.29604237597758754,0.19823266965362396,-0.02146798814972023,0.29691211401425177,0.7909738717339667,0.18883610451306412,0.28859857482185275,0.16033254156769597,0.11045130641330166,0.40498812351543945,0.17458432304038005
836000,0.9264586451152657,0.2690084400640197,-0.11062509185089199,0.23889522205035932,0.5035064472925668,0.061488788529180494,0.3042852246892635,0.29604237597758754,0.19823266965362396,-0.02146798814972023,0.25534441805225655,0.6128266033254157,0.16033254156769597,0.27315914489311166,0.15795724465558195,0.10332541567695962,0.32660332541567694,0.166270783847981
851054,0.9210854011825494,0.2497581846454715,-0.10906077789199795,0.2780796282660287,0.49672392588304803,0.16027762740850604,0.23012322211458422,0.20487736912293292,0.07984963626154984,-0.02975155096384785,0.25534441805225655,0.6128266033254157,0.16033254156769597,0.27315914489311166,0.15795724465558195,0.10332541567695962,0.32660332541567694,0.166270783847981
851859,0.9210854011825494,0.2497581846454715,-0.10906077789199795,0.2780796282660287,0.49672392588304803,0.16027762740850604,0.23012322211458422,0.20487736912293292,0.07984963626154984,-0.02975155096384785,0.2494061757719715,0.47268408551068886,0.16389548693586697,0.23871733966745842,0.1163895486935867,0.0831353919239905,0.24703087885985747,0.14608076009501186
852679,0.9210854011825494,0.2497581846454715,-0.10906077789199795,0.2780796282660287,0.49672392588304803,0.16027762740850604,0.23012322211458422,0.20487736912293292,0.07984963626154984,-0.02975155096384785,0.25534441805225655,0.6128266033254157,0.16033254156769597,0.27315914489311166,0.15795724465558195,0.10332541567695962,0.32660332541567694,0.166270783847981
857710,0.9210854011825494,0.2497581846454715,-0.10906077789199795,0.2780796282660287,0.49672392588304803,0.16027762740850604,0.23012322211458422,0.20487736912293292,0.07984963626154984,-0.02975155096384785,0.2494061757719715,0.47268408551068886,0.16389548693586697,0.23871733966745842,0.1163895486935867,0.0831353919239905,0.24703087885985747,0.14608076009501186
874342,0.9229170537015291,0.23110508378124606,-0.1073743091198792,0.288591943717042,0.47247772939735005,0.17267626792370558,0.20777046874484464,0.1415756190778377,-0.08138475834804967,0.04133418224908131,0.2494061757719715,0.47268408551068886,0.16389548693586697,0.23871733966745842,0.1163895486935867,0.0831353919239905,0.24703087885985747,0.14608076009501186
875152,0.9229170537015291,0.23110508378124606,-0.1073743091198792,0.288591943717042,0.47247772939735005,0.17267626792370558,0.20777046874484464,0.1415756190778377,-0.08138475834804967,0.04133418224908131,0.20902612826603326,0.3254156769596199,0.14845605700712589,0.21377672209026127,0.1163895486935867,0.08076009501187649,0.23040380047505937,0.14251781472684086
896036,0.9264562444304709,0.22334247709718874,-0.10269886244898838,0.28504369617930986,0.4513135993887149,0.16897157221075684,0.19866004685692631,0.14966530386676638,-0.10557960074002826,0.0880811728823438,0.20902612826603326,0.3254156769596199,0.14845605700712589,0.21377672209026127,0.1163895486935867,0.08076009501187649,0.23040380047505937,0.14251781472684086
896881,0.9264562444304709,0.22334247709718874,-0.10269886244898838,0.28504369617930986,0.4513135993887149,0.16897157221075684,0.19866004685692631,0.14966530386676638,-0.10557960074002826,0.0880811728823438,0.21496437054631828,0.32779097387173395,0.1496437054631829,0.19002375296912113,0.10570071258907364,0.06413301662707839,0.19714964370546317,0.1508313539192399
