Timestamp, Orientation x, Orientation y, Orientation z, Orientation w, Acceleration x, Acceleration y, Acceleration z, Rotation x, Rotation y, Rotation z, EMG 0, EMG 1, EMG 2, EMG 3, EMG 4, EMG 5, EMG 6, EMG 7
0,0.9564684312914922,-0.23673527850421333,0.03006081771517008,-0.16799075895006893,-0.49924541875175127,-0.4500865173639268,-0.45870503188907275,-0.7959492517485993,-0.5130889303094408,-0.6080175221297155,0,0,0,0,0,0,0,0
7459,0.9549747437841045,-0.2378083208228205,-0.01735813581244061,-0.176547830354925,-0.49011922572524264,-0.4557329130443423,-0.4695868303768742,-0.7954293632966418,-0.5182828443791916,-0.6148486276542349,0,0,0,0,0,0,0,0
14971,0.9516325564173516,-0.23846036148403918,-0.06429076132543261,-0.18275347213028245,-0.4891994975068147,-0.45706691298619895,-0.4724660030064946,-0.7921045137092407,-0.5225691209296277,-0.6215967037623398,0,0,0,0,0,0,0,0
29963,0.9467756076884858,-0.2397635460180546,-0.10835087390562168,-0.1854440045157426,-0.4947277869954441,-0.4550945059858633,-0.47139437215878444,-0.7837118708391974,-0.5251892045476019,-0.6312024495725391,0,0,0,0,0,0,0,0
52518,0.9405372015056093,-0.24201419724864087,-0.14850248924233772,-0.18645619218176218,-0.4928144953706913,-0.45899883806858127,-0.47612514230352,-0.7762970394326986,-0.5218072484709417,-0.6333126549666153,0,0,0,0,0,0,0,0
68561,0.9405372015056093,-0.24201419724864087,-0.14850248924233772,-0.18645619218176218,-0.4928144953706913,-0.45899883806858127,-0.47612514230352,-0.7762970394326986,-0.5218072484709417,-0.6333126549666153,0.10215053763440861,0.11344086021505376,0.31989247311827956,0.20430107526881722,0.02849462365591398,0.05053763440860215,0.06559139784946237,0.2467741935483871
75130,0.9333204091039281,-0.24427808114539323,-0.185787163582116,-0.18634474199749532,-0.4873921219091354,-0.458748221557865,-0.4754982760910587,-0.769140098322141,-0.5193329459919369,-0.6334752280531544,0.10215053763440861,0.11344086021505376,0.31989247311827956,0.20430107526881722,0.02849462365591398,0.05053763440860215,0.06559139784946237,0.2467741935483871
91325,0.9333204091039281,-0.24427808114539323,-0.185787163582116,-0.18634474199749532,-0.4873921219091354,-0.458748221557865,-0.4754982760910587,-0.769140098322141,-0.5193329459919369,-0.6334752280531544,0.11720430107526882,0.12096774193548387,0.33064516129032256,0.4053763440860215,0.03655913978494624,0.08763440860215053,0.08870967741935484,0.2521505376344086
93027,0.9245282807296122,-0.24728352434262502,-0.2212038305505635,-0.18752914991967304,-0.487839363971686,-0.46207071409108236,-0.48346661531291985,-0.7701144971447016,-0.5123732593092086,-0.6262764868794735,0.11720430107526882,0.12096774193548387,0.33064516129032256,0.4053763440860215,0.03655913978494624,0.08763440860215053,0.08870967741935484,0.2521505376344086
114345,0.9245282807296122,-0.24728352434262502,-0.2212038305505635,-0.18752914991967304,-0.487839363971686,-0.46207071409108236,-0.48346661531291985,-0.7701144971447016,-0.5123732593092086,-0.6262764868794735,0.11236559139784946,0.13440860215053763,0.34516129032258064,0.5639784946236559,0.10967741935483871,0.09731182795698924,0.10215053763440861,0.24731182795698925
116091,0.9153173154704455,-0.25106404982299063,-0.251917159893729,-0.18894125922501248,-0.48479436123065345,-0.4611359016348849,-0.4855032064785621,-0.7601921926095878,-0.5032081298848889,-0.6197557444064832,0.11236559139784946,0.13440860215053763,0.34516129032258064,0.5639784946236559,0.10967741935483871,0.09731182795698924,0.10215053763440861,0.24731182795698925
128175,0.9153173154704455,-0.25106404982299063,-0.251917159893729,-0.18894125922501248,-0.48479436123065345,-0.4611359016348849,-0.4855032064785621,-0.7601921926095878,-0.5032081298848889,-0.6197557444064832,0.1032258064516129,0.13709677419354838,0.3161290322580645,0.6026881720430107,0.13440860215053763,0.1349462365591398,0.15645161290322582,0.2252688172043011
135102,0.9064183800956033,-0.2555802957608282,-0.27922377851058355,-0.18739934407020367,-0.4903720539122841,-0.45745247994605104,-0.4833914296623926,-0.7497274681238146,-0.5032829967224253,-0.6269647707896029,0.1032258064516129,0.13709677419354838,0.3161290322580645,0.6026881720430107,0.13440860215053763,0.1349462365591398,0.15645161290322582,0.2252688172043011
151297,0.9064183800956033,-0.2555802957608282,-0.27922377851058355,-0.18739934407020367,-0.4903720539122841,-0.45745247994605104,-0.4833914296623926,-0.7497274681238146,-0.5032829967224253,-0.6269647707896029,0.09462365591397849,0.13440860215053763,0.2564516129032258,0.6940860215053763,0.17096774193548386,0.2903225806451613,0.1586021505376344,0.17688172043010753
153037,0.8993941218432301,-0.25942480499282394,-0.29947698807348955,-0.1846686702251129,-0.4984625508670444,-0.45527825125055127,-0.4825105833055845,-0.7234766705911742,-0.49492782986362027,-0.6238939161525855,0.09462365591397849,0.13440860215053763,0.2564516129032258,0.6940860215053763,0.17096774193548386,0.2903225806451613,0.1586021505376344,0.17688172043010753
173798,0.8993941218432301,-0.25942480499282394,-0.29947698807348955,-0.1846686702251129,-0.4984625508670444,-0.45527825125055127,-0.4825105833055845,-0.7234766705911742,-0.49492782986362027,-0.6238939161525855,0.08387096774193549,0.11397849462365592,0.239247311827957,0.7376344086021506,0.23010752688172043,0.3333333333333333,0.1553763440860215,0.13655913978494624
175552,0.8990562310538213,-0.26193397320774486,-0.3007397473867849,-0.18067675950336065,-0.5099745708693324,-0.4574684568197952,-0.4859673451741666,-0.6987028956259573,-0.47967135197930555,-0.6095280510772092,0.08387096774193549,0.11397849462365592,0.239247311827957,0.7376344086021506,0.23010752688172043,0.3333333333333333,0.1553763440860215,0.13655913978494624
188097,0.8990562310538213,-0.26193397320774486,-0.3007397473867849,-0.18067675950336065,-0.5099745708693324,-0.4574684568197952,-0.4859673451741666,-0.6987028956259573,-0.47967135197930555,-0.6095280510772092,0.05698924731182796,0.1086021505376344,0.22311827956989247,0.7123655913978495,0.2413978494623656,0.3827956989247312,0.1446236559139785,0.11612903225806452
195067,0.9014725225844111,-0.2664247845283079,-0.29231514709594175,-0.17583224958073285,-0.5025933766102288,-0.44980520830850945,-0.48038709661168333,-0.6665096895275822,-0.46254229421048976,-0.5993863082387096,0.05698924731182796,0.1086021505376344,0.22311827956989247,0.7123655913978495,0.2413978494623656,0.3827956989247312,0.1446236559139785,0.11612903225806452
211283,0.9014725225844111,-0.2664247845283079,-0.29231514709594175,-0.17583224958073285,-0.5025933766102288,-0.44980520830850945,-0.48038709661168333,-0.6665096895275822,-0.46254229421048976,-0.5993863082387096,0.041935483870967745,0.08763440860215053,0.18494623655913978,0.603763440860215,0.22096774193548388,0.3967741935483871,0.1403225806451613,0.1043010752688172
213008,0.9068663326718007,-0.2712742625216884,-0.27624963583362105,-0.1664027279268731,-0.506385140980234,-0.4396370585229399,-0.4744287603758963,-0.6287631506145798,-0.45722153510579894,-0.6058455229331816,0.041935483870967745,0.08763440860215053,0.18494623655913978,0.603763440860215,0.22096774193548388,0.3967741935483871,0.1403225806451613,0.1043010752688172
233744,0.9068663326718007,-0.2712742625216884,-0.27624963583362105,-0.1664027279268731,-0.506385140980234,-0.4396370585229399,-0.4744287603758963,-0.6287631506145798,-0.45722153510579894,-0.6058455229331816,0.053763440860215055,0.07903225806451612,0.1913978494623656,0.6080645161290322,0.21451612903225806,0.3919354838709677,0.08709677419354839,0.10215053763440861
235472,0.914157629690162,-0.2720660532165971,-0.25827357461201517,-0.15359248491882732,-0.5198376844594629,-0.43098211831626665,-0.46728520527493167,-0.5665367740387943,-0.4539277832603952,-0.6174672879391292,0.053763440860215055,0.07903225806451612,0.1913978494623656,0.6080645161290322,0.21451612903225806,0.3919354838709677,0.08709677419354839,0.10215053763440861
248079,0.914157629690162,-0.2720660532165971,-0.25827357461201517,-0.15359248491882732,-0.5198376844594629,-0.43098211831626665,-0.46728520527493167,-0.5665367740387943,-0.4539277832603952,-0.6174672879391292,0.05591397849462366,0.07956989247311828,0.19193548387096773,0.5483870967741935,0.1978494623655914,0.29838709677419356,0.08817204301075268,0.0967741935483871
255052,0.9292139636863715,-0.2653666910862805,-0.22120529798624536,-0.1311874425964529,-0.5377872705398671,-0.43928515964383275,-0.46714204555859784,-0.46940264481201144,-0.44904244746095073,-0.6318893829158593,0.05591397849462366,0.07956989247311828,0.19193548387096773,0.5483870967741935,0.1978494623655914,0.29838709677419356,0.08817204301075268,0.0967741935483871
271311,0.9292139636863715,-0.2653666910862805,-0.22120529798624536,-0.1311874425964529,-0.5377872705398671,-0.43928515964383275,-0.46714204555859784,-0.46940264481201144,-0.44904244746095073,-0.6318893829158593,0.054838709677419356,0.11559139784946236,0.20591397849462365,0.5177419354838709,0.1349462365591398,0.2564516129032258,0.10215053763440861,0.1010752688172043
273051,0.9495766755929578,-0.24898626698158985,-0.161001292934276,-0.10192428414215353,-0.5527993971126097,-0.4469149691520551,-0.4548618579243317,-0.3619002885211099,-0.4326967756442423,-0.6312534922070526,0.054838709677419356,0.11559139784946236,0.20591397849462365,0.5177419354838709,0.1349462365591398,0.2564516129032258,0.10215053763440861,0.1010752688172043
293767,0.9495766755929578,-0.24898626698158985,-0.161001292934276,-0.10192428414215353,-0.5527993971126097,-0.4469149691520551,-0.4548618579243317,-0.3619002885211099,-0.4326967756442423,-0.6312534922070526,0.05967741935483871,0.3053763440860215,0.24946236559139784,0.621505376344086,0.139247311827957,0.16612903225806452,0.12741935483870967,0.1032258064516129
295495,0.9658116754274486,-0.23792979974823786,-0.0696803215979544,-0.075775133004132,-0.5458998001940502,-0.43575551671639134,-0.42781054851101785,-0.2910811006863307,-0.36096890458238967,-0.58217698361923,0.05967741935483871,0.3053763440860215,0.24946236559139784,0.621505376344086,0.139247311827957,0.16612903225806452,0.12741935483870967,0.1032258064516129
308120,0.9658116754274486,-0.23792979974823786,-0.0696803215979544,-0.075775133004132,-0.5458998001940502,-0.43575551671639134,-0.42781054851101785,-0.2910811006863307,-0.36096890458238967,-0.58217698361923,0.08763440860215053,0.4639784946236559,0.3301075268817204,0.6779569892473118,0.19301075268817205,0.14677419354838708,0.21989247311827956,0.10591397849462365
315039,0.9688780329475055,-0.22794933435963755,0.0551599030898144,-0.0791949703446698,-0.5230338879179863,-0.4604776414234144,-0.4289165084431943,-0.2658255034911046,-0.22964839933056014,-0.44026316886722183,0.08763440860215053,0.4639784946236559,0.3301075268817204,0.6779569892473118,0.19301075268817205,0.14677419354838708,0.21989247311827956,0.10591397849462365
331319,0.9688780329475055,-0.22794933435963755,0.0551599030898144,-0.0791949703446698,-0.5230338879179863,-0.4604776414234144,-0.4289165084431943,-0.2658255034911046,-0.22964839933056014,-0.44026316886722183,0.12473118279569892,0.5193548387096775,0.47956989247311826,0.7338709677419355,0.2854838709677419,0.18010752688172044,0.2768817204301075,0.09301075268817205
333061,0.9517278665825487,-0.21911321043250453,0.17943494804176482,-0.11834934898612934,-0.47049416366717495,-0.4747826810051216,-0.4182869043083201,-0.3570244055300952,-0.13963373066308188,-0.31585874198828506,0.12473118279569892,0.5193548387096775,0.47956989247311826,0.7338709677419355,0.2854838709677419,0.18010752688172044,0.2768817204301075,0.09301075268817205
353806,0.9517278665825487,-0.21911321043250453,0.17943494804176482,-0.11834934898612934,-0.47049416366717495,-0.4747826810051216,-0.4182869043083201,-0.3570244055300952,-0.13963373066308188,-0.31585874198828506,0.13655913978494624,0.6693548387096774,0.5365591397849462,0.7505376344086021,0.3435483870967742,0.24623655913978496,0.38225806451612904,0.12419354838709677
355593,0.9233968771746606,-0.20147233132032355,0.27906974554726505,-0.16990345510501945,-0.32709362316945295,-0.5025238760616741,-0.4281350808065428,-0.43427515490086555,-0.1445909229428355,-0.2827180301229541,0.13655913978494624,0.6693548387096774,0.5365591397849462,0.7505376344086021,0.3435483870967742,0.24623655913978496,0.38225806451612904,0.12419354838709677
368064,0.9233968771746606,-0.20147233132032355,0.27906974554726505,-0.16990345510501945,-0.32709362316945295,-0.5025238760616741,-0.4281350808065428,-0.43427515490086555,-0.1445909229428355,-0.2827180301229541,0.1596774193548387,0.7860215053763441,0.6236559139784946,0.7806451612903226,0.37473118279569895,0.27419354838709675,0.4962365591397849,0.21559139784946235
392103,0.9106360609209074,-0.1443030577617666,0.33341048507470905,-0.196865539171549,-0.2731098026698835,-0.4849606924646084,-0.5720977809205533,-0.3932305656328015,-0.26818866230771443,-0.3287863686312205,0.1596774193548387,0.7860215053763441,0.6236559139784946,0.7806451612903226,0.37473118279569895,0.27419354838709675,0.4962365591397849,0.21559139784946235
392861,0.9106360609209074,-0.1443030577617666,0.33341048507470905,-0.196865539171549,-0.2731098026698835,-0.4849606924646084,-0.5720977809205533,-0.3932305656328015,-0.26818866230771443,-0.3287863686312205,0.2510752688172043,0.7763440860215054,0.7741935483870968,0.7940860215053763,0.40913978494623654,0.3263440860215054,0.5516129032258065,0.34516129032258064
394601,0.8704188751617701,-0.12045959082528856,0.4088432136115232,-0.24638931678164402,-0.68232774932053,-0.35933834658177655,-0.466799898139267,-0.4685381642455509,-0.18001635958233797,-0.3046740157095207,0.2510752688172043,0.7763440860215054,0.7741935483870968,0.7940860215053763,0.40913978494623654,0.3263440860215054,0.5516129032258065,0.34516129032258064
414224,0.8704188751617701,-0.12045959082528856,0.4088432136115232,-0.24638931678164402,-0.68232774932053,-0.35933834658177655,-0.466799898139267,-0.4685381642455509,-0.18001635958233797,-0.3046740157095207,0.4698924731182796,0.7973118279569893,0.8338709677419355,0.8150537634408602,0.5198924731182796,0.432258064516129,0.6580645161290323,0.5053763440860215
415982,0.8568722618096235,-0.0910158313864104,0.40086679547641224,-0.311113898215385,-0.8211469384310093,-0.17062067357232572,-0.18792628441064224,-0.7702482674809932,-0.2828541963120299,-0.3366563465792581,0.4698924731182796,0.7973118279569893,0.8338709677419355,0.8150537634408602,0.5198924731182796,0.432258064516129,0.6580645161290323,0.5053763440860215
428460,0.8568722618096235,-0.0910158313864104,0.40086679547641224,-0.311113898215385,-0.8211469384310093,-0.17062067357232572,-0.18792628441064224,-0.7702482674809932,-0.2828541963120299,-0.3366563465792581,0.5473118279569893,0.8446236559139785,0.867741935483871,0.7903225806451613,0.5908602150537634,0.5483870967741935,0.7129032258064516,0.553763440860215
436515,0.8567681490560004,-0.05015255086154646,0.41089290638763426,-0.30757125984974276,-0.6829368095832907,-0.30276209739247284,-0.34384818646975057,-0.5230111472534181,-0.42626101414192613,-0.49634147627432135,0.5473118279569893,0.8446236559139785,0.867741935483871,0.7903225806451613,0.5908602150537634,0.5483870967741935,0.7129032258064516,0.553763440860215
451322,0.8567681490560004,-0.05015255086154646,0.41089290638763426,-0.30757125984974276,-0.6829368095832907,-0.30276209739247284,-0.34384818646975057,-0.5230111472534181,-0.42626101414192613,-0.49634147627432135,0.7172043010752688,0.7806451612903226,0.9096774193548387,0.8881720430107527,0.5962365591397849,0.6263440860215054,0.8043010752688172,0.5973118279569892
453029,0.8699775348067156,-0.09793092396377306,0.3919745198069547,-0.28267401522838814,-0.5361835805981415,-0.4352009441143192,-0.45716059078664195,-0.7154057093600652,-0.5760873180519719,-0.7935966675304873,0.7172043010752688,0.7806451612903226,0.9096774193548387,0.8881720430107527,0.5962365591397849,0.6263440860215054,0.8043010752688172,0.5973118279569892
474265,0.8699775348067156,-0.09793092396377306,0.3919745198069547,-0.28267401522838814,-0.5361835805981415,-0.4352009441143192,-0.45716059078664195,-0.7154057093600652,-0.5760873180519719,-0.7935966675304873,0.7440860215053764,0.7161290322580646,0.9075268817204301,0.867741935483871,0.613978494623656,0.6827956989247311,0.8467741935483871,0.6446236559139785
476006,0.8884664161717403,-0.13178543295718748,0.3622354968335559,-0.24908928485380075,-0.47015962255448984,-0.44943272367876547,-0.48366915122652,-0.7068475179179041,-0.6142088697191529,-0.8067346821578549,0.7440860215053764,0.7161290322580646,0.9075268817204301,0.867741935483871,0.613978494623656,0.6827956989247311,0.8467741935483871,0.6446236559139785
488097,0.8884664161717403,-0.13178543295718748,0.3622354968335559,-0.24908928485380075,-0.47015962255448984,-0.44943272367876547,-0.48366915122652,-0.7068475179179041,-0.6142088697191529,-0.8067346821578549,0.7704301075268817,0.7602150537634409,0.821505376344086,0.7440860215053764,0.593010752688172,0.6865591397849462,0.8913978494623656,0.6134408602150537
495076,0.9050838066819922,-0.1551462364336667,0.315099042516557,-0.23971971468290215,-0.5013422597991346,-0.45931273044638093,-0.4628275876001271,-0.8006150884250888,-0.5678600782176736,-0.7173668492883098,0.7704301075268817,0.7602150537634409,0.821505376344086,0.7440860215053764,0.593010752688172,0.6865591397849462,0.8913978494623656,0.6134408602150537
511275,0.9050838066819922,-0.1551462364336667,0.315099042516557,-0.23971971468290215,-0.5013422597991346,-0.45931273044638093,-0.4628275876001271,-0.8006150884250888,-0.5678600782176736,-0.7173668492883098,0.6618279569892473,0.6672043010752688,0.7720430107526882,0.6704301075268817,0.48118279569892475,0.6876344086021505,0.860752688172043,0.5672043010752689
513009,0.918328291129759,-0.16448510779816355,0.25344311439763056,-0.255703708983176,-0.45585154561322294,-0.4358548509021384,-0.44237631954926104,-0.8848604529823182,-0.5270998066901145,-0.6312155848722074,0.6618279569892473,0.6672043010752688,0.7720430107526882,0.6704301075268817,0.48118279569892475,0.6876344086021505,0.860752688172043,0.5672043010752689
533793,0.918328291129759,-0.16448510779816355,0.25344311439763056,-0.255703708983176,-0.45585154561322294,-0.4358548509021384,-0.44237631954926104,-0.8848604529823182,-0.5270998066901145,-0.6312155848722074,0.5973118279569892,0.567741935483871,0.7290322580645161,0.6220430107526882,0.3263440860215054,0.6172043010752688,0.946236559139785,0.524731182795699
535550,0.939069776352762,-0.17948168717196067,0.15802994455528732,-0.24690244173465103,-0.4774519850142762,-0.4657179316420046,-0.48722099095362226,-0.9464389621616629,-0.638827804619919,-0.7484070228772942,0.5973118279569892,0.567741935483871,0.7290322580645161,0.6220430107526882,0.3263440860215054,0.6172043010752688,0.946236559139785,0.524731182795699
547409,0.939069776352762,-0.17948168717196067,0.15802994455528732,-0.24690244173465103,-0.4774519850142762,-0.4657179316420046,-0.48722099095362226,-0.9464389621616629,-0.638827804619919,-0.7484070228772942,0.3758064516129032,0.49731182795698925,0.6833333333333333,0.478494623655914,0.2446236559139785,0.5376344086021505,0.9435483870967742,0.49032258064516127
556534,0.9544488334382137,-0.19010731241731077,0.06941149077411482,-0.21924570477529337,-0.5059513261826332,-0.43064260802294696,-0.4346342224655747,-0.8843606374182662,-0.6718575119868869,-0.7969492691928327,0.3758064516129032,0.49731182795698925,0.6833333333333333,0.478494623655914,0.2446236559139785,0.5376344086021505,0.9435483870967742,0.49032258064516127
571291,0.9544488334382137,-0.19010731241731077,0.06941149077411482,-0.21924570477529337,-0.5059513261826332,-0.43064260802294696,-0.4346342224655747,-0.8843606374182662,-0.6718575119868869,-0.7969492691928327,0.3096774193548387,0.41021505376344086,0.6801075268817204,0.44516129032258067,0.28763440860215056,0.4989247311827957,0.9553763440860215,0.38924731182795697
572978,0.9583234130556283,-0.207983490571266,0.0027745212289208565,-0.1958351492228968,-0.5570190520739114,-0.45171724708216104,-0.46510707814804925,-0.8504904254931381,-0.6203703117573427,-0.7685958440921857,0.3096774193548387,0.41021505376344086,0.6801075268817204,0.44516129032258067,0.28763440860215056,0.4989247311827957,0.9553763440860215,0.38924731182795697
593874,0.9583234130556283,-0.207983490571266,0.0027745212289208565,-0.1958351492228968,-0.5570190520739114,-0.45171724708216104,-0.46510707814804925,-0.8504904254931381,-0.6203703117573427,-0.7685958440921857,0.1424731182795699,0.19623655913978494,0.6478494623655914,0.4505376344086022,0.3650537634408602,0.49946236559139784,1,0.35376344086021505
595551,0.9575132511706699,-0.22310356074610088,-0.04445879163143587,-0.17724725910901207,-0.5589237077918005,-0.4586580366815409,-0.4755028268662871,-0.7957815216138424,-0.5756150363035106,-0.7264683369824829,0.1424731182795699,0.19623655913978494,0.6478494623655914,0.4505376344086022,0.3650537634408602,0.49946236559139784,1,0.35376344086021505
616281,0.9575132511706699,-0.22310356074610088,-0.04445879163143587,-0.17724725910901207,-0.5589237077918005,-0.4586580366815409,-0.4755028268662871,-0.7957815216138424,-0.5756150363035106,-0.7264683369824829,0.12150537634408602,0.1403225806451613,0.6059139784946237,0.5838709677419355,0.3758064516129032,0.42795698924731185,0.9978494623655914,0.2086021505376344
618030,0.9578889270561118,-0.2278600688349317,-0.053593081610061474,-0.16630205668412038,-0.5261871620885061,-0.4342306489138843,-0.4759470896220507,-0.668695061425826,-0.4929092538343904,-0.6320582734467064,0.12150537634408602,0.1403225806451613,0.6059139784946237,0.5838709677419355,0.3758064516129032,0.42795698924731185,0.9978494623655914,0.2086021505376344
631252,0.9578889270561118,-0.2278600688349317,-0.053593081610061474,-0.16630205668412038,-0.5261871620885061,-0.4342306489138843,-0.4759470896220507,-0.668695061425826,-0.4929092538343904,-0.6320582734467064,0.1086021505376344,0.2629032258064516,0.5548387096774193,0.6241935483870967,0.3758064516129032,0.4080645161290323,0.8801075268817204,0.35
632997,0.9604787629547968,-0.22910602772528862,-0.03289026372134371,-0.1546260150333798,-0.5232477024664469,-0.4537333818348,-0.5182431185167328,-0.54670094834646,-0.44493234016164585,-0.6077648109296606,0.1086021505376344,0.2629032258064516,0.5548387096774193,0.6241935483870967,0.3758064516129032,0.4080645161290323,0.8801075268817204,0.35
653802,0.9604787629547968,-0.22910602772528862,-0.03289026372134371,-0.1546260150333798,-0.5232477024664469,-0.4537333818348,-0.5182431185167328,-0.54670094834646,-0.44493234016164585,-0.6077648109296606,0.10161290322580645,0.36612903225806454,0.5010752688172043,0.6408602150537634,0.38064516129032255,0.3978494623655914,0.8435483870967742,0.5112903225806451
655567,0.9679525819830401,-0.23073646592065852,0.007268982908026911,-0.09887185754446824,-0.514267175398025,-0.4736881167985987,-0.5247506282869471,-0.4150969858307446,-0.5171370023266231,-0.7489473136059246,0.10161290322580645,0.36612903225806454,0.5010752688172043,0.6408602150537634,0.38064516129032255,0.3978494623655914,0.8435483870967742,0.5112903225806451
676249,0.9679525819830401,-0.23073646592065852,0.007268982908026911,-0.09887185754446824,-0.514267175398025,-0.4736881167985987,-0.5247506282869471,-0.4150969858307446,-0.5171370023266231,-0.7489473136059246,0.12365591397849462,0.5317204301075269,0.5274193548387097,0.6661290322580645,0.4397849462365591,0.3564516129032258,0.8704301075268818,0.6537634408602151
678023,0.9699355657559514,-0.22348860554396194,0.07521069582094277,-0.060176346747103496,-0.6402895154834091,-0.43256595538481624,-0.4008519109316456,-0.34770783676663797,-0.429420387451512,-0.6504730801257942,0.12365591397849462,0.5317204301075269,0.5274193548387097,0.6661290322580645,0.4397849462365591,0.3564516129032258,0.8704301075268818,0.6537634408602151
691280,0.9699355657559514,-0.22348860554396194,0.07521069582094277,-0.060176346747103496,-0.6402895154834091,-0.43256595538481624,-0.4008519109316456,-0.34770783676663797,-0.429420387451512,-0.6504730801257942,0.14731182795698924,0.703763440860215,0.6086021505376344,0.7344086021505376,0.553763440860215,0.3913978494623656,0.7709677419354839,0.689247311827957
693004,0.9516855757767158,-0.24202837501476174,0.17349552046478808,-0.07494087619521887,-0.563382023332639,-0.3926931998241189,-0.336585423237702,-0.4765014150693895,-0.24565883853625248,-0.47156372813166025,0.14731182795698924,0.703763440860215,0.6086021505376344,0.7344086021505376,0.553763440860215,0.3913978494623656,0.7709677419354839,0.689247311827957
713806,0.9516855757767158,-0.24202837501476174,0.17349552046478808,-0.07494087619521887,-0.563382023332639,-0.3926931998241189,-0.336585423237702,-0.4765014150693895,-0.24565883853625248,-0.47156372813166025,0.15161290322580645,0.8139784946236559,0.6731182795698925,0.7376344086021506,0.6725806451612903,0.3725806451612903,0.7274193548387097,0.6919354838709677
715554,0.9186457293377478,-0.24207286363413782,0.2874121008349949,-0.12200424974196683,-0.44418904925901226,-0.44621695559809166,-0.4142326824744089,-0.4638821934988998,-0.1307157790428877,-0.3153497589509902,0.15161290322580645,0.8139784946236559,0.6731182795698925,0.7376344086021506,0.6725806451612903,0.3725806451612903,0.7274193548387097,0.6919354838709677
736273,0.9186457293377478,-0.24207286363413782,0.2874121008349949,-0.12200424974196683,-0.44418904925901226,-0.44621695559809166,-0.4142326824744089,-0.4638821934988998,-0.1307157790428877,-0.3153497589509902,0.14623655913978495,0.8387096774193549,0.7591397849462366,0.7526881720430108,0.7102150537634409,0.3951612903225806,0.7704301075268817,0.6311827956989248
737983,0.8849379609962709,-0.20283396288388272,0.38734447731771965,-0.1603354127447996,-0.35352632767795317,-0.45962266476851815,-0.43077891575374333,-0.36928142939058645,-0.15175901690670507,-0.2736745428986716,0.14623655913978495,0.8387096774193549,0.7591397849462366,0.7526881720430108,0.7102150537634409,0.3951612903225806,0.7704301075268817,0.6311827956989248
758761,0.8849379609962709,-0.20283396288388272,0.38734447731771965,-0.1603354127447996,-0.35352632767795317,-0.45962266476851815,-0.43077891575374333,-0.36928142939058645,-0.15175901690670507,-0.2736745428986716,0.20806451612903226,0.8569892473118279,0.8440860215053764,0.7618279569892473,0.7548387096774194,0.41935483870967744,0.736021505376344,0.5172043010752688
760499,0.8846684802654389,-0.16419664993215333,0.4098969421137638,-0.14961830443392474,-0.1979643118758031,-0.4726142519425777,-0.5050969745653415,-0.44079745294199646,-0.4124807059991322,-0.5043223663382628,0.20806451612903226,0.8569892473118279,0.8440860215053764,0.7618279569892473,0.7548387096774194,0.41935483870967744,0.736021505376344,0.5172043010752688
773750,0.8846684802654389,-0.16419664993215333,0.4098969421137638,-0.14961830443392474,-0.1979643118758031,-0.4726142519425777,-0.5050969745653415,-0.44079745294199646,-0.4124807059991322,-0.5043223663382628,0.3365591397849462,0.8279569892473119,0.8311827956989247,0.7973118279569893,0.7166666666666667,0.4064516129032258,0.6317204301075269,0.5037634408602151
775501,0.853618142511559,-0.17755200612705674,0.46276353193128894,-0.16019133999643215,-0.8589991268594197,-0.3074543677900998,-0.3018415564230022,-0.5345500637053185,-0.33822064281860287,-0.5395264290417762,0.3365591397849462,0.8279569892473119,0.8311827956989247,0.7973118279569893,0.7166666666666667,0.4064516129032258,0.6317204301075269,0.5037634408602151
796299,0.853618142511559,-0.17755200612705674,0.46276353193128894,-0.16019133999643215,-0.8589991268594197,-0.3074543677900998,-0.3018415564230022,-0.5345500637053185,-0.33822064281860287,-0.5395264290417762,0.4854838709677419,0.7397849462365591,0.774731182795699,0.7817204301075269,0.603225806451613,0.4311827956989247,0.6591397849462366,0.5559139784946237
798029,0.8487153752769667,-0.17695811344730344,0.46935744990291134,-0.1675458805052667,-0.8702107875344053,-0.24962642299194063,-0.3021700866974482,-0.6291285464279399,-0.4246924586697386,-0.5630097192443263,0.4854838709677419,0.7397849462365591,0.774731182795699,0.7817204301075269,0.603225806451613,0.4311827956989247,0.6591397849462366,0.5559139784946237
809940,0.8460111601841468,-0.13245402471213252,0.47934802871170756,-0.19221476413541144,-0.7672466106243931,-0.4211619678072126,-0.4011387397656416,-0.5829127104712992,-0.34090545782079723,-0.39742207631917026,0.4854838709677419,0.7397849462365591,0.774731182795699,0.7817204301075269,0.603225806451613,0.4311827956989247,0.6591397849462366,0.5559139784946237
818137,0.8460111601841468,-0.13245402471213252,0.47934802871170756,-0.19221476413541144,-0.7672466106243931,-0.4211619678072126,-0.4011387397656416,-0.5829127104712992,-0.34090545782079723,-0.39742207631917026,0.5919354838709677,0.6661290322580645,0.7569892473118279,0.8075268817204301,0.4774193548387097,0.4790322580645161,0.7327956989247312,0.671505376344086
833790,0.849981869706091,-0.13051289928975401,0.4573184111766353,-0.22662099436900884,-0.47811526011103905,-0.4222209817523251,-0.44682121885319925,-0.7897032260911918,-0.4007985868381312,-0.5037766100545692,0.5919354838709677,0.6661290322580645,0.7569892473118279,0.8075268817204301,0.4774193548387097,0.4790322580645161,0.7327956989247312,0.671505376344086
834586,0.849981869706091,-0.13051289928975401,0.4573184111766353,-0.22662099436900884,-0.47811526011103905,-0.4222209817523251,-0.44682121885319925,-0.7897032260911918,-0.4007985868381312,-0.5037766100545692,0.7516129032258064,0.6397849462365591,0.6408602150537634,0.7908602150537635,0.47580645161290325,0.4774193548387097,0.7956989247311828,0.7032258064516129
856267,0.8718092927631818,-0.13456197222344757,0.4113849889852785,-0.22935567034778004,-0.4819504304472385,-0.40925907591505395,-0.4370032412692939,-0.7890589228460325,-0.5284032822048356,-0.6342289900107719,0.7516129032258064,0.6397849462365591,0.6408602150537634,0.7908602150537635,0.47580645161290325,0.4774193548387097,0.7956989247311828,0.7032258064516129
857067,0.8718092927631818,-0.13456197222344757,0.4113849889852785,-0.22935567034778004,-0.4819504304472385,-0.40925907591505395,-0.4370032412692939,-0.7890589228460325,-0.5284032822048356,-0.6342289900107719,0.7677419354838709,0.6279569892473118,0.6446236559139785,0.7182795698924731,0.4096774193548387,0.44516129032258067,0.8102150537634408,0.7155913978494624
870605,0.8894113937588526,-0.1415014468820655,0.367721461838065,-0.23174477272614746,-0.47755724974517527,-0.4543716366736325,-0.47172788846347424,-0.7873335444964196,-0.5346661256619611,-0.6516397674805481,0.7677419354838709,0.6279569892473118,0.6446236559139785,0.7182795698924731,0.4096774193548387,0.44516129032258067,0.8102150537634408,0.7155913978494624
871399,0.8894113937588526,-0.1415014468820655,0.367721461838065,-0.23174477272614746,-0.47755724974517527,-0.4543716366736325,-0.47172788846347424,-0.7873335444964196,-0.5346661256619611,-0.6516397674805481,0.7430107526881721,0.5854838709677419,0.6403225806451613,0.6682795698924732,0.3263440860215054,0.478494623655914,0.7838709677419354,0.717741935483871
893813,0.9061737968872186,-0.1452943894443674,0.3042305733174161,-0.25530834003210134,-0.46284826047379435,-0.4692760066888062,-0.46905151186545146,-0.900641978372674,-0.5116359266048222,-0.6003193816198782,0.7430107526881721,0.5854838709677419,0.6403225806451613,0.6682795698924732,0.3263440860215054,0.478494623655914,0.7838709677419354,0.717741935483871
894600,0.9061737968872186,-0.1452943894443674,0.3042305733174161,-0.25530834003210134,-0.46284826047379435,-0.4692760066888062,-0.46905151186545146,-0.900641978372674,-0.5116359266048222,-0.6003193816198782,0.660752688172043,0.5548387096774193,0.6688172043010753,0.613978494623656,0.3064516129032258,0.41021505376344086,0.771505376344086,0.6956989247311828
916316,0.9269368633013746,-0.14952476946762172,0.21154521502286902,-0.271438790097494,-0.46650111683839135,-0.465752150029528,-0.49648021378728063,-0.9775106465435643,-0.5751697635520767,-0.6530133164964171,0.660752688172043,0.5548387096774193,0.6688172043010753,0.613978494623656,0.3064516129032258,0.41021505376344086,0.771505376344086,0.6956989247311828
917079,0.9269368633013746,-0.14952476946762172,0.21154521502286902,-0.271438790097494,-0.46650111683839135,-0.465752150029528,-0.49648021378728063,-0.9775106465435643,-0.5751697635520767,-0.6530133164964171,0.571505376344086,0.49946236559139784,0.6521505376344086,0.5258064516129032,0.2887096774193548,0.4306451612903226,0.7801075268817205,0.6021505376344086
929970,0.9432618784727624,-0.1676606140304608,0.11662045686543628,-0.2618140870225696,-0.49147219293810357,-0.41439726171525504,-0.4472112648328399,-0.9663075355509275,-0.6311241204748888,-0.7476099672794756,0.571505376344086,0.49946236559139784,0.6521505376344086,0.5258064516129032,0.2887096774193548,0.4306451612903226,0.7801075268817205,0.6021505376344086
938084,0.9432618784727624,-0.1676606140304608,0.11662045686543628,-0.2618140870225696,-0.49147219293810357,-0.41439726171525504,-0.4472112648328399,-0.9663075355509275,-0.6311241204748888,-0.7476099672794756,0.33763440860215055,0.45268817204301076,0.646236559139785,0.5951612903225807,0.23655913978494625,0.41935483870967744,0.6903225806451613,0.5811827956989247
953746,0.9498654768202452,-0.19485356520532993,0.03519439806725516,-0.2419690443352292,-0.5082749390877936,-0.4262523736186057,-0.4559098128845337,-0.9320208762453867,-0.6285527554464202,-0.7781919035492597,0.33763440860215055,0.45268817204301076,0.646236559139785,0.5951612903225807,0.23655913978494625,0.41935483870967744,0.6903225806451613,0.5811827956989247
954572,0.9498654768202452,-0.19485356520532993,0.03519439806725516,-0.2419690443352292,-0.5082749390877936,-0.4262523736186057,-0.4559098128845337,-0.9320208762453867,-0.6285527554464202,-0.7781919035492597,0.2623655913978495,0.35,0.5709677419354838,0.6887096774193548,0.3247311827956989,0.43709677419354837,0.6725806451612903,0.55
975386,0.9516158928987812,-0.21592874409646493,-0.031169855275289676,-0.21640335019933596,-0.5051194437551587,-0.43078633800070426,-0.44861531855128634,-0.8643988913503385,-0.6180003145367401,-0.7736428485146281,0.2623655913978495,0.35,0.5709677419354838,0.6887096774193548,0.3247311827956989,0.43709677419354837,0.6725806451612903,0.55
983049,0.9516158928987812,-0.21592874409646493,-0.031169855275289676,-0.21640335019933596,-0.5051194437551587,-0.43078633800070426,-0.44861531855128634,-0.8643988913503385,-0.6180003145367401,-0.7736428485146281,0.19086021505376344,0.27741935483870966,0.5532258064516129,0.7295698924731183,0.3870967741935484,0.44516129032258067,0.760752688172043,0.38870967741935486
990024,0.952035593918768,-0.22588036437197517,-0.08682678223245768,-0.18726291354691588,-0.5426333471369598,-0.3753118839042408,-0.4009177635042305,-0.7944469993438898,-0.6131398298268033,-0.7634907592578992,0.19086021505376344,0.27741935483870966,0.5532258064516129,0.7295698924731183,0.3870967741935484,0.44516129032258067,0.760752688172043,0.38870967741935486
1005559,0.952035593918768,-0.22588036437197517,-0.08682678223245768,-0.18726291354691588,-0.5426333471369598,-0.3753118839042408,-0.4009177635042305,-0.7944469993438898,-0.6131398298268033,-0.7634907592578992,0.1553763440860215,0.2053763440860215,0.5403225806451613,0.7978494623655914,0.4720430107526882,0.43870967741935485,0.7618279569892473,0.2870967741935484
1012549,0.9553401329290272,-0.2299347701425975,-0.09635185382461249,-0.1586554510856149,-0.5528660356058134,-0.3830604241743305,-0.42500149496850254,-0.6298224517369584,-0.5369497662162088,-0.706255838904918,0.1553763440860215,0.2053763440860215,0.5403225806451613,0.7978494623655914,0.4720430107526882,0.43870967741935485,0.7618279569892473,0.2870967741935484
1020526,0.9553401329290272,-0.2299347701425975,-0.09635185382461249,-0.1586554510856149,-0.5528660356058134,-0.3830604241743305,-0.42500149496850254,-0.6298224517369584,-0.5369497662162088,-0.706255838904918,0.13333333333333333,0.2629032258064516,0.610752688172043,0.8327956989247312,0.5209677419354839,0.3672043010752688,0.6655913978494624,0.3333333333333333
1036301,0.9638995615883428,-0.23184475159853327,-0.061609844139262876,-0.11554165236463763,-0.5621105705064837,-0.4320553164220892,-0.47521005060915544,-0.4658555110185659,-0.497584402416809,-0.7134339131682252,0.13333333333333333,0.2629032258064516,0.610752688172043,0.8327956989247312,0.5209677419354839,0.3672043010752688,0.6655913978494624,0.3333333333333333
1037065,0.9638995615883428,-0.23184475159853327,-0.061609844139262876,-0.11554165236463763,-0.5621105705064837,-0.4320553164220892,-0.47521005060915544,-0.4658555110185659,-0.497584402416809,-0.7134339131682252,0.18978494623655914,0.30053763440860215,0.7016129032258065,0.8198924731182796,0.5639784946236559,0.3338709677419355,0.6989247311827957,0.4913978494623656
1050497,0.9735427498746971,-0.22338338078318684,0.00715695036809251,-0.04757265409576375,-0.5574677437729613,-0.4648861890301855,-0.4874107969933622,-0.2979201978544051,-0.5035629044844399,-0.7647856579782252,0.18978494623655914,0.30053763440860215,0.7016129032258065,0.8198924731182796,0.5639784946236559,0.3338709677419355,0.6989247311827957,0.4913978494623656
1058051,0.9735427498746971,-0.22338338078318684,0.00715695036809251,-0.04757265409576375,-0.5574677437729613,-0.4648861890301855,-0.4874107969933622,-0.2979201978544051,-0.5035629044844399,-0.7647856579782252,0.30752688172043013,0.47634408602150535,0.6908602150537635,0.8139784946236559,0.5913978494623656,0.3564516129032258,0.803763440860215,0.6698924731182796
1072472,0.968747299066888,-0.22071167182378046,0.10510586688416562,-0.042045037969890606,-0.7496283981649966,-0.3407566962711227,-0.2186910676710667,-0.3616547861015158,-0.29744811598917564,-0.5153487683543578,0.30752688172043013,0.47634408602150535,0.6908602150537635,0.8139784946236559,0.5913978494623656,0.3564516129032258,0.803763440860215,0.6698924731182796
1080576,0.968747299066888,-0.22071167182378046,0.10510586688416562,-0.042045037969890606,-0.7496283981649966,-0.3407566962711227,-0.2186910676710667,-0.3616547861015158,-0.29744811598917564,-0.5153487683543578,0.3827956989247312,0.6236559139784946,0.7688172043010753,0.8354838709677419,0.7204301075268817,0.4666666666666667,0.7887096774193548,0.7790322580645161
1096361,0.9403530519845221,-0.2504985967610194,0.21611876154971393,-0.07924185478882172,-0.44646956078176236,-0.46594764794006993,-0.42322859006595503,-0.541740658930113,-0.17179460751626693,-0.4067099455735608,0.3827956989247312,0.6236559139784946,0.7688172043010753,0.8354838709677419,0.7204301075268817,0.4666666666666667,0.7887096774193548,0.7790322580645161
1097088,0.9403530519845221,-0.2504985967610194,0.21611876154971393,-0.07924185478882172,-0.44646956078176236,-0.46594764794006993,-0.42322859006595503,-0.541740658930113,-0.17179460751626693,-0.4067099455735608,0.4311827956989247,0.7327956989247312,0.8317204301075268,0.8048387096774193,0.789247311827957,0.6150537634408603,0.7720430107526882,0.7919354838709678
1109963,0.9057940186141185,-0.22251347093874785,0.33957186596386696,-0.12130910493237862,-0.39485277727956963,-0.49027737027062424,-0.44500724495047655,-0.3501268198736974,-0.11054294698827843,-0.26711100702337504,0.4311827956989247,0.7327956989247312,0.8317204301075268,0.8048387096774193,0.789247311827957,0.6150537634408603,0.7720430107526882,0.7919354838709678
1118041,0.9057940186141185,-0.22251347093874785,0.33957186596386696,-0.12130910493237862,-0.39485277727956963,-0.49027737027062424,-0.44500724495047655,-0.3501268198736974,-0.11054294698827843,-0.26711100702337504,0.43709677419354837,0.8,0.8021505376344086,0.7849462365591398,0.8139784946236559,0.660752688172043,0.7731182795698924,0.7661290322580645
