Timestamp, Orientation x, Orientation y, Orientation z, Orientation w, Acceleration x, Acceleration y, Acceleration z, Rotation x, Rotation y, Rotation z, EMG 0, EMG 1, EMG 2, EMG 3, EMG 4, EMG 5, EMG 6, EMG 7
0,0.8075610857157687,-0.5886748783491753,-0.034633444100272706,0.010368461212044128,0.320014374040021,0.17580810863791704,0.4132937534647787,0.19122605213080643,0.09011755461551507,0.25563104481886967,0,0,0,0,0,0,0,0
7520,0.8253349683699465,-0.5635122320146199,-0.03503177367786355,0.006994940218711734,0.32743889113238195,0.17543824039860226,0.42206817824477993,0.18746731795782706,0.11368729109079916,0.24431887193635876,0,0,0,0,0,0,0,0
29956,0.8433074150765456,-0.5361419054854704,-0.03676065112480961,0.005754597136537767,0.3340135136787601,0.1742788203611569,0.42978380643206193,0.18796094871785676,0.13162515374287398,0.24006471021154557,0,0,0,0,0,0,0,0
44996,0.8616192238841969,-0.506080029868728,-0.038370611896772176,0.004797139140025719,0.3387155951854566,0.165244365529921,0.4378214378623353,0.1896227480186488,0.1427270694060167,0.2376841049866645,0,0,0,0,0,0,0,0
68843,0.8804366591971409,-0.47264933472561876,-0.037767400276394275,0.0027420797891488935,0.3446194477166127,0.15766975677048695,0.4465342619787729,0.1888072790348823,0.14879668640244076,0.23246064538766598,0,0,0,0,0,0,0,0
69612,0.8804366591971409,-0.47264933472561876,-0.037767400276394275,0.0027420797891488935,0.3446194477166127,0.15766975677048695,0.4465342619787729,0.1888072790348823,0.14879668640244076,0.23246064538766598,0.04142011834319527,0.09298393913778528,0.09382924767540152,0.08284023668639054,0.03296703296703297,0.05325443786982249,0.027895181741335588,0.04142011834319527
91339,0.898548831387163,-0.43742765613594337,-0.03559353607382397,-0.0003787478582619186,0.3516324269554739,0.15816822319539886,0.45345125523141955,0.1875870493780778,0.14783033850879507,0.22980230061277312,0.04142011834319527,0.09298393913778528,0.09382924767540152,0.08284023668639054,0.03296703296703297,0.05325443786982249,0.027895181741335588,0.04142011834319527
92126,0.898548831387163,-0.43742765613594337,-0.03559353607382397,-0.0003787478582619186,0.3516324269554739,0.15816822319539886,0.45345125523141955,0.1875870493780778,0.14783033850879507,0.22980230061277312,0.037193575655114115,0.08960270498732037,0.09636517328825021,0.07438715131022823,0.03296703296703297,0.055790363482671176,0.024513947590870666,0.03888419273034658
104962,0.9159943065580791,-0.39986699186818797,-0.0319214077628134,-0.006468608344187582,0.3522846747388928,0.15780073156240998,0.4536747170185224,0.18647646285532718,0.1422431689711423,0.22933079744831325,0.037193575655114115,0.08960270498732037,0.09636517328825021,0.07438715131022823,0.03296703296703297,0.055790363482671176,0.024513947590870666,0.03888419273034658
113154,0.9159943065580791,-0.39986699186818797,-0.0319214077628134,-0.006468608344187582,0.3522846747388928,0.15780073156240998,0.4536747170185224,0.18647646285532718,0.1422431689711423,0.22933079744831325,0.03888419273034658,0.09467455621301775,0.12510566356720204,0.19273034657650043,0.049873203719357564,0.1530008453085376,0.0338123415046492,0.05325443786982249
128810,0.9319890918559895,-0.3610816188903883,-0.028556569607408676,-0.014174607338517803,0.35099554679432965,0.1521127605584882,0.45321818671348413,0.19207604649373144,0.14101581467705188,0.2351243996788769,0.03888419273034658,0.09467455621301775,0.12510566356720204,0.19273034657650043,0.049873203719357564,0.1530008453085376,0.0338123415046492,0.05325443786982249
129679,0.9319890918559895,-0.3610816188903883,-0.028556569607408676,-0.014174607338517803,0.35099554679432965,0.1521127605584882,0.45321818671348413,0.19207604649373144,0.14101581467705188,0.2351243996788769,0.03550295857988166,0.09636517328825021,0.15722738799661876,0.22823330515638207,0.07438715131022823,0.18681318681318682,0.04902789518174133,0.0650887573964497
151314,0.9464306175722821,-0.3212341977990957,-0.024325723116847706,-0.022043944314991903,0.3512694586255037,0.14289359722526015,0.4554619871475798,0.19089172146188715,0.1410576756884225,0.23296942628325076,0.03550295857988166,0.09636517328825021,0.15722738799661876,0.22823330515638207,0.07438715131022823,0.18681318681318682,0.04902789518174133,0.0650887573964497
152135,0.9464306175722821,-0.3212341977990957,-0.024325723116847706,-0.022043944314991903,0.3512694586255037,0.14289359722526015,0.4554619871475798,0.19089172146188715,0.1410576756884225,0.23296942628325076,0.03634826711749789,0.09213863060016907,0.1614539306846999,0.2958579881656805,0.07523245984784446,0.2172442941673711,0.052409129332206254,0.08284023668639054
164991,0.9588995364171264,-0.28146083459433785,-0.01929499699166747,-0.030317993660038622,0.3517441444366516,0.13761781134517506,0.457294253771744,0.18887120223208986,0.13665033585158798,0.23155572827399695,0.03634826711749789,0.09213863060016907,0.1614539306846999,0.2958579881656805,0.07523245984784446,0.2172442941673711,0.052409129332206254,0.08284023668639054
173110,0.9588995364171264,-0.28146083459433785,-0.01929499699166747,-0.030317993660038622,0.3517441444366516,0.13761781134517506,0.457294253771744,0.18887120223208986,0.13665033585158798,0.23155572827399695,0.03634826711749789,0.08199492814877431,0.15891800507185122,0.34065934065934067,0.07438715131022823,0.23330515638207946,0.060862214708368556,0.08537616229923922
188844,0.9694770049024237,-0.24172435639432294,-0.014394382131529031,-0.03842491710111723,0.352489601713538,0.13599026114084517,0.4585702086584545,0.1888524541181281,0.13509145456660193,0.23201947281807342,0.03634826711749789,0.08199492814877431,0.15891800507185122,0.34065934065934067,0.07438715131022823,0.23330515638207946,0.060862214708368556,0.08537616229923922
189634,0.9694770049024237,-0.24172435639432294,-0.014394382131529031,-0.03842491710111723,0.352489601713538,0.13599026114084517,0.4585702086584545,0.1888524541181281,0.13509145456660193,0.23201947281807342,0.03634826711749789,0.08284023668639054,0.1614539306846999,0.3508030431107354,0.07776838546069316,0.23499577345731193,0.0676246830092984,0.08537616229923922
211329,0.9781742577842745,-0.202281600772872,-0.010193073271699288,-0.04640448959126239,0.3519357241419039,0.12762700256312426,0.4599044687345869,0.1904963765443245,0.13331947943386574,0.2347958862715163,0.03634826711749789,0.08284023668639054,0.1614539306846999,0.3508030431107354,0.07776838546069316,0.23499577345731193,0.0676246830092984,0.08537616229923922
212110,0.9781742577842745,-0.202281600772872,-0.010193073271699288,-0.04640448959126239,0.3519357241419039,0.12762700256312426,0.4599044687345869,0.1904963765443245,0.13331947943386574,0.2347958862715163,0.034657650042265425,0.07438715131022823,0.14032121724429417,0.3026204564666103,0.06593406593406594,0.18258664412510567,0.06593406593406594,0.07692307692307693
224962,0.9849479220723134,-0.16318177764747782,-0.005597612409827528,-0.05672710978491918,0.35177167485272054,0.11864594106115744,0.46147458520750595,0.1918697092857819,0.12149982883384028,0.23875121683256334,0.034657650042265425,0.07438715131022823,0.14032121724429417,0.3026204564666103,0.06593406593406594,0.18258664412510567,0.06593406593406594,0.07692307692307693
233138,0.9849479220723134,-0.16318177764747782,-0.005597612409827528,-0.05672710978491918,0.35177167485272054,0.11864594106115744,0.46147458520750595,0.1918697092857819,0.12149982883384028,0.23875121683256334,0.03803888419273035,0.07185122569737955,0.10904480135249366,0.2882502113271344,0.044801352493660185,0.16821639898562976,0.058326289095519866,0.06846999154691462
248829,0.9897565773807558,-0.12473353885456695,-0.0011604199776696356,-0.06944145189887133,0.3515429281954247,0.10895252891499635,0.46345205001177614,0.19425421703748846,0.10875895638573593,0.2444161800337505,0.03803888419273035,0.07185122569737955,0.10904480135249366,0.2882502113271344,0.044801352493660185,0.16821639898562976,0.058326289095519866,0.06846999154691462
249592,0.9897565773807558,-0.12473353885456695,-0.0011604199776696356,-0.06944145189887133,0.3515429281954247,0.10895252891499635,0.46345205001177614,0.19425421703748846,0.10875895638573593,0.2444161800337505,0.047337278106508875,0.08030431107354184,0.11073541842772612,0.2603550295857988,0.04818258664412511,0.1496196111580727,0.055790363482671176,0.0507185122569738
271351,0.9924976789055984,-0.08904813063707884,0.0033155064278899346,-0.083712575006197,0.34831602015525265,0.10264071636188365,0.46125832603835937,0.19177303536162132,0.0900427503770895,0.2472756715254305,0.047337278106508875,0.08030431107354184,0.11073541842772612,0.2603550295857988,0.04818258664412511,0.1496196111580727,0.055790363482671176,0.0507185122569738
272111,0.9924976789055984,-0.08904813063707884,0.0033155064278899346,-0.083712575006197,0.34831602015525265,0.10264071636188365,0.46125832603835937,0.19177303536162132,0.0900427503770895,0.2472756715254305,0.04818258664412511,0.07776838546069316,0.10650887573964497,0.20794590025359255,0.04818258664412511,0.12679628064243448,0.04818258664412511,0.04142011834319527
285010,0.9933723815604648,-0.05599246142557007,0.006997416060849665,-0.10013586762428109,0.34649296393722073,0.09627686486530301,0.4609314750737058,0.1925993659004701,0.07076999094663247,0.2539799501208202,0.04818258664412511,0.07776838546069316,0.10650887573964497,0.20794590025359255,0.04818258664412511,0.12679628064243448,0.04818258664412511,0.04142011834319527
293153,0.9933723815604648,-0.05599246142557007,0.006997416060849665,-0.10013586762428109,0.34649296393722073,0.09627686486530301,0.4609314750737058,0.1925993659004701,0.07076999094663247,0.2539799501208202,0.05409974640743871,0.07185122569737955,0.09805579036348266,0.19019442096365174,0.042265426880811495,0.12341504649196956,0.03888419273034658,0.042265426880811495
308788,0.9926615624564324,-0.025193319587943908,0.009024346297511018,-0.11792743634793601,0.34403768265112206,0.08999779148655002,0.4597053558636877,0.19627117610282963,0.055339816686083704,0.2631983206886278,0.05409974640743871,0.07185122569737955,0.09805579036348266,0.19019442096365174,0.042265426880811495,0.12341504649196956,0.03888419273034658,0.042265426880811495
309623,0.9926615624564324,-0.025193319587943908,0.009024346297511018,-0.11792743634793601,0.34403768265112206,0.08999779148655002,0.4597053558636877,0.19627117610282963,0.055339816686083704,0.2631983206886278,0.057480980557903634,0.07523245984784446,0.08960270498732037,0.19357565511411665,0.04057480980557904,0.12510566356720204,0.03550295857988166,0.04649196956889264
331333,0.9905653432878064,0.0029152814388577197,0.009438881700684652,-0.1366847077162724,0.3411707151530626,0.07908825347519982,0.45910137221641967,0.1983840082965696,0.03927999884356753,0.2712654405451005,0.057480980557903634,0.07523245984784446,0.08960270498732037,0.19357565511411665,0.04057480980557904,0.12510566356720204,0.03550295857988166,0.04649196956889264
332123,0.9905653432878064,0.0029152814388577197,0.009438881700684652,-0.1366847077162724,0.3411707151530626,0.07908825347519982,0.45910137221641967,0.1983840082965696,0.03927999884356753,0.2712654405451005,0.05917159763313609,0.08453085376162299,0.08114961961115807,0.18512256973795435,0.03127641589180051,0.1014370245139476,0.03296703296703297,0.05409974640743871
344974,0.9873620135359513,0.02832357322853002,0.009152353307152139,-0.15566073318194584,0.33953535482308983,0.07156255151430446,0.4586900669264001,0.19731944202522222,0.02591285597350826,0.27497343327572527,0.05917159763313609,0.08453085376162299,0.08114961961115807,0.18512256973795435,0.03127641589180051,0.1014370245139476,0.03296703296703297,0.05409974640743871
353131,0.9873620135359513,0.02832357322853002,0.009152353307152139,-0.15566073318194584,0.33953535482308983,0.07156255151430446,0.4586900669264001,0.19731944202522222,0.02591285597350826,0.27497343327572527,0.06593406593406594,0.09636517328825021,0.07776838546069316,0.12172442941673711,0.027895181741335588,0.06339814032121724,0.037193575655114115,0.054945054945054944
368835,0.9832340295701495,0.052053795904116795,0.008102534593355137,-0.17457260483931136,0.33894909850548477,0.0625530801864852,0.46013651845237447,0.19768979874002932,0.017952417685240613,0.27851029252954856,0.06593406593406594,0.09636517328825021,0.07776838546069316,0.12172442941673711,0.027895181741335588,0.06339814032121724,0.037193575655114115,0.054945054945054944
369612,0.9832340295701495,0.052053795904116795,0.008102534593355137,-0.17457260483931136,0.33894909850548477,0.0625530801864852,0.46013651845237447,0.19768979874002932,0.017952417685240613,0.27851029252954856,0.07269653423499578,0.10650887573964497,0.09129332206255283,0.1073541842772612,0.027895181741335588,0.058326289095519866,0.03803888419273035,0.058326289095519866
391262,0.9784323154236034,0.07480417258890737,0.006683631622341583,-0.19243146563499347,0.33619537383980663,0.0516798668072595,0.46019936520656,0.19687742676948788,0.01707158106689524,0.27871875699149734,0.07269653423499578,0.10650887573964497,0.09129332206255283,0.1073541842772612,0.027895181741335588,0.058326289095519866,0.03803888419273035,0.058326289095519866
392108,0.9784323154236034,0.07480417258890737,0.006683631622341583,-0.19243146563499347,0.33619537383980663,0.0516798668072595,0.46019936520656,0.19687742676948788,0.01707158106689524,0.27871875699149734,0.06931530008453085,0.11411665257819104,0.10481825866441251,0.11158072696534235,0.03296703296703297,0.060016906170752324,0.03803888419273035,0.055790363482671176
404949,0.9729998434284913,0.09699310293407376,0.004909183786221044,-0.20937894494409998,0.33458580251801984,0.045015362689579896,0.460123718083995,0.1970692367645236,0.017544980208954175,0.27945647925933914,0.06931530008453085,0.11411665257819104,0.10481825866441251,0.11158072696534235,0.03296703296703297,0.060016906170752324,0.03803888419273035,0.055790363482671176
413110,0.9729998434284913,0.09699310293407376,0.004909183786221044,-0.20937894494409998,0.33458580251801984,0.045015362689579896,0.460123718083995,0.1970692367645236,0.017544980208954175,0.27945647925933914,0.07100591715976332,0.11073541842772612,0.10312764158918004,0.10397295012679628,0.034657650042265425,0.058326289095519866,0.03803888419273035,0.057480980557903634
428851,0.9672654771869169,0.11800315806925621,0.0031862368131810592,-0.2246388194925763,0.33288780809807406,0.043802051620491445,0.4576472770107697,0.19527439739633407,0.01738335991573728,0.2785257356328847,0.07100591715976332,0.11073541842772612,0.10312764158918004,0.10397295012679628,0.034657650042265425,0.058326289095519866,0.03803888419273035,0.057480980557903634
429658,0.9672654771869169,0.11800315806925621,0.0031862368131810592,-0.2246388194925763,0.33288780809807406,0.043802051620491445,0.4576472770107697,0.19527439739633407,0.01738335991573728,0.2785257356328847,0.07100591715976332,0.10481825866441251,0.10228233305156383,0.07945900253592561,0.034657650042265425,0.049873203719357564,0.03888419273034658,0.04818258664412511
451314,0.9615688303738015,0.1368482573371676,0.0010619728978751783,-0.23802691261893877,0.33023645309111505,0.04630658621597211,0.4534765959786887,0.19266727174180248,0.014726373685196276,0.2779427038596738,0.07100591715976332,0.10481825866441251,0.10228233305156383,0.07945900253592561,0.034657650042265425,0.049873203719357564,0.03888419273034658,0.04818258664412511
452129,0.9615688303738015,0.1368482573371676,0.0010619728978751783,-0.23802691261893877,0.33023645309111505,0.04630658621597211,0.4534765959786887,0.19266727174180248,0.014726373685196276,0.2779427038596738,0.06424344885883347,0.08875739644970414,0.09298393913778528,0.0676246830092984,0.032121724429416736,0.049873203719357564,0.03634826711749789,0.04564666103127642
465013,0.9578953180069583,0.15001097016269116,-0.0011833418348290714,-0.24480986147068962,0.3260944566140724,0.04784334929547457,0.4474280506119709,0.18713233327496728,0.009658524884735398,0.27446560629917305,0.06424344885883347,0.08875739644970414,0.09298393913778528,0.0676246830092984,0.032121724429416736,0.049873203719357564,0.03634826711749789,0.04564666103127642
473123,0.9578953180069583,0.15001097016269116,-0.0011833418348290714,-0.24480986147068962,0.3260944566140724,0.04784334929547457,0.4474280506119709,0.18713233327496728,0.009658524884735398,0.27446560629917305,0.058326289095519866,0.07776838546069316,0.07861369399830938,0.0566356720202874,0.0338123415046492,0.049873203719357564,0.03634826711749789,0.047337278106508875
488596,0.9545178018480471,0.1585655151054159,-0.003673753654291796,-0.25246632826698623,0.32369042028116246,0.048833224760077065,0.4442681329404866,0.17867102009058222,-0.01333549475277157,0.27251974008563407,0.058326289095519866,0.07776838546069316,0.07861369399830938,0.0566356720202874,0.0338123415046492,0.049873203719357564,0.03634826711749789,0.047337278106508875
489388,0.9545178018480471,0.1585655151054159,-0.003673753654291796,-0.25246632826698623,0.32369042028116246,0.048833224760077065,0.4442681329404866,0.17867102009058222,-0.01333549475277157,0.27251974008563407,0.058326289095519866,0.0650887573964497,0.057480980557903634,0.04395604395604396,0.03296703296703297,0.05156382079459002,0.04142011834319527,0.049873203719357564
511311,0.9518118425624171,0.16043603430346162,-0.007392038458097362,-0.2612658665466061,0.32523752725890864,0.05157162664595977,0.4464435328454469,0.1693094869719746,-0.04151990879892303,0.2719637266944745,0.058326289095519866,0.0650887573964497,0.057480980557903634,0.04395604395604396,0.03296703296703297,0.05156382079459002,0.04142011834319527,0.049873203719357564
512176,0.9518118425624171,0.16043603430346162,-0.007392038458097362,-0.2612658665466061,0.32523752725890864,0.05157162664595977,0.4464435328454469,0.1693094869719746,-0.04151990879892303,0.2719637266944745,0.0566356720202874,0.05917159763313609,0.05325443786982249,0.044801352493660185,0.03296703296703297,0.0566356720202874,0.04902789518174133,0.052409129332206254
525029,0.9502649266678403,0.15462996773771964,-0.010814067711107489,-0.2701281143493496,0.3254628009146091,0.05419139630393893,0.445534937387601,0.15389519951372618,-0.07640759282926039,0.2671614684109189,0.0566356720202874,0.05917159763313609,0.05325443786982249,0.044801352493660185,0.03296703296703297,0.0566356720202874,0.04902789518174133,0.052409129332206254
533112,0.9502649266678403,0.15462996773771964,-0.010814067711107489,-0.2701281143493496,0.3254628009146091,0.05419139630393893,0.445534937387601,0.15389519951372618,-0.07640759282926039,0.2671614684109189,0.054945054945054944,0.05409974640743871,0.04395604395604396,0.0566356720202874,0.16060862214708369,0.09382924767540152,0.054945054945054944,0.054945054945054944
548165,0.9474873896843864,0.14232038067891178,-0.012944557457388393,-0.28608564113689733,0.32476888768796297,0.05494890810735015,0.44287099081212944,0.13088394169905593,-0.12668926506716663,0.25854479529774493,0.054945054945054944,0.05409974640743871,0.04395604395604396,0.0566356720202874,0.16060862214708369,0.09382924767540152,0.054945054945054944,0.054945054945054944
548940,0.9474873896843864,0.14232038067891178,-0.012944557457388393,-0.28608564113689733,0.32476888768796297,0.05494890810735015,0.44287099081212944,0.13088394169905593,-0.12668926506716663,0.25854479529774493,0.052409129332206254,0.052409129332206254,0.08199492814877431,0.1301775147928994,0.31783601014370244,0.13947590870667795,0.06931530008453085,0.054945054945054944
571313,0.9444307567871375,0.11685312387127078,-0.012840292223874186,-0.3069707151693881,0.31634008764035326,0.05174558986710881,0.43294992362972884,0.09653928126158738,-0.19815086128137782,0.241691369134255,0.052409129332206254,0.052409129332206254,0.08199492814877431,0.1301775147928994,0.31783601014370244,0.13947590870667795,0.06931530008453085,0.054945054945054944
572110,0.9444307567871375,0.11685312387127078,-0.012840292223874186,-0.3069707151693881,0.31634008764035326,0.05174558986710881,0.43294992362972884,0.09653928126158738,-0.19815086128137782,0.241691369134255,0.052409129332206254,0.0566356720202874,0.13440405748098055,0.14877430262045646,0.3499577345731192,0.16990701606086223,0.07945900253592561,0.0507185122569738
584965,0.9420990331294977,0.07380575176487253,-0.009382802036257083,-0.32697719463111774,0.3067480483664169,0.0640363149393961,0.41836328681490037,0.04898864058025865,-0.2636696574842245,0.21172447699339275,0.052409129332206254,0.0566356720202874,0.13440405748098055,0.14877430262045646,0.3499577345731192,0.16990701606086223,0.07945900253592561,0.0507185122569738
593111,0.9420990331294977,0.07380575176487253,-0.009382802036257083,-0.32697719463111774,0.3067480483664169,0.0640363149393961,0.41836328681490037,0.04898864058025865,-0.2636696574842245,0.21172447699339275,0.05325443786982249,0.0676246830092984,0.1944209636517329,0.1978021978021978,0.43956043956043955,0.2688081149619611,0.09974640743871513,0.054945054945054944
607440,0.938659905794777,0.015701816220440867,-0.0053646285872855845,-0.34444485041997674,0.29113293656870565,0.06978007203324982,0.39994253163875626,0.0146280062917191,-0.3162712126316259,0.19352703932909254,0.05325443786982249,0.0676246830092984,0.1944209636517329,0.1978021978021978,0.43956043956043955,0.2688081149619611,0.09974640743871513,0.054945054945054944
615626,0.938659905794777,0.015701816220440867,-0.0053646285872855845,-0.34444485041997674,0.29113293656870565,0.06978007203324982,0.39994253163875626,0.0146280062917191,-0.3162712126316259,0.19352703932909254,0.055790363482671176,0.07861369399830938,0.2459847844463229,0.26711749788672867,0.5131022823330516,0.3305156382079459,0.13609467455621302,0.08114961961115807
631290,0.9350687242446574,-0.049308152552290985,0.0033147095867230893,-0.3510045579927762,0.29087308749221424,0.06878312092168087,0.40097595902592353,-0.01860626293282848,-0.3016338810369227,0.15711166949137018,0.055790363482671176,0.07861369399830938,0.2459847844463229,0.26711749788672867,0.5131022823330516,0.3305156382079459,0.13609467455621302,0.08114961961115807
632111,0.9350687242446574,-0.049308152552290985,0.0033147095867230893,-0.3510045579927762,0.29087308749221424,0.06878312092168087,0.40097595902592353,-0.01860626293282848,-0.3016338810369227,0.15711166949137018,0.07269653423499578,0.09129332206255283,0.2704987320371936,0.2772612003381234,0.503803888419273,0.3389687235841082,0.18765849535080303,0.147083685545224
644945,0.93448517868425,-0.1125239747235201,0.02013702121208096,-0.33715027259159963,0.293642961674629,0.06378262338964591,0.4075981203621436,-0.052310142797709486,-0.21098950950090453,0.09810825033945025,0.07269653423499578,0.09129332206255283,0.2704987320371936,0.2772612003381234,0.503803888419273,0.3389687235841082,0.18765849535080303,0.147083685545224
653119,0.93448517868425,-0.1125239747235201,0.02013702121208096,-0.33715027259159963,0.293642961674629,0.06378262338964591,0.4075981203621436,-0.052310142797709486,-0.21098950950090453,0.09810825033945025,0.07861369399830938,0.09721048182586645,0.2890955198647506,0.2713440405748098,0.4370245139475909,0.32713440405748095,0.2375316990701606,0.21301775147928995
667490,0.937731176807072,-0.16622517303676299,0.04412084276084166,-0.3017992430855235,0.3065349771836304,0.05820971274187703,0.4282679023353369,-0.07230898531788532,-0.0846650833097366,0.04210193330564721,0.07861369399830938,0.09721048182586645,0.2890955198647506,0.2713440405748098,0.4370245139475909,0.32713440405748095,0.2375316990701606,0.21301775147928995
675603,0.937731176807072,-0.16622517303676299,0.04412084276084166,-0.3017992430855235,0.3065349771836304,0.05820971274187703,0.4282679023353369,-0.07230898531788532,-0.0846650833097366,0.04210193330564721,0.07692307692307693,0.09382924767540152,0.2738799661876585,0.2738799661876585,0.4184277261200338,0.3169907016060862,0.23584108199492815,0.2256973795435334
691322,0.9491311625469243,-0.20184187432009754,0.0658145461195471,-0.23254749960460133,0.355182410420344,0.056733724232922,0.5017576789702777,-0.05953609483218153,0.1197628979841158,0.006361302203870323,0.07692307692307693,0.09382924767540152,0.2738799661876585,0.2738799661876585,0.4184277261200338,0.3169907016060862,0.23584108199492815,0.2256973795435334
692153,0.9491311625469243,-0.20184187432009754,0.0658145461195471,-0.23254749960460133,0.355182410420344,0.056733724232922,0.5017576789702777,-0.05953609483218153,0.1197628979841158,0.006361302203870323,0.0904480135249366,0.09805579036348266,0.24260355029585798,0.25274725274725274,0.3338968723584108,0.2502113271344041,0.24936601859678784,0.2459847844463229
704977,0.96710359045616,-0.2090428189203783,0.06011803145125628,-0.13189983881359138,0.364696459697675,0.07968496575986617,0.5143330586101824,0.0493325152040579,0.36337094082089266,0.07165982751812139,0.0904480135249366,0.09805579036348266,0.24260355029585798,0.25274725274725274,0.3338968723584108,0.2502113271344041,0.24936601859678784,0.2459847844463229
713124,0.96710359045616,-0.2090428189203783,0.06011803145125628,-0.13189983881359138,0.364696459697675,0.07968496575986617,0.5143330586101824,0.0493325152040579,0.36337094082089266,0.07165982751812139,0.12256973795435334,0.16229923922231615,0.21555367709213863,0.18765849535080303,0.21132713440405748,0.16737109044801352,0.24936601859678784,0.26627218934911245
727445,0.9779681880571163,-0.20519797572376547,0.01639312912321266,-0.034688315391489255,0.32763528894135097,0.07887551140453053,0.46110385183918257,0.19428877824984359,0.4083680235365187,0.2321502319328945,0.12256973795435334,0.16229923922231615,0.21555367709213863,0.18765849535080303,0.21132713440405748,0.16737109044801352,0.24936601859678784,0.26627218934911245
735581,0.9779681880571163,-0.20519797572376547,0.01639312912321266,-0.034688315391489255,0.32763528894135097,0.07887551140453053,0.46110385183918257,0.19428877824984359,0.4083680235365187,0.2321502319328945,0.33981403212172445,0.231614539306847,0.19188503803888418,0.17666948436179206,0.17413355874894337,0.13778529163144548,0.2451394759087067,0.28148774302620455
751267,0.9752404171998367,-0.21481024899704326,-0.0431146591598807,0.03006346206350574,0.34081905612198293,0.1147312963523453,0.4432330576421098,0.2691091381031761,0.23634986543370715,0.3666212092276235,0.33981403212172445,0.231614539306847,0.19188503803888418,0.17666948436179206,0.17413355874894337,0.13778529163144548,0.2451394759087067,0.28148774302620455
752118,0.9752404171998367,-0.21481024899704326,-0.0431146591598807,0.03006346206350574,0.34081905612198293,0.1147312963523453,0.4432330576421098,0.2691091381031761,0.23634986543370715,0.3666212092276235,0.36010143702451397,0.24175824175824176,0.15722738799661876,0.19949281487743026,0.13947590870667795,0.17328825021132713,0.34911242603550297,0.2704987320371936
773813,0.9663966097344293,-0.22955962188025913,-0.09045640983115552,0.07209445621163552,0.41141242036908,0.1476528388958378,0.502333904653433,0.2471142456380906,0.11944629361557432,0.3641316987215503,0.36010143702451397,0.24175824175824176,0.15722738799661876,0.19949281487743026,0.13947590870667795,0.17328825021132713,0.34911242603550297,0.2704987320371936
774611,0.9663966097344293,-0.22955962188025913,-0.09045640983115552,0.07209445621163552,0.41141242036908,0.1476528388958378,0.502333904653433,0.2471142456380906,0.11944629361557432,0.3641316987215503,0.36770921386306,0.2595097210481826,0.16821639898562976,0.2028740490278952,0.12679628064243448,0.1749788672865596,0.7134404057480981,0.2797971259509721
787463,0.9741695984089052,-0.20583571034307363,-0.057782321747769004,0.07270802690784492,0.6037442318465862,0.3595785455782949,0.6586209612391718,0.04916436112222808,0.0488095490040837,0.09972124835821622,0.36770921386306,0.2595097210481826,0.16821639898562976,0.2028740490278952,0.12679628064243448,0.1749788672865596,0.7134404057480981,0.2797971259509721
795601,0.9741695984089052,-0.20583571034307363,-0.057782321747769004,0.07270802690784492,0.6037442318465862,0.3595785455782949,0.6586209612391718,0.04916436112222808,0.0488095490040837,0.09972124835821622,0.3693998309382925,0.2688081149619611,0.16737109044801352,0.22147083685545224,0.09805579036348266,0.1724429416737109,0.7455621301775148,0.294167371090448
811282,0.9814556945072213,-0.1810925596671344,0.001463794843226833,0.06283360452186362,0.45030035058519896,0.1636501132457901,0.5676635947868934,-0.031615770774485005,-0.0203792521205722,0.015302550970755113,0.3693998309382925,0.2688081149619611,0.16737109044801352,0.22147083685545224,0.09805579036348266,0.1724429416737109,0.7455621301775148,0.294167371090448
812110,0.9814556945072213,-0.1810925596671344,0.001463794843226833,0.06283360452186362,0.45030035058519896,0.1636501132457901,0.5676635947868934,-0.031615770774485005,-0.0203792521205722,0.015302550970755113,0.389687235841082,0.2975486052409129,0.24936601859678784,0.3305156382079459,0.14201183431952663,0.3127641589180051,0.8326289095519864,0.2992392223161454
824952,0.9841193084888772,-0.17221873414666194,0.025964912191141137,0.03428873872281929,0.399739220754475,0.10054338032265864,0.5251729863213224,0.09894804839874317,-0.10761201148369717,0.19869980195763715,0.389687235841082,0.2975486052409129,0.24936601859678784,0.3305156382079459,0.14201183431952663,0.3127641589180051,0.8326289095519864,0.2992392223161454
833141,0.9841193084888772,-0.17221873414666194,0.025964912191141137,0.03428873872281929,0.399739220754475,0.10054338032265864,0.5251729863213224,0.09894804839874317,-0.10761201148369717,0.19869980195763715,0.23584108199492815,0.2628909551986475,0.3888419273034658,0.7886728655959425,0.19103972950126796,0.6052409129332206,0.834319526627219,0.28402366863905326
847461,0.9893773596008036,-0.13773683225681788,0.03918123869157889,-0.025016712089976217,0.3830843569687121,0.12675095017286314,0.4938650059735805,0.19381326482352035,-0.09756239718164327,0.283386095526197,0.23584108199492815,0.2628909551986475,0.3888419273034658,0.7886728655959425,0.19103972950126796,0.6052409129332206,0.834319526627219,0.28402366863905326
855586,0.9893773596008036,-0.13773683225681788,0.03918123869157889,-0.025016712089976217,0.3830843569687121,0.12675095017286314,0.4938650059735805,0.19381326482352035,-0.09756239718164327,0.283386095526197,0.2087912087912088,0.26458157227387996,0.4640743871513102,0.8326289095519864,0.24683009298393913,0.6559594251901945,0.9382924767540152,0.2764158918005072
871292,0.9911219828995526,-0.08554013061537397,0.043070346765876136,-0.09222280790038334,0.3665257052989789,0.09331287597260729,0.48480388587003664,0.25523426463987253,-0.04960253156419189,0.3305363868434662,0.2087912087912088,0.26458157227387996,0.4640743871513102,0.8326289095519864,0.24683009298393913,0.6559594251901945,0.9382924767540152,0.2764158918005072
872124,0.9911219828995526,-0.08554013061537397,0.043070346765876136,-0.09222280790038334,0.3665257052989789,0.09331287597260729,0.48480388587003664,0.25523426463987253,-0.04960253156419189,0.3305363868434662,0.19611158072696533,0.2485207100591716,0.463229078613694,0.8968723584108199,0.2451394759087067,0.6889264581572274,0.7202028740490279,0.2789518174133559
884989,0.9868459483627334,-0.03901459126262702,0.04406677468800013,-0.15056910452434916,0.32358426718553823,0.06182161778684109,0.44380362306251064,0.25076443305711615,-0.04267866074565979,0.32963556882381073,0.19611158072696533,0.2485207100591716,0.463229078613694,0.8968723584108199,0.2451394759087067,0.6889264581572274,0.7202028740490279,0.2789518174133559
893111,0.9868459483627334,-0.03901459126262702,0.04406677468800013,-0.15056910452434916,0.32358426718553823,0.06182161778684109,0.44380362306251064,0.25076443305711615,-0.04267866074565979,0.32963556882381073,0.19611158072696533,0.24091293322062554,0.46153846153846156,0.9053254437869822,0.2459847844463229,0.6855452240067624,0.6863905325443787,0.24936601859678784
907464,0.9794665801857001,0.002109892805566338,0.044693042663998955,-0.19657898816789243,0.29857374510459267,0.05836629381030525,0.413056939130293,0.2382562099062441,-0.022586698909156905,0.316500388798691,0.19611158072696533,0.24091293322062554,0.46153846153846156,0.9053254437869822,0.2459847844463229,0.6855452240067624,0.6863905325443787,0.24936601859678784
915572,0.9794665801857001,0.002109892805566338,0.044693042663998955,-0.19657898816789243,0.29857374510459267,0.05836629381030525,0.413056939130293,0.2382562099062441,-0.022586698909156905,0.316500388798691,0.12679628064243448,0.15469146238377007,0.41335587489433645,0.8791208791208791,0.2172442941673711,0.6339814032121724,0.5705832628909552,0.2147083685545224
931281,0.9725628134456235,0.036178940731043274,0.04268329226671887,-0.22581141404186555,0.28988447906671944,0.06565240721963389,0.40039503125036313,0.2287372384245977,0.010820710743876,0.3066132976357959,0.12679628064243448,0.15469146238377007,0.41335587489433645,0.8791208791208791,0.2172442941673711,0.6339814032121724,0.5705832628909552,0.2147083685545224
932111,0.9725628134456235,0.036178940731043274,0.04268329226671887,-0.22581141404186555,0.28988447906671944,0.06565240721963389,0.40039503125036313,0.2287372384245977,0.010820710743876,0.3066132976357959,0.09551986475063398,0.12087912087912088,0.2874049027895182,0.5105663567202029,0.17582417582417584,0.3710904480135249,0.555367709213863,0.17751479289940827
944942,0.9680691432176038,0.06101269354894845,0.037074616184409104,-0.24030201416262634,0.2869477825446801,0.05979320390621179,0.3995702932297711,0.21967185835799552,0.028886865977185316,0.30265757836763846,0.09551986475063398,0.12087912087912088,0.2874049027895182,0.5105663567202029,0.17582417582417584,0.3710904480135249,0.555367709213863,0.17751479289940827
953055,0.9680691432176038,0.06101269354894845,0.037074616184409104,-0.24030201416262634,0.2869477825446801,0.05979320390621179,0.3995702932297711,0.21967185835799552,0.028886865977185316,0.30265757836763846,0.08453085376162299,0.08622147083685545,0.12595097210481826,0.4167371090448014,0.07100591715976332,0.2485207100591716,0.2028740490278952,0.13609467455621302
967438,0.9671492707821936,0.07110294835879305,0.02798365177853862,-0.24245324083891961,0.2893316952076009,0.04953326637935962,0.40654259739318666,0.20471531879998733,0.02040481881587916,0.29600080134532747,0.08453085376162299,0.08622147083685545,0.12595097210481826,0.4167371090448014,0.07100591715976332,0.2485207100591716,0.2028740490278952,0.13609467455621302
975614,0.9671492707821936,0.07110294835879305,0.02798365177853862,-0.24245324083891961,0.2893316952076009,0.04953326637935962,0.40654259739318666,0.20471531879998733,0.02040481881587916,0.29600080134532747,0.07945900253592561,0.08114961961115807,0.10481825866441251,0.2502113271344041,0.06424344885883347,0.1352493660185968,0.11665257819103973,0.08368554522400676
989945,0.966547816433966,0.07537320520833574,0.018268766069370064,-0.24447995964834593,0.3031044284540931,0.03821502174065894,0.42713256981215764,0.19300531853153433,0.00017004421013122606,0.29250269011071006,0.07945900253592561,0.08114961961115807,0.10481825866441251,0.2502113271344041,0.06424344885883347,0.1352493660185968,0.11665257819103973,0.08368554522400676
998111,0.966547816433966,0.07537320520833574,0.018268766069370064,-0.24447995964834593,0.3031044284540931,0.03821502174065894,0.42713256981215764,0.19300531853153433,0.00017004421013122606,0.29250269011071006,0.057480980557903634,0.060862214708368556,0.09382924767540152,0.18512256973795435,0.05409974640743871,0.1327134404057481,0.06846999154691462,0.0650887573964497
1005038,0.9653417524843662,0.07536759117863567,0.008509590165987374,-0.24972507680557365,0.32954453600777467,0.03482512100405066,0.4591902933026319,0.18408817782562353,-0.032856438909128705,0.2936128537665172,0.057480980557903634,0.060862214708368556,0.09382924767540152,0.18512256973795435,0.05409974640743871,0.1327134404057481,0.06846999154691462,0.0650887573964497
1020602,0.9653417524843662,0.07536759117863567,0.008509590165987374,-0.24972507680557365,0.32954453600777467,0.03482512100405066,0.4591902933026319,0.18408817782562353,-0.032856438909128705,0.2936128537665172,0.0507185122569738,0.05325443786982249,0.08537616229923922,0.14623837700760778,0.0507185122569738,0.1301775147928994,0.10904480135249366,0.060016906170752324
1027553,0.9627415058327575,0.06797287463262897,0.0016000691553659796,-0.2617363578866136,0.352121564417745,0.040801735848912335,0.4821354450957476,0.1635412330396575,-0.09930415409437325,0.2887823636145628,0.0507185122569738,0.05325443786982249,0.08537616229923922,0.14623837700760778,0.0507185122569738,0.1301775147928994,0.10904480135249366,0.060016906170752324
1035596,0.9627415058327575,0.06797287463262897,0.0016000691553659796,-0.2617363578866136,0.352121564417745,0.040801735848912335,0.4821354450957476,0.1635412330396575,-0.09930415409437325,0.2887823636145628,0.047337278106508875,0.04395604395604396,0.07016060862214708,0.17666948436179206,0.06677937447168217,0.1242603550295858,0.2654268808114962,0.0650887573964497
1049941,0.9555782854916955,0.04897491668701304,-0.0022941070096165125,-0.29063092558308357,0.34672342236750836,0.060359576802140325,0.46918129713625845,0.13112482558814667,-0.20640704113470032,0.2793463987219891,0.047337278106508875,0.04395604395604396,0.07016060862214708,0.17666948436179206,0.06677937447168217,0.1242603550295858,0.2654268808114962,0.0650887573964497
1058117,0.9555782854916955,0.04897491668701304,-0.0022941070096165125,-0.29063092558308357,0.34672342236750836,0.060359576802140325,0.46918129713625845,0.13112482558814667,-0.20640704113470032,0.2793463987219891,0.03888419273034658,0.03550295857988166,0.0650887573964497,0.2003381234150465,0.15722738799661876,0.1665257819103973,0.4530853761622992,0.06255283178360102
1065038,0.9441614311754143,0.019706932057970583,-0.00284475500103502,-0.32888103636214666,0.32198726695266694,0.06473766854472862,0.44011234365276897,0.10290481018590522,-0.28118482796189664,0.2660598796040876,0.03888419273034658,0.03550295857988166,0.0650887573964497,0.2003381234150465,0.15722738799661876,0.1665257819103973,0.4530853761622992,0.06255283178360102
1072416,0.9441614311754143,0.019706932057970583,-0.00284475500103502,-0.32888103636214666,0.32198726695266694,0.06473766854472862,0.44011234365276897,0.10290481018590522,-0.28118482796189664,0.2660598796040876,0.03888419273034658,0.03803888419273035,0.07438715131022823,0.18850380388841928,0.21978021978021978,0.2062552831783601,0.4902789518174134,0.06339814032121724
1087553,0.9328551166566952,-0.01611241953668968,0.0028708023488465684,-0.35987981293477855,0.2992844700761056,0.05953843104139073,0.41392988998896246,0.0674322114048582,-0.2771711630625291,0.22773438751410255,0.03888419273034658,0.03803888419273035,0.07438715131022823,0.18850380388841928,0.21978021978021978,0.2062552831783601,0.4902789518174134,0.06339814032121724
1095604,0.9328551166566952,-0.01611241953668968,0.0028708023488465684,-0.35987981293477855,0.2992844700761056,0.05953843104139073,0.41392988998896246,0.0674322114048582,-0.2771711630625291,0.22773438751410255,0.03296703296703297,0.03296703296703297,0.07692307692307693,0.19019442096365174,0.25612848689771767,0.2147083685545224,0.49281487743026203,0.06255283178360102
1109938,0.927432773863372,-0.05873004286142386,0.015717188961816946,-0.36901517855059207,0.2830620028738346,0.05476748839005899,0.39533668497344854,0.02012754046320582,-0.21365260970950262,0.16532676310342304,0.03296703296703297,0.03296703296703297,0.07692307692307693,0.19019442096365174,0.25612848689771767,0.2147083685545224,0.49281487743026203,0.06255283178360102
1118123,0.927432773863372,-0.05873004286142386,0.015717188961816946,-0.36901517855059207,0.2830620028738346,0.05476748839005899,0.39533668497344854,0.02012754046320582,-0.21365260970950262,0.16532676310342304,0.03888419273034658,0.04057480980557904,0.09636517328825021,0.1893491124260355,0.28064243448858833,0.21978021978021978,0.48774302620456467,0.058326289095519866
1125061,0.9292291216481479,-0.10067396221291391,0.034427891920337655,-0.3538540844349348,0.28056633246928997,0.04782148799343361,0.39451998813882416,-0.011090187162586113,-0.11027618659476106,0.10856255873994847,0.03888419273034658,0.04057480980557904,0.09636517328825021,0.1893491124260355,0.28064243448858833,0.21978021978021978,0.48774302620456467,0.058326289095519866
1140579,0.9292291216481479,-0.10067396221291391,0.034427891920337655,-0.3538540844349348,0.28056633246928997,0.04782148799343361,0.39451998813882416,-0.011090187162586113,-0.11027618659476106,0.10856255873994847,0.039729501267962805,0.04818258664412511,0.10566356720202874,0.15722738799661876,0.28148774302620455,0.2180896027049873,0.4370245139475909,0.07185122569737955
1147514,0.937236567504188,-0.13728415417630185,0.05774616650046706,-0.31528726234906007,0.29305189323403236,0.04270621362131266,0.4128841075994624,-0.030925431564990363,0.00901388120116143,0.058145598260045284,0.039729501267962805,0.04818258664412511,0.10566356720202874,0.15722738799661876,0.28148774302620455,0.2180896027049873,0.4370245139475909,0.07185122569737955
1155585,0.937236567504188,-0.13728415417630185,0.05774616650046706,-0.31528726234906007,0.29305189323403236,0.04270621362131266,0.4128841075994624,-0.030925431564990363,0.00901388120116143,0.058145598260045284,0.05917159763313609,0.073541842772612,0.15131022823330514,0.15891800507185122,0.25274725274725274,0.19103972950126796,0.26120033812341503,0.16568047337278108
1169962,0.9493744376981617,-0.167665343923189,0.07847045918490805,-0.25380877945360236,0.33037200001349276,0.052616427608862204,0.45927233737511014,-0.03247787480816755,0.12575379309475365,0.031208385680735917,0.05917159763313609,0.073541842772612,0.15131022823330514,0.15891800507185122,0.25274725274725274,0.19103972950126796,0.26120033812341503,0.16568047337278108
1178151,0.9493744376981617,-0.167665343923189,0.07847045918490805,-0.25380877945360236,0.33037200001349276,0.052616427608862204,0.45927233737511014,-0.03247787480816755,0.12575379309475365,0.031208385680735917,0.0650887573964497,0.08114961961115807,0.15384615384615385,0.16060862214708369,0.20540997464074387,0.13947590870667795,0.22485207100591717,0.17582417582417584
1185050,0.9633337041555163,-0.1862672799199655,0.08718093496097203,-0.1723141301477043,0.36645724905799515,0.06481412720840862,0.5095844052224306,0.011249331422538644,0.24534701978657553,0.05444132027748633,0.0650887573964497,0.08114961961115807,0.15384615384615385,0.16060862214708369,0.20540997464074387,0.13947590870667795,0.22485207100591717,0.17582417582417584
1200560,0.9633337041555163,-0.1862672799199655,0.08718093496097203,-0.1723141301477043,0.36645724905799515,0.06481412720840862,0.5095844052224306,0.011249331422538644,0.24534701978657553,0.05444132027748633,0.06931530008453085,0.08791208791208792,0.15469146238377007,0.1614539306846999,0.15976331360946747,0.12764158918005072,0.22823330515638207,0.1978021978021978
1207545,0.9762747168072635,-0.18883198612400476,0.07476956266360753,-0.07509774189983176,0.3663207679158787,0.06585132251329723,0.5113447503117747,0.09172948072793957,0.37466870019722087,0.11571133473898104,0.06931530008453085,0.08791208791208792,0.15469146238377007,0.1614539306846999,0.15976331360946747,0.12764158918005072,0.22823330515638207,0.1978021978021978
1215609,0.9762747168072635,-0.18883198612400476,0.07476956266360753,-0.07509774189983176,0.3663207679158787,0.06585132251329723,0.5113447503117747,0.09172948072793957,0.37466870019722087,0.11571133473898104,0.09721048182586645,0.10481825866441251,0.1437024513947591,0.15046491969568893,0.11665257819103973,0.10989010989010989,0.2485207100591716,0.2172442941673711
1229923,0.9822709674589573,-0.18340526743766772,0.03370110269859657,0.01924811783682423,0.3203976158069022,0.042895789822780916,0.455867409244718,0.1907878547856237,0.41862436237154266,0.2213785529042228,0.09721048182586645,0.10481825866441251,0.1437024513947591,0.15046491969568893,0.11665257819103973,0.10989010989010989,0.2485207100591716,0.2172442941673711
1238139,0.9822709674589573,-0.18340526743766772,0.03370110269859657,0.01924811783682423,0.3203976158069022,0.042895789822780916,0.455867409244718,0.1907878547856237,0.41862436237154266,0.2213785529042228,0.17582417582417584,0.15638207945900254,0.147083685545224,0.15553677092138632,0.09721048182586645,0.09551986475063398,0.22485207100591717,0.21639898562975485
1245078,0.9773390345993189,-0.1957227138207377,-0.013948975211755338,0.07941320314443037,0.3302950316698411,0.07870969038179979,0.4398859891927517,0.24128624287614078,0.2104573011921882,0.3367256592491692,0.17582417582417584,0.15638207945900254,0.147083685545224,0.15553677092138632,0.09721048182586645,0.09551986475063398,0.22485207100591717,0.21639898562975485
1260567,0.9773390345993189,-0.1957227138207377,-0.013948975211755338,0.07941320314443037,0.3302950316698411,0.07870969038179979,0.4398859891927517,0.24128624287614078,0.2104573011921882,0.3367256592491692,0.19273034657650043,0.16906170752324598,0.1073541842772612,0.14539306846999156,0.07016060862214708,0.09382924767540152,0.4995773457311919,0.17666948436179206
1267518,0.9632894475592486,-0.22609347001349406,-0.06080522966840511,0.13136935366830094,0.3534712535738821,0.11249730664881905,0.44921283985737387,0.23877897271173515,0.09873948014878262,0.3726192576429921,0.19273034657650043,0.16906170752324598,0.1073541842772612,0.14539306846999156,0.07016060862214708,0.09382924767540152,0.4995773457311919,0.17666948436179206
1275615,0.9632894475592486,-0.22609347001349406,-0.06080522966840511,0.13136935366830094,0.3534712535738821,0.11249730664881905,0.44921283985737387,0.23877897271173515,0.09873948014878262,0.3726192576429921,0.2003381234150465,0.17413355874894337,0.1073541842772612,0.17751479289940827,0.11496196111580727,0.13102282333051563,0.8030431107354185,0.17751479289940827
1290002,0.958289315454242,-0.2351444496010135,-0.06028786015515118,0.15084445507206865,0.4855087532868398,0.304233635066836,0.537312261583245,0.11505971206007434,0.0076854214669699605,0.21940772311047713,0.2003381234150465,0.17413355874894337,0.1073541842772612,0.17751479289940827,0.11496196111580727,0.13102282333051563,0.8030431107354185,0.17751479289940827
1298111,0.958289315454242,-0.2351444496010135,-0.06028786015515118,0.15084445507206865,0.4855087532868398,0.304233635066836,0.537312261583245,0.11505971206007434,0.0076854214669699605,0.21940772311047713,0.2037193575655114,0.18512256973795435,0.10904480135249366,0.23076923076923078,0.16990701606086223,0.1496196111580727,0.9526627218934911,0.16737109044801352
1305013,0.9693712569140382,-0.21811282831372342,0.017757303792499325,0.11149367047463676,0.48747435071542394,0.3309226393493139,0.5650075918244535,-0.06998857558829437,-0.2099409539333993,0.0126471482230201,0.2037193575655114,0.18512256973795435,0.10904480135249366,0.23076923076923078,0.16990701606086223,0.1496196111580727,0.9526627218934911,0.16737109044801352
1320564,0.9693712569140382,-0.21811282831372342,0.017757303792499325,0.11149367047463676,0.48747435071542394,0.3309226393493139,0.5650075918244535,-0.06998857558829437,-0.2099409539333993,0.0126471482230201,0.23076923076923078,0.19611158072696533,0.1978021978021978,0.2907861369399831,0.19357565511411665,0.2586644125105664,1,0.1893491124260355
1327556,0.9704269673319181,-0.21722407369970814,0.03624989906933733,0.09884911581669656,0.38203977883266943,0.08218110563856035,0.5127427074506654,0.09777082513932162,-0.08355659794081266,0.20276772103549884,0.23076923076923078,0.19611158072696533,0.1978021978021978,0.2907861369399831,0.19357565511411665,0.2586644125105664,1,0.1893491124260355
