Timestamp, Orientation x, Orientation y, Orientation z, Orientation w, Acceleration x, Acceleration y, Acceleration z, Rotation x, Rotation y, Rotation z, EMG 0, EMG 1, EMG 2, EMG 3, EMG 4, EMG 5, EMG 6, EMG 7
0,0.7041184387247312,0.041464355446377776,0.5052446496299312,-0.4972180361728554,0.026029745888105277,0.46864246178849994,0.13935313955386155,-0.019271827448292506,0.2687539457453078,0.2440283278096514,0,0,0,0,0,0,0,0
7499,0.6619754770996439,0.06941109800111062,0.5259038421865871,-0.529524046636566,0.038155564747877124,0.48710825279274983,0.13388813310988726,-0.017255225981961414,0.24340939238848608,0.23553806608124414,0,0,0,0,0,0,0,0
30046,0.6171008126394787,0.09846481503302607,0.546836770098567,-0.5571901058959804,0.020149838776636647,0.49895569795391437,0.12543696899116852,-0.015903682772127836,0.2481955548634109,0.22132455831906162,0,0,0,0,0,0,0,0
45015,0.5729204922798178,0.13364056979371353,0.5670818950856692,-0.5764724034133021,-0.01555398431421412,0.5203103924471832,0.11573226098756362,0.010911839122319883,0.2802808130010185,0.19569135108207703,0,0,0,0,0,0,0,0
68830,0.5389311086789434,0.17112084070099687,0.5864047539355817,-0.5800003297737156,-0.0516169762225927,0.5096517002195918,0.11973495937646766,0.018695628970242795,0.36829721051254966,0.15054852639710772,0,0,0,0,0,0,0,0
69631,0.5389311086789434,0.17112084070099687,0.5864047539355817,-0.5800003297737156,-0.0516169762225927,0.5096517002195918,0.11973495937646766,0.018695628970242795,0.36829721051254966,0.15054852639710772,0.1345646437994723,0.0633245382585752,0.10026385224274406,0.487467018469657,0.6405013192612137,0.16226912928759896,0.052770448548812667,0.17150395778364116
91322,0.519368925686858,0.2089539955792186,0.6029741709025767,-0.5683452260613344,-0.0740330972600717,0.5178492761216462,0.14147932009428493,0.02040951155249282,0.4547290283351129,0.12318814686191541,0.1345646437994723,0.0633245382585752,0.10026385224274406,0.487467018469657,0.6405013192612137,0.16226912928759896,0.052770448548812667,0.17150395778364116
92158,0.519368925686858,0.2089539955792186,0.6029741709025767,-0.5683452260613344,-0.0740330972600717,0.5178492761216462,0.14147932009428493,0.02040951155249282,0.4547290283351129,0.12318814686191541,0.14182058047493404,0.06134564643799472,0.07783641160949868,0.6932717678100264,0.7605540897097626,0.1695250659630607,0.05474934036939314,0.29089709762532984
105039,0.5154432268704439,0.24412970343827314,0.6170938244398974,-0.5421385243742285,-0.07735503272603611,0.5691424455599416,0.15847819605650967,0.011830804482117818,0.5632428095130213,0.08668712551855581,0.14182058047493404,0.06134564643799472,0.07783641160949868,0.6932717678100264,0.7605540897097626,0.1695250659630607,0.05474934036939314,0.29089709762532984
113118,0.5154432268704439,0.24412970343827314,0.6170938244398974,-0.5421385243742285,-0.07735503272603611,0.5691424455599416,0.15847819605650967,0.011830804482117818,0.5632428095130213,0.08668712551855581,0.09564643799472296,0.044195250659630606,0.07189973614775726,0.7486807387862797,0.8034300791556728,0.1853562005277045,0.07717678100263853,0.3186015831134565
128853,0.5288142449548957,0.2783498305622353,0.6323966521214188,-0.4929009439475437,-0.08862402514565168,0.5960387711696217,0.15480072079419616,0.012915853676665756,0.7015062196061939,0.021782819796473507,0.09564643799472296,0.044195250659630606,0.07189973614775726,0.7486807387862797,0.8034300791556728,0.1853562005277045,0.07717678100263853,0.3186015831134565
129639,0.5288142449548957,0.2783498305622353,0.6323966521214188,-0.4929009439475437,-0.08862402514565168,0.5960387711696217,0.15480072079419616,0.012915853676665756,0.7015062196061939,0.021782819796473507,0.08311345646437995,0.036939313984168866,0.051451187335092345,0.8806068601583114,0.895778364116095,0.13654353562005278,0.08905013192612138,0.3997361477572559
151383,0.5524271240758767,0.3076981138808704,0.648936707053696,-0.42311617026263143,-0.05477924209984247,0.5879563870532032,0.13954929789964096,-0.0027672902597630222,0.8059200307941965,-0.03417445445163947,0.08311345646437995,0.036939313984168866,0.051451187335092345,0.8806068601583114,0.895778364116095,0.13654353562005278,0.08905013192612138,0.3997361477572559
152177,0.5524271240758767,0.3076981138808704,0.648936707053696,-0.42311617026263143,-0.05477924209984247,0.5879563870532032,0.13954929789964096,-0.0027672902597630222,0.8059200307941965,-0.03417445445163947,0.08641160949868074,0.03825857519788918,0.04683377308707124,0.8594986807387863,0.8779683377308707,0.13522427440633245,0.09102902374670185,0.40633245382585753
165047,0.5752482233273386,0.3357146731912999,0.6620009486452332,-0.3437148291179917,-0.0270604114941696,0.6107280402061316,0.12897660255433485,0.0014511439428336326,0.8392175991646271,-0.056120822406858145,0.08641160949868074,0.03825857519788918,0.04683377308707124,0.8594986807387863,0.8779683377308707,0.13522427440633245,0.09102902374670185,0.40633245382585753
173112,0.5752482233273386,0.3357146731912999,0.6620009486452332,-0.3437148291179917,-0.0270604114941696,0.6107280402061316,0.12897660255433485,0.0014511439428336326,0.8392175991646271,-0.056120822406858145,0.08575197889182058,0.0395778364116095,0.0633245382585752,0.8364116094986808,0.7803430079155673,0.1378627968337731,0.09828496042216359,0.4241424802110818
188814,0.5932753408957806,0.3608341516906475,0.6722693018856223,-0.25666528904568275,-0.013986726980673103,0.6499842044421286,0.15493594450508227,-0.0038817348166105825,0.860720606324233,-0.07993225499045853,0.08575197889182058,0.0395778364116095,0.0633245382585752,0.8364116094986808,0.7803430079155673,0.1378627968337731,0.09828496042216359,0.4241424802110818
189633,0.5932753408957806,0.3608341516906475,0.6722693018856223,-0.25666528904568275,-0.013986726980673103,0.6499842044421286,0.15493594450508227,-0.0038817348166105825,0.860720606324233,-0.07993225499045853,0.07849604221635884,0.040237467018469655,0.06266490765171503,0.6464379947229552,0.6741424802110818,0.11873350923482849,0.09498680738786279,0.45844327176781
211308,0.6048476558410084,0.37898359345380583,0.6803375819147457,-0.16634759917376118,-0.01099541805403853,0.6716799724657119,0.1811998704014585,-0.03178840293389923,0.8664644610441443,-0.09271200622866471,0.07849604221635884,0.040237467018469655,0.06266490765171503,0.6464379947229552,0.6741424802110818,0.11873350923482849,0.09498680738786279,0.45844327176781
212118,0.6048476558410084,0.37898359345380583,0.6803375819147457,-0.16634759917376118,-0.01099541805403853,0.6716799724657119,0.1811998704014585,-0.03178840293389923,0.8664644610441443,-0.09271200622866471,0.0758575197889182,0.04287598944591029,0.06200527704485488,0.5639841688654353,0.6108179419525066,0.09300791556728233,0.08113456464379948,0.4887862796833773
224971,0.6076635951944853,0.3888664984860249,0.6876937060958956,-0.08127218482742599,-0.014912603432452487,0.6793137711039491,0.18864219852667985,-0.07828708895795455,0.8353514760344819,-0.08480430645058898,0.0758575197889182,0.04287598944591029,0.06200527704485488,0.5639841688654353,0.6108179419525066,0.09300791556728233,0.08113456464379948,0.4887862796833773
233103,0.6076635951944853,0.3888664984860249,0.6876937060958956,-0.08127218482742599,-0.014912603432452487,0.6793137711039491,0.18864219852667985,-0.07828708895795455,0.8353514760344819,-0.08480430645058898,0.07058047493403694,0.03891820580474934,0.06134564643799472,0.19063324538258575,0.42150395778364114,0.08245382585751979,0.11411609498680739,0.4788918205804749
248942,0.606037238764009,0.3896610592091382,0.6934121778249009,-0.007916805633324026,-0.03637703338897946,0.7028940210205561,0.1713797808371591,-0.12570659697271092,0.7912133681346273,-0.04744251494633947,0.07058047493403694,0.03891820580474934,0.06134564643799472,0.19063324538258575,0.42150395778364114,0.08245382585751979,0.11411609498680739,0.4788918205804749
249608,0.606037238764009,0.3896610592091382,0.6934121778249009,-0.007916805633324026,-0.03637703338897946,0.7028940210205561,0.1713797808371591,-0.12570659697271092,0.7912133681346273,-0.04744251494633947,0.08047493403693931,0.04353562005277045,0.06068601583113457,0.1503957783641161,0.21437994722955145,0.07453825857519789,0.170844327176781,0.5461741424802111
271296,0.6019794210671611,0.3769602997439829,0.701880624757448,0.05371496643084044,-0.08519709813587106,0.7466851266547648,0.1317463858397813,-0.1823680838149518,0.7723496704849373,-0.013177031139384926,0.08047493403693931,0.04353562005277045,0.06068601583113457,0.1503957783641161,0.21437994722955145,0.07453825857519789,0.170844327176781,0.5461741424802111
272160,0.6019794210671611,0.3769602997439829,0.701880624757448,0.05371496643084044,-0.08519709813587106,0.7466851266547648,0.1317463858397813,-0.1823680838149518,0.7723496704849373,-0.013177031139384926,0.08839050131926121,0.04551451187335093,0.04155672823218998,0.12730870712401055,0.20184696569920843,0.07651715039577836,0.2420844327176781,0.6101583113456465
284968,0.5922790915432763,0.36510074195924835,0.7092649028349723,0.11335882651110434,-0.15024908592137937,0.7329968655884146,0.11537029686907802,-0.18791322230043742,0.7537136434748907,-0.017551672491384868,0.08839050131926121,0.04551451187335093,0.04155672823218998,0.12730870712401055,0.20184696569920843,0.07651715039577836,0.2420844327176781,0.6101583113456465
293169,0.5922790915432763,0.36510074195924835,0.7092649028349723,0.11335882651110434,-0.15024908592137937,0.7329968655884146,0.11537029686907802,-0.18791322230043742,0.7537136434748907,-0.017551672491384868,0.10290237467018469,0.05474934036939314,0.04551451187335093,0.09696569920844327,0.13984168865435356,0.09168865435356201,0.3344327176781003,0.5554089709762533
308816,0.5793038746681226,0.36510315024158574,0.7064381749032667,0.17903020839375536,-0.1281330788151634,0.6981201354798087,0.1091407432745648,-0.11688612558056333,0.7528860312200404,-0.041269476867146604,0.10290237467018469,0.05474934036939314,0.04551451187335093,0.09696569920844327,0.13984168865435356,0.09168865435356201,0.3344327176781003,0.5554089709762533
309616,0.5793038746681226,0.36510315024158574,0.7064381749032667,0.17903020839375536,-0.1281330788151634,0.6981201354798087,0.1091407432745648,-0.11688612558056333,0.7528860312200404,-0.041269476867146604,0.12005277044854881,0.05474934036939314,0.04683377308707124,0.05672823218997362,0.06926121372031663,0.10158311345646438,0.41358839050131924,0.5804749340369393
331321,0.573613110424042,0.3721159483654689,0.6909058067420285,0.23483374274552188,-0.04027684766685652,0.6959497424969089,0.08772046235281622,-0.04162439398603257,0.7154149160703225,0.011292391012094366,0.12005277044854881,0.05474934036939314,0.04683377308707124,0.05672823218997362,0.06926121372031663,0.10158311345646438,0.41358839050131924,0.5804749340369393
332141,0.573613110424042,0.3721159483654689,0.6909058067420285,0.23483374274552188,-0.04027684766685652,0.6959497424969089,0.08772046235281622,-0.04162439398603257,0.7154149160703225,0.011292391012094366,0.1312664907651715,0.0633245382585752,0.048153034300791556,0.052770448548812667,0.06530343007915568,0.11477572559366754,0.42282321899736147,0.7730870712401056
345027,0.5825440188233391,0.37958948734464837,0.6688827549419758,0.26296415605898193,0.004392111798527165,0.6674506702425066,0.04022147557360012,-0.02588103461539537,0.624461959514617,0.1347330348165345,0.1312664907651715,0.0633245382585752,0.048153034300791556,0.052770448548812667,0.06530343007915568,0.11477572559366754,0.42282321899736147,0.7730870712401056
353115,0.5825440188233391,0.37958948734464837,0.6688827549419758,0.26296415605898193,0.004392111798527165,0.6674506702425066,0.04022147557360012,-0.02588103461539537,0.624461959514617,0.1347330348165345,0.13654353562005278,0.06266490765171503,0.0679419525065963,0.04551451187335093,0.06200527704485488,0.11081794195250659,0.40633245382585753,0.8885224274406333
368823,0.6009630808605169,0.3833521730590871,0.6598323996836769,0.2377092576682533,-0.03336745773390831,0.6530017394785127,-0.00579745555386002,-0.08335251066224142,0.42057379545530094,0.3148642311839583,0.13654353562005278,0.06266490765171503,0.0679419525065963,0.04551451187335093,0.06200527704485488,0.11081794195250659,0.40633245382585753,0.8885224274406333
369640,0.6009630808605169,0.3833521730590871,0.6598323996836769,0.2377092576682533,-0.03336745773390831,0.6530017394785127,-0.00579745555386002,-0.08335251066224142,0.42057379545530094,0.3148642311839583,0.262532981530343,0.08443271767810026,0.07453825857519789,0.05013192612137203,0.06860158311345646,0.10883905013192612,0.3713720316622691,0.8759894459102903
391321,0.6139156692729705,0.3847014908772954,0.667267906371234,0.17281740382512778,-0.12585854942516567,0.6108435045299214,0.017042451984179613,-0.19614116609041754,0.24706111958412375,0.41318300818921044,0.262532981530343,0.08443271767810026,0.07453825857519789,0.05013192612137203,0.06860158311345646,0.10883905013192612,0.3713720316622691,0.8759894459102903
392169,0.6139156692729705,0.3847014908772954,0.667267906371234,0.17281740382512778,-0.12585854942516567,0.6108435045299214,0.017042451984179613,-0.19614116609041754,0.24706111958412375,0.41318300818921044,0.32519788918205805,0.13852242744063326,0.09366754617414248,0.05870712401055409,0.07387862796833773,0.11807387862796834,0.33047493403693934,0.9406332453825857
404994,0.6213881822279559,0.37580316545231884,0.6809294795674468,0.09478265495046935,-0.15767384555820962,0.5594592955769476,-0.034138380861303746,-0.27018408444722786,0.20501090219089377,0.4445738774562547,0.32519788918205805,0.13852242744063326,0.09366754617414248,0.05870712401055409,0.07387862796833773,0.11807387862796834,0.33047493403693934,0.9406332453825857
413097,0.6213881822279559,0.37580316545231884,0.6809294795674468,0.09478265495046935,-0.15767384555820962,0.5594592955769476,-0.034138380861303746,-0.27018408444722786,0.20501090219089377,0.4445738774562547,0.408311345646438,0.16029023746701848,0.10488126649076517,0.06596306068601583,0.08773087071240106,0.1312664907651715,0.2757255936675462,0.9591029023746702
428794,0.625763111250419,0.3515401079780126,0.6962941900327855,0.0038055233004404354,-0.25019261793488384,0.5667665521735609,-0.0547593983756508,-0.34032116481274877,0.17783953447802248,0.4888073118958332,0.408311345646438,0.16029023746701848,0.10488126649076517,0.06596306068601583,0.08773087071240106,0.1312664907651715,0.2757255936675462,0.9591029023746702
429659,0.625763111250419,0.3515401079780126,0.6962941900327855,0.0038055233004404354,-0.25019261793488384,0.5667665521735609,-0.0547593983756508,-0.34032116481274877,0.17783953447802248,0.4888073118958332,0.5732189973614775,0.22163588390501318,0.12335092348284961,0.07255936675461741,0.1550131926121372,0.16688654353562005,0.36015831134564646,0.8713720316622692
451357,0.6336455235385421,0.3159753387895771,0.7008168355304862,-0.08665274844697274,-0.43768567458775504,0.6232105397590031,0.08683590850332523,-0.33752941409578907,0.21660123040063245,0.514966355489174,0.5732189973614775,0.22163588390501318,0.12335092348284961,0.07255936675461741,0.1550131926121372,0.16688654353562005,0.36015831134564646,0.8713720316622692
452146,0.6336455235385421,0.3159753387895771,0.7008168355304862,-0.08665274844697274,-0.43768567458775504,0.6232105397590031,0.08683590850332523,-0.33752941409578907,0.21660123040063245,0.514966355489174,0.6965699208443272,0.2717678100263852,0.13060686015831136,0.13984168865435356,0.2559366754617414,0.33311345646437995,0.39775725593667544,0.7915567282321899
464953,0.6254633203490227,0.3100162167799282,0.7023886392947314,-0.13905315394169213,-0.5005350044588897,0.689546023853797,0.20946238528741984,-0.2186722015322305,0.2879545681663874,0.35230243154609914,0.6965699208443272,0.2717678100263852,0.13060686015831136,0.13984168865435356,0.2559366754617414,0.33311345646437995,0.39775725593667544,0.7915567282321899
473121,0.6254633203490227,0.3100162167799282,0.7023886392947314,-0.13905315394169213,-0.5005350044588897,0.689546023853797,0.20946238528741984,-0.2186722015322305,0.2879545681663874,0.35230243154609914,0.7506596306068601,0.316622691292876,0.17480211081794195,0.27506596306068604,0.28825857519788917,0.38192612137203164,0.4129287598944591,0.7908970976253298
488822,0.605092266550936,0.26522202157133873,0.7376862968779094,-0.13906673086119514,0.08086301519395722,0.7000451700221324,0.3366392877550546,-0.4693390875902818,0.49741469868130417,0.11828905480096266,0.7506596306068601,0.316622691292876,0.17480211081794195,0.27506596306068604,0.28825857519788917,0.38192612137203164,0.4129287598944591,0.7908970976253298
489659,0.605092266550936,0.26522202157133873,0.7376862968779094,-0.13906673086119514,0.08086301519395722,0.7000451700221324,0.3366392877550546,-0.4693390875902818,0.49741469868130417,0.11828905480096266,0.762532981530343,0.3027704485488127,0.20184696569920843,0.29683377308707126,0.31728232189973615,0.40105540897097625,0.4175461741424802,0.7440633245382586
511323,0.5952085446065227,0.24091673451647178,0.7510689882346189,-0.15356200822316232,0.06423753505032326,0.826817535025489,0.17240243177415926,-0.3128786072670007,0.4533697729520714,0.21530057438182282,0.762532981530343,0.3027704485488127,0.20184696569920843,0.29683377308707126,0.31728232189973615,0.40105540897097625,0.4175461741424802,0.7440633245382586
512115,0.5952085446065227,0.24091673451647178,0.7510689882346189,-0.15356200822316232,0.06423753505032326,0.826817535025489,0.17240243177415926,-0.3128786072670007,0.4533697729520714,0.21530057438182282,0.7282321899736148,0.30145118733509235,0.2011873350923483,0.3073878627968338,0.3159630606860158,0.40435356200527706,0.41490765171503957,0.6807387862796834
524967,0.6026882767737768,0.2851594503477746,0.7325526118181558,-0.13717725698966537,-0.19032591792798292,0.9495832275884442,0.09638966979576241,0.10235542296564876,0.535361995807442,0.1629257453434746,0.7282321899736148,0.30145118733509235,0.2011873350923483,0.3073878627968338,0.3159630606860158,0.40435356200527706,0.41490765171503957,0.6807387862796834
533146,0.6026882767737768,0.2851594503477746,0.7325526118181558,-0.13717725698966537,-0.19032591792798292,0.9495832275884442,0.09638966979576241,0.10235542296564876,0.535361995807442,0.1629257453434746,0.6154353562005277,0.2796833773087071,0.19195250659630606,0.3106860158311346,0.2941952506596306,0.4241424802110818,0.3575197889182058,0.5646437994722955
548204,0.6126900583179076,0.35205974800187373,0.7045741324811536,-0.06511618933633884,-0.31179727149641845,0.7893146796202068,0.06099931614308596,0.25842643501560225,0.7268087000300929,-0.013037267683289278,0.6154353562005277,0.2796833773087071,0.19195250659630606,0.3106860158311346,0.2941952506596306,0.4241424802110818,0.3575197889182058,0.5646437994722955
548984,0.6126900583179076,0.35205974800187373,0.7045741324811536,-0.06511618933633884,-0.31179727149641845,0.7893146796202068,0.06099931614308596,0.25842643501560225,0.7268087000300929,-0.013037267683289278,0.587730870712401,0.38192612137203164,0.18139841688654354,0.2922163588390501,0.21899736147757257,0.33509234828496043,0.39116094986807387,0.433377308707124
571358,0.6233276282499438,0.3925515873535458,0.6762858981381441,0.0018174449083324137,-0.3792314492136394,0.637740834933214,0.09942431618911496,0.15564628964287747,0.7523405573107862,0.018365102137761796,0.587730870712401,0.38192612137203164,0.18139841688654354,0.2922163588390501,0.21899736147757257,0.33509234828496043,0.39116094986807387,0.433377308707124
572122,0.6233276282499438,0.3925515873535458,0.6762858981381441,0.0018174449083324137,-0.3792314492136394,0.637740834933214,0.09942431618911496,0.15564628964287747,0.7523405573107862,0.018365102137761796,0.7222955145118733,0.3548812664907652,0.1378627968337731,0.17941952506596306,0.1741424802110818,0.36015831134564646,0.41226912928759896,0.3159630606860158
584997,0.631607770391773,0.3988747818142071,0.6607217172309949,0.07360261675190219,-0.2510443669666802,0.592795613527142,0.10314547641162133,-0.008995686148785709,0.8216521265839122,0.003310417166079077,0.7222955145118733,0.3548812664907652,0.1378627968337731,0.17941952506596306,0.1741424802110818,0.36015831134564646,0.41226912928759896,0.3159630606860158
593115,0.631607770391773,0.3988747818142071,0.6607217172309949,0.07360261675190219,-0.2510443669666802,0.592795613527142,0.10314547641162133,-0.008995686148785709,0.8216521265839122,0.003310417166079077,0.7915567282321899,0.35883905013192613,0.2434036939313984,0.22361477572559366,0.10751978891820581,0.34432717678100266,0.462401055408971,0.1866754617414248
607482,0.6205594379828516,0.40371505486076953,0.6547526336178247,0.15237823722466307,-0.09395279085922864,0.6251300259682134,0.032237283150344104,-0.07850497378072596,0.8178829672656702,-0.06907636407947382,0.7915567282321899,0.35883905013192613,0.2434036939313984,0.22361477572559366,0.10751978891820581,0.34432717678100266,0.462401055408971,0.1866754617414248
615607,0.6205594379828516,0.40371505486076953,0.6547526336178247,0.15237823722466307,-0.09395279085922864,0.6251300259682134,0.032237283150344104,-0.07850497378072596,0.8178829672656702,-0.06907636407947382,0.8054089709762533,0.36015831134564646,0.31464379947229554,0.2783641160949868,0.10488126649076517,0.33773087071240104,0.4419525065963061,0.4261213720316623
622547,0.6086982834813841,0.41175250126485385,0.6507112016844722,0.19110523119816283,0.03208275437699587,0.7032520907766202,-0.07117580357653538,-0.10879644660353618,0.6405686029664373,0.04552442371666515,0.8054089709762533,0.36015831134564646,0.31464379947229554,0.2783641160949868,0.10488126649076517,0.33773087071240104,0.4419525065963061,0.4261213720316623
630607,0.6086982834813841,0.41175250126485385,0.6507112016844722,0.19110523119816283,0.03208275437699587,0.7032520907766202,-0.07117580357653538,-0.10879644660353618,0.6405686029664373,0.04552442371666515,0.9175461741424802,0.40633245382585753,0.4320580474934037,0.2895778364116095,0.09366754617414248,0.29089709762532984,0.42282321899736147,0.612796833773087
644984,0.621638265754234,0.39735278078503655,0.657673212168741,0.15212685544675317,0.10440865800524052,0.8281642958512432,-0.09778825736451383,-0.22241664928213373,0.38760254530992044,0.34552311335217406,0.9175461741424802,0.40633245382585753,0.4320580474934037,0.2895778364116095,0.09366754617414248,0.29089709762532984,0.42282321899736147,0.612796833773087
653069,0.621638265754234,0.39735278078503655,0.657673212168741,0.15212685544675317,0.10440865800524052,0.8281642958512432,-0.09778825736451383,-0.22241664928213373,0.38760254530992044,0.34552311335217406,0.8911609498680739,0.300131926121372,0.4815303430079156,0.316622691292876,0.10224274406332454,0.27308707124010556,0.3548812664907652,0.7895778364116095
667470,0.6391534205994756,0.3959859498867062,0.655586489744171,0.0698883888298234,-0.08909336299521872,0.46076222711242826,0.05462419975750171,-0.18076187010924208,0.1731599097660826,0.49489748860610355,0.8911609498680739,0.300131926121372,0.4815303430079156,0.316622691292876,0.10224274406332454,0.27308707124010556,0.3548812664907652,0.7895778364116095
675590,0.6391534205994756,0.3959859498867062,0.655586489744171,0.0698883888298234,-0.08909336299521872,0.46076222711242826,0.05462419975750171,-0.18076187010924208,0.1731599097660826,0.49489748860610355,0.7724274406332454,0.37994722955145116,0.5521108179419525,0.3575197889182058,0.10488126649076517,0.21899736147757257,0.3080474934036939,0.866754617414248
698832,0.6412781672383578,0.41638422024985533,0.6435195133463341,-0.03562484095164157,-0.08524002934113842,0.4046697774110316,0.03390225400179869,-0.1076580998056684,0.03248779485055972,0.5195395668622732,0.7724274406332454,0.37994722955145116,0.5521108179419525,0.3575197889182058,0.10488126649076517,0.21899736147757257,0.3080474934036939,0.866754617414248
699618,0.6412781672383578,0.41638422024985533,0.6435195133463341,-0.03562484095164157,-0.08524002934113842,0.4046697774110316,0.03390225400179869,-0.1076580998056684,0.03248779485055972,0.5195395668622732,0.7084432717678101,0.46965699208443273,0.5098944591029023,0.31398416886543534,0.12071240105540897,0.23680738786279684,0.18997361477572558,0.9795514511873351
705070,0.6211853058613135,0.4147129022464936,0.6474070371350475,-0.1516777925745751,-0.35427938268686304,0.5454682664281333,-0.037399613043095074,-0.2809156022519236,-0.028883559444886242,0.49940108352899765,0.7084432717678101,0.46965699208443273,0.5098944591029023,0.31398416886543534,0.12071240105540897,0.23680738786279684,0.18997361477572558,0.9795514511873351
713130,0.6211853058613135,0.4147129022464936,0.6474070371350475,-0.1516777925745751,-0.35427938268686304,0.5454682664281333,-0.037399613043095074,-0.2809156022519236,-0.028883559444886242,0.49940108352899765,0.7341688654353562,0.6299472295514512,0.47559366754617416,0.27308707124010556,0.1424802110817942,0.2955145118733509,0.3482849604221636,0.9439313984168866
727473,0.6084634577766567,0.3841935306380747,0.6454233396173334,-0.25611767655422296,-0.6364060598093148,0.7273508547900879,-0.03219116383824401,-0.35924258263365916,0.07412015206886302,0.5046856915439056,0.7341688654353562,0.6299472295514512,0.47559366754617416,0.27308707124010556,0.1424802110817942,0.2955145118733509,0.3482849604221636,0.9439313984168866
735595,0.6084634577766567,0.3841935306380747,0.6454233396173334,-0.25611767655422296,-0.6364060598093148,0.7273508547900879,-0.03219116383824401,-0.35924258263365916,0.07412015206886302,0.5046856915439056,0.6602902374670184,0.7071240105540897,0.3812664907651715,0.34894459102902375,0.20448548812664907,0.3713720316622691,0.42216358839050133,0.8977572559366754
751297,0.5721859796558064,0.3598217619328279,0.6614597641696964,-0.32496535924533565,-0.334337023269291,0.6774038950776545,0.21153835715014885,-0.37615309703767186,0.1459460080151792,0.3223134581883209,0.6602902374670184,0.7071240105540897,0.3812664907651715,0.34894459102902375,0.20448548812664907,0.3713720316622691,0.42216358839050133,0.8977572559366754
752117,0.5721859796558064,0.3598217619328279,0.6614597641696964,-0.32496535924533565,-0.334337023269291,0.6774038950776545,0.21153835715014885,-0.37615309703767186,0.1459460080151792,0.3223134581883209,0.6246701846965699,0.728891820580475,0.329155672823219,0.3397097625329815,0.23218997361477572,0.4320580474934037,0.47229551451187335,0.8436675461741425
764970,0.5531898080563696,0.3039066742214144,0.6961851103246245,-0.3419766977273836,-0.13923830069758458,0.8303331888434009,0.1435542182081565,-0.5162491994096997,0.41657601113333237,0.14999226435212323,0.6246701846965699,0.728891820580475,0.329155672823219,0.3397097625329815,0.23218997361477572,0.4320580474934037,0.47229551451187335,0.8436675461741425
773109,0.5531898080563696,0.3039066742214144,0.6961851103246245,-0.3419766977273836,-0.13923830069758458,0.8303331888434009,0.1435542182081565,-0.5162491994096997,0.41657601113333237,0.14999226435212323,0.5514511873350924,0.7031662269129287,0.19854881266490765,0.2994722955145119,0.23812664907651715,0.42282321899736147,0.47559366754617416,0.825197889182058
787495,0.5603009822104625,0.2897437459976726,0.7036550665511702,-0.32707937615523164,-0.14815336322743639,0.7931991328428325,0.0546091384447146,-0.21924211755412257,0.5934530212079818,0.13652682005907157,0.5514511873350924,0.7031662269129287,0.19854881266490765,0.2994722955145119,0.23812664907651715,0.42282321899736147,0.47559366754617416,0.825197889182058
795581,0.5603009822104625,0.2897437459976726,0.7036550665511702,-0.32707937615523164,-0.14815336322743639,0.7931991328428325,0.0546091384447146,-0.21924211755412257,0.5934530212079818,0.13652682005907157,0.4894459102902375,0.6589709762532981,0.17612137203166228,0.29815303430079154,0.23746701846965698,0.42282321899736147,0.5244063324538258,0.7988126649076517
811273,0.5836747507684017,0.325937985696561,0.6953716198555394,-0.2637167516389427,-0.07825978692951685,0.7786946847032539,0.15059507222751362,0.09456253151788074,0.7850776020722272,0.03031946540182498,0.4894459102902375,0.6589709762532981,0.17612137203166228,0.29815303430079154,0.23746701846965698,0.42282321899736147,0.5244063324538258,0.7988126649076517
812121,0.5836747507684017,0.325937985696561,0.6953716198555394,-0.2637167516389427,-0.07825978692951685,0.7786946847032539,0.15059507222751362,0.09456253151788074,0.7850776020722272,0.03031946540182498,0.42018469656992086,0.5343007915567283,0.15633245382585753,0.2895778364116095,0.23614775725593667,0.3872031662269129,0.45976253298153036,0.8390501319261213
824966,0.599175180306053,0.3819769098612613,0.681262595571029,-0.17596596123647099,-0.2319027469988022,0.754036493837407,0.13186151196890067,0.2068169118586403,0.8393677322124218,-0.04925040324964988,0.42018469656992086,0.5343007915567283,0.15633245382585753,0.2895778364116095,0.23614775725593667,0.3872031662269129,0.45976253298153036,0.8390501319261213
833119,0.599175180306053,0.3819769098612613,0.681262595571029,-0.17596596123647099,-0.2319027469988022,0.754036493837407,0.13186151196890067,0.2068169118586403,0.8393677322124218,-0.04925040324964988,0.2843007915567282,0.5778364116094987,0.13720316622691292,0.18271767810026385,0.19722955145118734,0.3179419525065963,0.4399736147757256,0.7829815303430079
847463,0.610587237949317,0.4255282726378917,0.6621703231565441,-0.08740353064947701,-0.293491558963478,0.7692630199571764,0.05393952651918371,0.16711300664639206,0.8500157725367916,-0.04334236764754154,0.2843007915567282,0.5778364116094987,0.13720316622691292,0.18271767810026385,0.19722955145118734,0.3179419525065963,0.4399736147757256,0.7829815303430079
855594,0.610587237949317,0.4255282726378917,0.6621703231565441,-0.08740353064947701,-0.293491558963478,0.7692630199571764,0.05393952651918371,0.16711300664639206,0.8500157725367916,-0.04334236764754154,0.224934036939314,0.5534300791556728,0.10686015831134564,0.14313984168865435,0.1550131926121372,0.23812664907651715,0.4267810026385224,0.6893139841688655
871295,0.6152978761464113,0.45559892128007234,0.6432738413018015,0.00607549462795778,-0.2202836357104344,0.6542857867656559,0.061050545584289684,0.11211659348409597,0.8767655115809169,-0.06326370137693066,0.224934036939314,0.5534300791556728,0.10686015831134564,0.14313984168865435,0.1550131926121372,0.23812664907651715,0.4267810026385224,0.6893139841688655
872158,0.6152978761464113,0.45559892128007234,0.6432738413018015,0.00607549462795778,-0.2202836357104344,0.6542857867656559,0.061050545584289684,0.11211659348409597,0.8767655115809169,-0.06326370137693066,0.26187335092348285,0.5428759894459103,0.08245382585751979,0.12532981530343007,0.14116094986807387,0.20184696569920843,0.4386543535620053,0.6992084432717678
884998,0.60775892379986,0.4805221745072943,0.6241374790041483,0.10089567706677924,-0.14097084713731176,0.6057562323189346,0.0697275878284887,0.07983225645711373,0.8716791023774554,-0.0899232867915617,0.26187335092348285,0.5428759894459103,0.08245382585751979,0.12532981530343007,0.14116094986807387,0.20184696569920843,0.4386543535620053,0.6992084432717678
893068,0.60775892379986,0.4805221745072943,0.6241374790041483,0.10089567706677924,-0.14097084713731176,0.6057562323189346,0.0697275878284887,0.07983225645711373,0.8716791023774554,-0.0899232867915617,0.4386543535620053,0.5230870712401056,0.26187335092348285,0.18997361477572558,0.12730870712401055,0.17480211081794195,0.3845646437994723,0.6596306068601583
907468,0.5928985530693696,0.500136788654606,0.6054419892035022,0.1782540213061462,-0.06847277116582362,0.5741418598392615,0.030611187204320933,0.0221802206943168,0.7836435855579931,-0.049036485456965095,0.4386543535620053,0.5230870712401056,0.26187335092348285,0.18997361477572558,0.12730870712401055,0.17480211081794195,0.3845646437994723,0.6596306068601583
915590,0.5928985530693696,0.500136788654606,0.6054419892035022,0.1782540213061462,-0.06847277116582362,0.5741418598392615,0.030611187204320933,0.0221802206943168,0.7836435855579931,-0.049036485456965095,0.4544854881266491,0.49340369393139843,0.3080474934036939,0.20448548812664907,0.10158311345646438,0.15699208443271767,0.35422163588390504,0.6813984168865436
931310,0.5833464268920805,0.5085922911858315,0.601215745297452,0.1989483731650456,0.011192536578320034,0.6149434524212694,-0.06188491944140172,-0.10732370448418338,0.5724876490679129,0.10849574823338076,0.4544854881266491,0.49340369393139843,0.3080474934036939,0.20448548812664907,0.10158311345646438,0.15699208443271767,0.35422163588390504,0.6813984168865436
932168,0.5833464268920805,0.5085922911858315,0.601215745297452,0.1989483731650456,0.011192536578320034,0.6149434524212694,-0.06188491944140172,-0.10732370448418338,0.5724876490679129,0.10849574823338076,0.49142480211081796,0.22691292875989447,0.3258575197889182,0.19525065963060687,0.06662269129287599,0.14841688654353563,0.2816622691292876,0.8265171503957783
944963,0.584317239834972,0.5103266910150542,0.6083342476466458,0.1675394723921929,-0.002867325782861363,0.6416154958756533,-0.01222643774768642,-0.22954351000823353,0.3583146599775453,0.2714701180353807,0.49142480211081796,0.22691292875989447,0.3258575197889182,0.19525065963060687,0.06662269129287599,0.14841688654353563,0.2816622691292876,0.8265171503957783
953131,0.584317239834972,0.5103266910150542,0.6083342476466458,0.1675394723921929,-0.002867325782861363,0.6416154958756533,-0.01222643774768642,-0.22954351000823353,0.3583146599775453,0.2714701180353807,0.5145118733509235,0.31200527704485487,0.4340369393139842,0.20844327176781002,0.0633245382585752,0.11279683377308707,0.21372031662269128,0.9129287598944591
967445,0.5837678106836443,0.5144716719033846,0.6187353150793165,0.10816955159498333,-0.053544700734042994,0.5796194744518741,0.025842813732109088,-0.26670982428837736,0.22203926726241013,0.34105221718340717,0.5145118733509235,0.31200527704485487,0.4340369393139842,0.20844327176781002,0.0633245382585752,0.11279683377308707,0.21372031662269128,0.9129287598944591
975622,0.5837678106836443,0.5144716719033846,0.6187353150793165,0.10816955159498333,-0.053544700734042994,0.5796194744518741,0.025842813732109088,-0.26670982428837736,0.22203926726241013,0.34105221718340717,0.5065963060686016,0.37730870712401055,0.5145118733509235,0.2994722955145119,0.08443271767810026,0.10686015831134564,0.19195250659630606,1
989960,0.5802478290488277,0.5067935730800219,0.6373275969620582,0.016919377041580187,-0.060774320473754306,0.5783357546162362,-0.05490876849139108,-0.3625953416465185,0.11465362809897156,0.41366380193715746,0.5065963060686016,0.37730870712401055,0.5145118733509235,0.2994722955145119,0.08443271767810026,0.10686015831134564,0.19195250659630606,1
998116,0.5802478290488277,0.5067935730800219,0.6373275969620582,0.016919377041580187,-0.060774320473754306,0.5783357546162362,-0.05490876849139108,-0.3625953416465185,0.11465362809897156,0.41366380193715746,0.4736147757255937,0.3937994722955145,0.4920844327176781,0.30408970976253297,0.13390501319261214,0.11939313984168866,0.25659630606860157,0.9920844327176781
1005044,0.5723561429086935,0.4654446840851437,0.668113194973597,-0.09692497322019877,-0.3768267475627303,0.6865304907776683,-0.1550226893831739,-0.5517088509666362,0.0657229974669496,0.46899851830545697,0.4736147757255937,0.3937994722955145,0.4920844327176781,0.30408970976253297,0.13390501319261214,0.11939313984168866,0.25659630606860157,0.9920844327176781
1012482,0.5723561429086935,0.4654446840851437,0.668113194973597,-0.09692497322019877,-0.3768267475627303,0.6865304907776683,-0.1550226893831739,-0.5517088509666362,0.0657229974669496,0.46899851830545697,0.5026385224274407,0.40435356200527706,0.4782321899736148,0.3106860158311346,0.1536939313984169,0.2038258575197889,0.28298153034300794,0.941952506596306
1027620,0.5822073434961098,0.4158377847606984,0.670266431516412,-0.19712041174564507,-0.5239464488384104,0.8141701776884681,-0.06341130781693899,-0.4493513040359705,0.17718899686047235,0.5205777141148011,0.5026385224274407,0.40435356200527706,0.4782321899736148,0.3106860158311346,0.1536939313984169,0.2038258575197889,0.28298153034300794,0.941952506596306
1035635,0.5822073434961098,0.4158377847606984,0.670266431516412,-0.19712041174564507,-0.5239464488384104,0.8141701776884681,-0.06341130781693899,-0.4493513040359705,0.17718899686047235,0.5205777141148011,0.5587071240105541,0.5079155672823219,0.5032981530343008,0.35158311345646437,0.18403693931398418,0.24802110817941952,0.3555408970976253,0.8469656992084432
1049984,0.564652472146172,0.404661759836487,0.6671054920589512,-0.2690477806822394,-0.29049682260315757,0.7432240564344785,0.10102111413736631,-0.27222468910173303,0.182245995220144,0.388590009178351,0.5587071240105541,0.5079155672823219,0.5032981530343008,0.35158311345646437,0.18403693931398418,0.24802110817941952,0.3555408970976253,0.8469656992084432
1058135,0.564652472146172,0.404661759836487,0.6671054920589512,-0.2690477806822394,-0.29049682260315757,0.7432240564344785,0.10102111413736631,-0.27222468910173303,0.182245995220144,0.388590009178351,0.6029023746701847,0.6154353562005277,0.42480211081794195,0.35422163588390504,0.2262532981530343,0.3212401055408971,0.4953825857519789,0.8218997361477572
1065092,0.5277590403743551,0.3885952057711627,0.6825273361075466,-0.32345107330281636,-0.08631386057444412,0.790399077308451,0.11918433613336102,-0.34139195227361785,0.2015750817447464,0.26807899060270557,0.6029023746701847,0.6154353562005277,0.42480211081794195,0.35422163588390504,0.2262532981530343,0.3212401055408971,0.4953825857519789,0.8218997361477572
1080621,0.5277590403743551,0.3885952057711627,0.6825273361075466,-0.32345107330281636,-0.08631386057444412,0.790399077308451,0.11918433613336102,-0.34139195227361785,0.2015750817447464,0.26807899060270557,0.7453825857519789,0.6398416886543535,0.3370712401055409,0.3080474934036939,0.26715039577836414,0.4393139841688654,0.58311345646438,0.7150395778364116
1087589,0.49883569135334643,0.3619721551833275,0.7022514952876423,-0.3563452669395741,-0.16983027076808033,0.6793856075228928,0.17942884759052594,-0.3718393886261039,0.31693348777914465,0.2048296002607002,0.7453825857519789,0.6398416886543535,0.3370712401055409,0.3080474934036939,0.26715039577836414,0.4393139841688654,0.58311345646438,0.7150395778364116
1095612,0.49883569135334643,0.3619721551833275,0.7022514952876423,-0.3563452669395741,-0.16983027076808033,0.6793856075228928,0.17942884759052594,-0.3718393886261039,0.31693348777914465,0.2048296002607002,0.8740105540897097,0.6866754617414248,0.27506596306068604,0.2711081794195251,0.24934036939313983,0.45844327176781,0.5804749340369393,0.6642480211081794
1109934,0.4902132301803356,0.35914563861196036,0.7151071390694164,-0.34543766279044114,-0.260839906235367,0.7371024389247121,0.08714011176768607,-0.18732585036021354,0.5220910436913597,0.119096524899731,0.8740105540897097,0.6866754617414248,0.27506596306068604,0.2711081794195251,0.24934036939313983,0.45844327176781,0.5804749340369393,0.6642480211081794
1118115,0.4902132301803356,0.35914563861196036,0.7151071390694164,-0.34543766279044114,-0.260839906235367,0.7371024389247121,0.08714011176768607,-0.18732585036021354,0.5220910436913597,0.119096524899731,0.8845646437994723,0.7071240105540897,0.24934036939313983,0.24472295514511874,0.24010554089709762,0.44591029023746703,0.5804749340369393,0.6846965699208444
1125045,0.5019544334335948,0.3927746013343588,0.7199461829495786,-0.2746768154747071,-0.10774121758785915,0.8668317257650856,0.01857732787462338,0.07984285563811411,0.7714911601489924,-0.010669835281861023,0.8845646437994723,0.7071240105540897,0.24934036939313983,0.24472295514511874,0.24010554089709762,0.44591029023746703,0.5804749340369393,0.6846965699208444
1140597,0.5019544334335948,0.3927746013343588,0.7199461829495786,-0.2746768154747071,-0.10774121758785915,0.8668317257650856,0.01857732787462338,0.07984285563811411,0.7714911601489924,-0.010669835281861023,0.829155672823219,0.7348284960422163,0.15897097625329815,0.17941952506596306,0.22889182058047494,0.43271767810026385,0.5507915567282322,0.6926121372031663
1147564,0.516446337735577,0.4325443452891085,0.7138690159649577,-0.19125793485016465,-0.15300730844285182,0.8114937094328312,0.08948240498988247,0.15246309767702088,0.820383093592407,-0.019834271799096692,0.829155672823219,0.7348284960422163,0.15897097625329815,0.17941952506596306,0.22889182058047494,0.43271767810026385,0.5507915567282322,0.6926121372031663
1155593,0.516446337735577,0.4325443452891085,0.7138690159649577,-0.19125793485016465,-0.15300730844285182,0.8114937094328312,0.08948240498988247,0.15246309767702088,0.820383093592407,-0.019834271799096692,0.7843007915567283,0.7084432717678101,0.12467018469656992,0.16094986807387862,0.18601583113456466,0.3865435356200528,0.4894459102902375,0.7631926121372031
1169970,0.5247549838886599,0.4711802270787077,0.7006504941891016,-0.10821407249816004,-0.21045544898466365,0.7778546105378288,0.0675320211729486,0.1615358661306907,0.804201957119709,-0.015120621475100793,0.7843007915567283,0.7084432717678101,0.12467018469656992,0.16094986807387862,0.18601583113456466,0.3865435356200528,0.4894459102902375,0.7631926121372031
1178110,0.5247549838886599,0.4711802270787077,0.7006504941891016,-0.10821407249816004,-0.21045544898466365,0.7778546105378288,0.0675320211729486,0.1615358661306907,0.804201957119709,-0.015120621475100793,0.6312664907651715,0.7295514511873351,0.07321899736147758,0.10290237467018469,0.10686015831134564,0.25065963060686014,0.39313984168865435,0.7730870712401056
1185054,0.5282983888359858,0.5009894884639287,0.6851639414680034,-0.021464345179452178,-0.15484014988183592,0.7090050803422558,0.06820655795880437,0.13520265681593874,0.8230470724763096,-0.029873309738067483,0.6312664907651715,0.7295514511873351,0.07321899736147758,0.10290237467018469,0.10686015831134564,0.25065963060686014,0.39313984168865435,0.7730870712401056
1200594,0.5282983888359858,0.5009894884639287,0.6851639414680034,-0.021464345179452178,-0.15484014988183592,0.7090050803422558,0.06820655795880437,0.13520265681593874,0.8230470724763096,-0.029873309738067483,0.32189973614775724,0.691952506596306,0.06398416886543536,0.09102902374670185,0.09696569920844327,0.20514511873350924,0.35158311345646437,0.8529023746701847
