Timestamp, Orientation x, Orientation y, Orientation z, Orientation w, Acceleration x, Acceleration y, Acceleration z, Rotation x, Rotation y, Rotation z, EMG 0, EMG 1, EMG 2, EMG 3, EMG 4, EMG 5, EMG 6, EMG 7
0,0.819482420167889,0.39055452772495575,-0.3909838025547301,-0.15181366884823028,-0.9251956417648635,0.2838186936600189,-0.006151607414238765,-0.8831873716829663,0.1895303462438473,0.16802686298912475,0,0,0,0,0,0,0,0
7491,0.8156317956218081,0.4353732423521669,-0.3760669309087395,-0.061388739125249725,-0.9642108854746387,0.30242726858881563,-0.09121003937553579,-0.9859798337296022,0.21137847516921043,0.17218748022736574,0,0,0,0,0,0,0,0
15014,0.8167104856024893,0.4626887994438035,-0.3389195615936618,0.0635341510162693,-0.9902351095872409,0.41393284490128845,-0.04040200406526885,-1.0496641911079083,0.1748231689425213,0.23770158294944066,0,0,0,0,0,0,0,0
37470,0.8148998547056925,0.4708834197086357,-0.27953843011784874,0.18990865681003233,-0.980080625667261,0.45392573163068556,0.03784464605996396,-1.0387199306176358,0.1478125564557065,0.28768103176520055,0,0,0,0,0,0,0,0
52508,0.810375488679399,0.47576930220673097,-0.21151632131584558,0.2686931041957671,-0.8486738152663406,0.4847359114010469,0.12816901916715037,-0.9187283584045542,0.1391556649357767,0.29499744373568415,0,0,0,0,0,0,0,0
68128,0.810375488679399,0.47576930220673097,-0.21151632131584558,0.2686931041957671,-0.8486738152663406,0.4847359114010469,0.12816901916715037,-0.9187283584045542,0.1391556649357767,0.29499744373568415,0.42337662337662335,0.18961038961038962,0.19220779220779222,0.3038961038961039,0.34285714285714286,0.33506493506493507,0.2753246753246753,0.2649350649350649
75069,0.792723324492421,0.49704452176757596,-0.1813741134114022,0.3027208370277034,-0.8723303718995605,0.385628456007989,0.14319326892046033,-0.8198359402479765,0.19100298668252352,0.20035824150388926,0.42337662337662335,0.18961038961038962,0.19220779220779222,0.3038961038961039,0.34285714285714286,0.33506493506493507,0.2753246753246753,0.2649350649350649
90590,0.792723324492421,0.49704452176757596,-0.1813741134114022,0.3027208370277034,-0.8723303718995605,0.385628456007989,0.14319326892046033,-0.8198359402479765,0.19100298668252352,0.20035824150388926,0.42857142857142855,0.19480519480519481,0.21558441558441557,0.2571428571428571,0.4103896103896104,0.4155844155844156,0.36623376623376624,0.2831168831168831
97541,0.7754086575467855,0.5233785448839702,-0.1915203250833461,0.29687754653493026,-0.9402520095743346,0.3907144275186536,0.15623691812721113,-0.72076194120617,0.2672396841137021,0.14545447945288245,0.42857142857142855,0.19480519480519481,0.21558441558441557,0.2571428571428571,0.4103896103896104,0.4155844155844156,0.36623376623376624,0.2831168831168831
113802,0.7754086575467855,0.5233785448839702,-0.1915203250833461,0.29687754653493026,-0.9402520095743346,0.3907144275186536,0.15623691812721113,-0.72076194120617,0.2672396841137021,0.14545447945288245,0.3974025974025974,0.23636363636363636,0.24155844155844156,0.24675324675324675,0.4883116883116883,0.4623376623376623,0.37142857142857144,0.2727272727272727
115585,0.7760478288854015,0.5424007158404034,-0.24520070133674007,0.20839349030630372,-0.9771963160920012,0.430631467581914,0.05473113058385863,-0.4990936139307496,0.3846262430629168,0.13298936701962202,0.3974025974025974,0.23636363636363636,0.24155844155844156,0.24675324675324675,0.4883116883116883,0.4623376623376623,0.37142857142857144,0.2727272727272727
128166,0.7760478288854015,0.5424007158404034,-0.24520070133674007,0.20839349030630372,-0.9771963160920012,0.430631467581914,0.05473113058385863,-0.4990936139307496,0.3846262430629168,0.13298936701962202,0.34545454545454546,0.24675324675324675,0.24675324675324675,0.2779220779220779,0.4883116883116883,0.4701298701298701,0.38701298701298703,0.2831168831168831
135092,0.8073744393817801,0.5051088115007665,-0.2879602029372925,0.10045160377790213,-1.0718181721635769,0.536376995259743,-0.04265316700421001,-0.41133170059508295,0.44556694847180345,0.2785569130363432,0.34545454545454546,0.24675324675324675,0.24675324675324675,0.2779220779220779,0.4883116883116883,0.4701298701298701,0.38701298701298703,0.2831168831168831
150615,0.8073744393817801,0.5051088115007665,-0.2879602029372925,0.10045160377790213,-1.0718181721635769,0.536376995259743,-0.04265316700421001,-0.41133170059508295,0.44556694847180345,0.2785569130363432,0.3168831168831169,0.2883116883116883,0.23896103896103896,0.2779220779220779,0.4935064935064935,0.4623376623376623,0.37402597402597404,0.2675324675324675
157594,0.831026203240882,0.4399067859395615,-0.3385829276748962,-0.03520043037329548,-0.9681688778481468,0.4151745807539624,-0.03708127689267167,-0.3315510122620463,0.502809405741596,0.30628332220594867,0.3168831168831169,0.2883116883116883,0.23896103896103896,0.2779220779220779,0.4935064935064935,0.4623376623376623,0.37402597402597404,0.2675324675324675
173831,0.831026203240882,0.4399067859395615,-0.3385829276748962,-0.03520043037329548,-0.9681688778481468,0.4151745807539624,-0.03708127689267167,-0.3315510122620463,0.502809405741596,0.30628332220594867,0.38961038961038963,0.4051948051948052,0.2779220779220779,0.2753246753246753,0.4909090909090909,0.4597402597402597,0.35584415584415585,0.24675324675324675
175587,0.8330492505390286,0.36085930441579805,-0.37345820873241153,-0.19062653257951173,-0.9759785304991431,0.3166519778977071,-0.033114344496256824,-0.2725602754221965,0.4888123670375177,0.310248479045148,0.38961038961038963,0.4051948051948052,0.2779220779220779,0.2753246753246753,0.4909090909090909,0.4597402597402597,0.35584415584415585,0.24675324675324675
188091,0.8330492505390286,0.36085930441579805,-0.37345820873241153,-0.19062653257951173,-0.9759785304991431,0.3166519778977071,-0.033114344496256824,-0.2725602754221965,0.4888123670375177,0.310248479045148,0.4,0.4701298701298701,0.3220779220779221,0.34025974025974026,0.6935064935064935,0.7766233766233767,0.5636363636363636,0.4025974025974026
195065,0.829429778990303,0.33855133474942267,-0.36617420737931333,-0.2516856875422464,-0.575148930120104,-0.15605320329936018,-0.08845394974600922,-0.547112293083584,0.3132087308703343,0.23997360182004163,0.4,0.4701298701298701,0.3220779220779221,0.34025974025974026,0.6935064935064935,0.7766233766233767,0.5636363636363636,0.4025974025974026
210570,0.829429778990303,0.33855133474942267,-0.36617420737931333,-0.2516856875422464,-0.575148930120104,-0.15605320329936018,-0.08845394974600922,-0.547112293083584,0.3132087308703343,0.23997360182004163,0.4753246753246753,0.4909090909090909,0.34545454545454546,0.5168831168831168,0.8233766233766234,0.8701298701298701,0.6597402597402597,0.45714285714285713
217523,0.8313825810231052,0.36585663967944854,-0.3436709517728129,-0.23841602312216992,-0.8559947786458909,0.1404737110218563,0.18750437345928084,-0.77253231081546,0.21408499410200335,0.17628212620246658,0.4753246753246753,0.4909090909090909,0.34545454545454546,0.5168831168831168,0.8233766233766234,0.8701298701298701,0.6597402597402597,0.45714285714285713
233835,0.8313825810231052,0.36585663967944854,-0.3436709517728129,-0.23841602312216992,-0.8559947786458909,0.1404737110218563,0.18750437345928084,-0.77253231081546,0.21408499410200335,0.17628212620246658,0.5324675324675324,0.5662337662337662,0.4155844155844156,0.6051948051948052,0.9194805194805195,0.8883116883116883,0.6831168831168831,0.5298701298701298
235583,0.8433252980217514,0.42493926650282865,-0.3030337001281851,-0.12806107170871028,-0.9547009605121766,0.2696303624634845,-0.01829707648556418,-1.0356257278472119,0.11547849810442978,0.15823600464200996,0.5324675324675324,0.5662337662337662,0.4155844155844156,0.6051948051948052,0.9194805194805195,0.8883116883116883,0.6831168831168831,0.5298701298701298
248166,0.8433252980217514,0.42493926650282865,-0.3030337001281851,-0.12806107170871028,-0.9547009605121766,0.2696303624634845,-0.01829707648556418,-1.0356257278472119,0.11547849810442978,0.15823600464200996,0.6207792207792208,0.6077922077922078,0.43636363636363634,0.625974025974026,0.9272727272727272,0.9012987012987013,0.6831168831168831,0.6103896103896104
255068,0.8486648636766951,0.4505981658056597,-0.2764211868729223,0.01790445701373633,-1.0082819443057807,0.3383378353101222,-0.16383188082593786,-1.107757104063911,0.18563296550052116,0.2180561459129396,0.6207792207792208,0.6077922077922078,0.43636363636363634,0.625974025974026,0.9272727272727272,0.9012987012987013,0.6831168831168831,0.6103896103896104
270606,0.8486648636766951,0.4505981658056597,-0.2764211868729223,0.01790445701373633,-1.0082819443057807,0.3383378353101222,-0.16383188082593786,-1.107757104063911,0.18563296550052116,0.2180561459129396,0.5714285714285714,0.5454545454545454,0.4103896103896104,0.6181818181818182,0.8883116883116883,0.8649350649350649,0.6753246753246753,0.6103896103896104
277584,0.8568744640026893,0.4399258884086792,-0.20958590655884896,0.16824123578909977,-1.0148687306134248,0.43132981011978194,-0.016196027431418673,-1.0864262182489046,0.12728277628562867,0.32412926913406914,0.5714285714285714,0.5454545454545454,0.4103896103896104,0.6181818181818182,0.8883116883116883,0.8649350649350649,0.6753246753246753,0.6103896103896104
293740,0.8568744640026893,0.4399258884086792,-0.20958590655884896,0.16824123578909977,-1.0148687306134248,0.43132981011978194,-0.016196027431418673,-1.0864262182489046,0.12728277628562867,0.32412926913406914,0.5844155844155844,0.4909090909090909,0.36363636363636365,0.5818181818181818,0.6987012987012987,0.5662337662337662,0.4753246753246753,0.5324675324675324
295518,0.8528656944058052,0.42644053614940336,-0.12802462117154462,0.27272380315659217,-0.7687160632875769,0.4573954314472798,0.14233833398682802,-0.9721721600112162,0.11086651518938317,0.32810029675143837,0.5844155844155844,0.4909090909090909,0.36363636363636365,0.5818181818181818,0.6987012987012987,0.5662337662337662,0.4753246753246753,0.5324675324675324
308105,0.8528656944058052,0.42644053614940336,-0.12802462117154462,0.27272380315659217,-0.7687160632875769,0.4573954314472798,0.14233833398682802,-0.9721721600112162,0.11086651518938317,0.32810029675143837,0.5532467532467532,0.4753246753246753,0.35064935064935066,0.44155844155844154,0.6623376623376623,0.4,0.36623376623376624,0.4961038961038961
315085,0.8162015399898028,0.46302046368257177,-0.10129290116915003,0.3304040624783349,-0.8389516344948427,0.4414191550584221,0.0897515958393949,-0.888329126999408,0.15119642062911892,0.14525515987080445,0.5532467532467532,0.4753246753246753,0.35064935064935066,0.44155844155844154,0.6623376623376623,0.4,0.36623376623376624,0.4961038961038961
330565,0.8162015399898028,0.46302046368257177,-0.10129290116915003,0.3304040624783349,-0.8389516344948427,0.4414191550584221,0.0897515958393949,-0.888329126999408,0.15119642062911892,0.14525515987080445,0.5012987012987012,0.43376623376623374,0.3168831168831169,0.2883116883116883,0.7896103896103897,0.38961038961038963,0.3142857142857143,0.4155844155844156
337545,0.7976280330216006,0.49981831618234973,-0.12371084810676419,0.31411271513174743,-1.0084716231053115,0.4036364306189585,0.09550777111942138,-0.6916629795000903,0.2768208376129691,0.11974725704528282,0.5012987012987012,0.43376623376623374,0.3168831168831169,0.2883116883116883,0.7896103896103897,0.38961038961038963,0.3142857142857143,0.4155844155844156
353831,0.7976280330216006,0.49981831618234973,-0.12371084810676419,0.31411271513174743,-1.0084716231053115,0.4036364306189585,0.09550777111942138,-0.6916629795000903,0.2768208376129691,0.11974725704528282,0.3922077922077922,0.43896103896103894,0.3142857142857143,0.2545454545454545,0.8701298701298701,0.4077922077922078,0.3194805194805195,0.3064935064935065
355545,0.8069597568862167,0.5220673588757144,-0.18281591596505303,0.20697817380712574,-1.0624806231375978,0.418894524378673,-0.00023222366941642175,-0.4404210201425671,0.40472222856505735,0.14472372539714604,0.3922077922077922,0.43896103896103894,0.3142857142857143,0.2545454545454545,0.8701298701298701,0.4077922077922078,0.3194805194805195,0.3064935064935065
368180,0.8069597568862167,0.5220673588757144,-0.18281591596505303,0.20697817380712574,-1.0624806231375978,0.418894524378673,-0.00023222366941642175,-0.4404210201425671,0.40472222856505735,0.14472372539714604,0.34805194805194806,0.45454545454545453,0.3064935064935065,0.24935064935064935,0.8675324675324675,0.3974025974025974,0.3116883116883117,0.2831168831168831
375067,0.8314501925720985,0.49321444387652924,-0.24465738458445996,0.07465154915792552,-1.0180146570305848,0.4363189879084881,-0.021254523152130153,-0.36175610983979223,0.49423159065856215,0.24814219800553813,0.34805194805194806,0.45454545454545453,0.3064935064935065,0.24935064935064935,0.8675324675324675,0.3974025974025974,0.3116883116883117,0.2831168831168831
390617,0.8314501925720985,0.49321444387652924,-0.24465738458445996,0.07465154915792552,-1.0180146570305848,0.4363189879084881,-0.021254523152130153,-0.36175610983979223,0.49423159065856215,0.24814219800553813,0.2961038961038961,0.4701298701298701,0.2961038961038961,0.24155844155844156,0.8701298701298701,0.36103896103896105,0.2753246753246753,0.23116883116883116
397580,0.8388817808737488,0.4448460515018702,-0.3058179024382216,-0.06974782240020051,-0.9304828351418077,0.3626592112683568,-0.008491127622782518,-0.330395054403845,0.5182761519860398,0.2610456559895947,0.2961038961038961,0.4701298701298701,0.2961038961038961,0.24155844155844156,0.8701298701298701,0.36103896103896105,0.2753246753246753,0.23116883116883116
413749,0.8388817808737488,0.4448460515018702,-0.3058179024382216,-0.06974782240020051,-0.9304828351418077,0.3626592112683568,-0.008491127622782518,-0.330395054403845,0.5182761519860398,0.2610456559895947,0.24415584415584415,0.4623376623376623,0.2753246753246753,0.23376623376623376,0.7844155844155845,0.36623376623376624,0.2077922077922078,0.18961038961038962
415547,0.8252547596313227,0.37878757260935236,-0.3560812341565348,-0.22063705768551495,-0.9541403642644245,0.29311584696485143,-0.010428330273837466,-0.3025416995477811,0.5176913823591294,0.2743777160285889,0.24415584415584415,0.4623376623376623,0.2753246753246753,0.23376623376623376,0.7844155844155845,0.36623376623376624,0.2077922077922078,0.18961038961038962
428090,0.8252547596313227,0.37878757260935236,-0.3560812341565348,-0.22063705768551495,-0.9541403642644245,0.29311584696485143,-0.010428330273837466,-0.3025416995477811,0.5176913823591294,0.2743777160285889,0.2883116883116883,0.43116883116883115,0.24675324675324675,0.35324675324675325,0.6233766233766234,0.43636363636363634,0.2519480519480519,0.23376623376623376
435041,0.8161993228414801,0.35300329126882013,-0.3542600272320283,-0.2893219225223911,-0.7050631567844994,-0.016933985373356802,0.010190496212730334,-0.5266866818073096,0.330922675183337,0.2396520924718637,0.2883116883116883,0.43116883116883115,0.24675324675324675,0.35324675324675325,0.6233766233766234,0.43636363636363634,0.2519480519480519,0.23376623376623376
450577,0.8161993228414801,0.35300329126882013,-0.3542600272320283,-0.2893219225223911,-0.7050631567844994,-0.016933985373356802,0.010190496212730334,-0.5266866818073096,0.330922675183337,0.2396520924718637,0.4675324675324675,0.42337662337662335,0.23116883116883116,0.4025974025974026,0.5428571428571428,0.42337662337662335,0.24935064935064935,0.3194805194805195
457572,0.8219646694944995,0.3801796937537835,-0.33361632827915605,-0.26179692142118854,-0.8571579786612085,0.0979613533930398,0.1616791734695815,-0.8097419956211137,0.21608987415736056,0.18307390265407786,0.4675324675324675,0.42337662337662335,0.23116883116883116,0.4025974025974026,0.5428571428571428,0.42337662337662335,0.24935064935064935,0.3194805194805195
473814,0.8219646694944995,0.3801796937537835,-0.33361632827915605,-0.26179692142118854,-0.8571579786612085,0.0979613533930398,0.1616791734695815,-0.8097419956211137,0.21608987415736056,0.18307390265407786,0.5402597402597402,0.4779220779220779,0.3064935064935065,0.4103896103896104,0.5948051948051948,0.43376623376623374,0.24935064935064935,0.3922077922077922
475544,0.8348853322198424,0.43928145056383944,-0.29387705023159477,-0.15373538493746097,-0.9018977511934132,0.27090899335904417,-0.0012262357013556394,-1.0341037467878673,0.12511551752320094,0.15226287829237278,0.5402597402597402,0.4779220779220779,0.3064935064935065,0.4103896103896104,0.5948051948051948,0.43376623376623374,0.24935064935064935,0.3922077922077922
488095,0.8348853322198424,0.43928145056383944,-0.29387705023159477,-0.15373538493746097,-0.9018977511934132,0.27090899335904417,-0.0012262357013556394,-1.0341037467878673,0.12511551752320094,0.15226287829237278,0.6675324675324675,0.5428571428571428,0.34025974025974026,0.43636363636363634,0.6233766233766234,0.4623376623376623,0.2701298701298701,0.5194805194805194
495026,0.8410635998906365,0.47691847784845687,-0.25482489019752996,-0.015002058576449179,-0.9487495630029592,0.3194154093999306,-0.11111913213337321,-1.0969088910773808,0.14769707389566267,0.19213398366132828,0.6675324675324675,0.5428571428571428,0.34025974025974026,0.43636363636363634,0.6233766233766234,0.4623376623376623,0.2701298701298701,0.5194805194805194
510618,0.8410635998906365,0.47691847784845687,-0.25482489019752996,-0.015002058576449179,-0.9487495630029592,0.3194154093999306,-0.11111913213337321,-1.0969088910773808,0.14769707389566267,0.19213398366132828,0.7220779220779221,0.5376623376623376,0.34285714285714286,0.43376623376623374,0.561038961038961,0.42857142857142855,0.3168831168831169,0.6467532467532467
517568,0.848046941745342,0.4748020096711816,-0.1961020074054735,0.13009011838000284,-1.025123028498325,0.4405359952926376,-0.0827151088458995,-1.087974723805544,0.14193115362602832,0.28379078155058296,0.7220779220779221,0.5376623376623376,0.34285714285714286,0.43376623376623374,0.561038961038961,0.42857142857142855,0.3168831168831169,0.6467532467532467
533792,0.848046941745342,0.4748020096711816,-0.1961020074054735,0.13009011838000284,-1.025123028498325,0.4405359952926376,-0.0827151088458995,-1.087974723805544,0.14193115362602832,0.28379078155058296,0.7402597402597403,0.5298701298701298,0.33766233766233766,0.33506493506493507,0.45194805194805193,0.37142857142857144,0.3064935064935065,0.6363636363636364
535559,0.8485052617114857,0.4540930047324747,-0.12664715763232823,0.2404139375423318,-0.9398038493246528,0.4889603631308779,0.060492508096569246,-0.9998613019106648,0.1496913315109606,0.32709379821884055,0.7402597402597403,0.5298701298701298,0.33766233766233766,0.33506493506493507,0.45194805194805193,0.37142857142857144,0.3064935064935065,0.6363636363636364
548115,0.8485052617114857,0.4540930047324747,-0.12664715763232823,0.2404139375423318,-0.9398038493246528,0.4889603631308779,0.060492508096569246,-0.9998613019106648,0.1496913315109606,0.32709379821884055,0.6467532467532467,0.4649350649350649,0.3246753246753247,0.2753246753246753,0.5454545454545454,0.4,0.33246753246753247,0.6155844155844156
555071,0.82904627410825,0.4728262073607177,-0.08394639543995139,0.28647976492720656,-0.6699852521081736,0.3088648945385295,0.1833064842072447,-0.8395054771502477,0.14971909339752837,0.21342810295017187,0.6467532467532467,0.4649350649350649,0.3246753246753247,0.2753246753246753,0.5454545454545454,0.4,0.33246753246753247,0.6155844155844156
570580,0.82904627410825,0.4728262073607177,-0.08394639543995139,0.28647976492720656,-0.6699852521081736,0.3088648945385295,0.1833064842072447,-0.8395054771502477,0.14971909339752837,0.21342810295017187,0.5974025974025974,0.4,0.2753246753246753,0.2623376623376623,0.6493506493506493,0.42337662337662335,0.3220779220779221,0.5792207792207792
577586,0.8144224460732461,0.4991812639025266,-0.0903438352750146,0.2817306098537182,-0.9842965606467207,0.36996772602792394,0.14016450940859831,-0.7124253726129278,0.2602363119660146,0.15762619137592446,0.5974025974025974,0.4,0.2753246753246753,0.2623376623376623,0.6493506493506493,0.42337662337662335,0.3220779220779221,0.5792207792207792
593803,0.8144224460732461,0.4991812639025266,-0.0903438352750146,0.2817306098537182,-0.9842965606467207,0.36996772602792394,0.14016450940859831,-0.7124253726129278,0.2602363119660146,0.15762619137592446,0.4701298701298701,0.38961038961038963,0.2857142857142857,0.21038961038961038,0.7584415584415585,0.41818181818181815,0.3116883116883117,0.4805194805194805
595570,0.8045139692367037,0.5349229637259596,-0.1390565673808289,0.21743497246280546,-1.0088751187487888,0.3943799739819273,0.047765836177487385,-0.5595166111323464,0.35494765076354606,0.10988052969281081,0.4701298701298701,0.38961038961038963,0.2857142857142857,0.21038961038961038,0.7584415584415585,0.41818181818181815,0.3116883116883117,0.4805194805194805
608065,0.8045139692367037,0.5349229637259596,-0.1390565673808289,0.21743497246280546,-1.0088751187487888,0.3943799739819273,0.047765836177487385,-0.5595166111323464,0.35494765076354606,0.10988052969281081,0.37402597402597404,0.38181818181818183,0.2727272727272727,0.21038961038961038,0.7610389610389611,0.4155844155844156,0.2597402597402597,0.3012987012987013
615016,0.8192467418084137,0.5302392437194952,-0.19622673662069567,0.09579242293244407,-1.0209886385147922,0.4547325140703717,0.02678405084912464,-0.39539341977444714,0.44548399022732904,0.2117187794722801,0.37402597402597404,0.38181818181818183,0.2727272727272727,0.21038961038961038,0.7610389610389611,0.4155844155844156,0.2597402597402597,0.3012987012987013
630578,0.8192467418084137,0.5302392437194952,-0.19622673662069567,0.09579242293244407,-1.0209886385147922,0.4547325140703717,0.02678405084912464,-0.39539341977444714,0.44548399022732904,0.2117187794722801,0.2857142857142857,0.3948051948051948,0.23636363636363636,0.18961038961038962,0.7610389610389611,0.36623376623376624,0.22337662337662337,0.2831168831168831
637568,0.8350438263397224,0.4871195080187254,-0.25295085049835464,-0.03784521411842816,-0.9571207837511659,0.4381812667753979,-0.02196134026854559,-0.3533674774919477,0.4942662629395888,0.2825723694309063,0.2857142857142857,0.3948051948051948,0.23636363636363636,0.18961038961038962,0.7610389610389611,0.36623376623376624,0.22337662337662337,0.2831168831168831
653815,0.8350438263397224,0.4871195080187254,-0.25295085049835464,-0.03784521411842816,-0.9571207837511659,0.4381812667753979,-0.02196134026854559,-0.3533674774919477,0.4942662629395888,0.2825723694309063,0.2935064935064935,0.43636363636363634,0.2779220779220779,0.23896103896103896,0.6935064935064935,0.33506493506493507,0.18441558441558442,0.22077922077922077
655546,0.8275865511532344,0.42864788804722087,-0.3062293600397108,-0.19386868615798022,-0.9501383747220271,0.3486866691335544,-0.009451451539843534,-0.28954012809505864,0.5063940258644366,0.2830108507051155,0.2935064935064935,0.43636363636363634,0.2779220779220779,0.23896103896103896,0.6935064935064935,0.33506493506493507,0.18441558441558442,0.22077922077922077
667415,0.8275865511532344,0.42864788804722087,-0.3062293600397108,-0.19386868615798022,-0.9501383747220271,0.3486866691335544,-0.009451451539843534,-0.28954012809505864,0.5063940258644366,0.2830108507051155,0.41818181818181815,0.5064935064935064,0.2987012987012987,0.35584415584415585,0.6337662337662338,0.37142857142857144,0.21558441558441557,0.3012987012987013
676529,0.8084663676577256,0.3823443711227691,-0.32122484952366626,-0.3114634975170534,-0.8135060391560172,0.20465991273950812,-0.032914951393044595,-0.38748049006357804,0.39582760337132794,0.2635374753969786,0.41818181818181815,0.5064935064935064,0.2987012987012987,0.35584415584415585,0.6337662337662338,0.37142857142857144,0.21558441558441557,0.3012987012987013
690565,0.8084663676577256,0.3823443711227691,-0.32122484952366626,-0.3114634975170534,-0.8135060391560172,0.20465991273950812,-0.032914951393044595,-0.38748049006357804,0.39582760337132794,0.2635374753969786,0.5454545454545454,0.5974025974025974,0.3922077922077922,0.5584415584415584,0.6337662337662338,0.535064935064935,0.3012987012987013,0.33766233766233766
697543,0.8150331784639925,0.39390476296785915,-0.2959550005520927,-0.3049107957457846,-0.8162272004043769,0.018510437587696438,0.17648764013222967,-0.7415254642619399,0.21816025782047127,0.20735616048550096,0.5454545454545454,0.5974025974025974,0.3922077922077922,0.5584415584415584,0.6337662337662338,0.535064935064935,0.3012987012987013,0.33766233766233766
713819,0.8150331784639925,0.39390476296785915,-0.2959550005520927,-0.3049107957457846,-0.8162272004043769,0.018510437587696438,0.17648764013222967,-0.7415254642619399,0.21816025782047127,0.20735616048550096,0.6285714285714286,0.6987012987012987,0.509090909090909,0.6467532467532467,0.6857142857142857,0.548051948051948,0.3220779220779221,0.4857142857142857
715567,0.8308842992932505,0.44907526464730374,-0.2555603784634125,-0.20652259157185615,-0.8769812780987517,0.26191447119563804,0.034829464027932605,-1.0092601836487813,0.1333503137645482,0.14601513922394718,0.6285714285714286,0.6987012987012987,0.509090909090909,0.6467532467532467,0.6857142857142857,0.548051948051948,0.3220779220779221,0.4857142857142857
727390,0.8308842992932505,0.44907526464730374,-0.2555603784634125,-0.20652259157185615,-0.8769812780987517,0.26191447119563804,0.034829464027932605,-1.0092601836487813,0.1333503137645482,0.14601513922394718,0.7194805194805195,0.7246753246753247,0.5558441558441558,0.6883116883116883,0.6987012987012987,0.561038961038961,0.33766233766233766,0.5792207792207792
736590,0.8465627720597886,0.48587243456184753,-0.20967349103364638,-0.05741495844423404,-0.9378978545586225,0.3079536944971969,-0.10144067877557461,-1.125027302173991,0.127488714251422,0.18878972759206425,0.7194805194805195,0.7246753246753247,0.5558441558441558,0.6883116883116883,0.6987012987012987,0.561038961038961,0.33766233766233766,0.5792207792207792
750565,0.8465627720597886,0.48587243456184753,-0.20967349103364638,-0.05741495844423404,-0.9378978545586225,0.3079536944971969,-0.10144067877557461,-1.125027302173991,0.127488714251422,0.18878972759206425,0.7350649350649351,0.7324675324675325,0.5558441558441558,0.6883116883116883,0.6727272727272727,0.535064935064935,0.3246753246753247,0.5896103896103896
757546,0.860091463101132,0.47730005477921295,-0.1538144550414433,0.09363998199817311,-1.0189418128732022,0.44080017688011375,-0.09857657988018004,-1.1056162359096926,0.1466844364668149,0.28145494694718687,0.7350649350649351,0.7324675324675325,0.5558441558441558,0.6883116883116883,0.6727272727272727,0.535064935064935,0.3246753246753247,0.5896103896103896
773782,0.860091463101132,0.47730005477921295,-0.1538144550414433,0.09363998199817311,-1.0189418128732022,0.44080017688011375,-0.09857657988018004,-1.1056162359096926,0.1466844364668149,0.28145494694718687,0.7194805194805195,0.6909090909090909,0.561038961038961,0.6519480519480519,0.6077922077922078,0.5116883116883116,0.3168831168831169,0.5584415584415584
775518,0.8631200556586095,0.4508257167178504,-0.08117151069499465,0.21258205125835022,-0.9424682035698779,0.49677925702248127,0.0642269174010311,-1.0235876412090823,0.13254486456013514,0.32843129928458686,0.7194805194805195,0.6909090909090909,0.561038961038961,0.6519480519480519,0.6077922077922078,0.5116883116883116,0.3168831168831169,0.5584415584415584
796293,0.8631200556586095,0.4508257167178504,-0.08117151069499465,0.21258205125835022,-0.9424682035698779,0.49677925702248127,0.0642269174010311,-1.0235876412090823,0.13254486456013514,0.32843129928458686,0.625974025974026,0.561038961038961,0.5012987012987012,0.5324675324675324,0.5558441558441558,0.34025974025974026,0.33246753246753247,0.5402597402597402
798043,0.8424940274224364,0.466902783001249,-0.03279274699848231,0.2667025322855132,-0.649052884327253,0.3231998129442444,0.17723384081452778,-0.8559806453368751,0.13233239849901085,0.21469244614868221,0.625974025974026,0.561038961038961,0.5012987012987012,0.5324675324675324,0.5558441558441558,0.34025974025974026,0.33246753246753247,0.5402597402597402
810569,0.8424940274224364,0.466902783001249,-0.03279274699848231,0.2667025322855132,-0.649052884327253,0.3231998129442444,0.17723384081452778,-0.8559806453368751,0.13233239849901085,0.21469244614868221,0.561038961038961,0.44675324675324674,0.4051948051948052,0.44155844155844154,0.6727272727272727,0.34545454545454546,0.34025974025974026,0.412987012987013
817520,0.8246249421191492,0.49886511929700883,-0.04255263943250033,0.26328040272891295,-0.9871547074353497,0.37855307897602875,0.13999277396603924,-0.7123289486310892,0.25812386979756174,0.14161010384226175,0.561038961038961,0.44675324675324674,0.4051948051948052,0.44155844155844154,0.6727272727272727,0.34545454545454546,0.34025974025974026,0.412987012987013
833766,0.8246249421191492,0.49886511929700883,-0.04255263943250033,0.26328040272891295,-0.9871547074353497,0.37855307897602875,0.13999277396603924,-0.7123289486310892,0.25812386979756174,0.14161010384226175,0.4701298701298701,0.4805194805194805,0.36623376623376624,0.37662337662337664,0.8311688311688312,0.412987012987013,0.35064935064935066,0.3012987012987013
835518,0.8125040564243899,0.5421842654276992,-0.09878219362944758,0.19004067679918513,-1.034724352020275,0.3899088458032905,0.011943113044619133,-0.531393686201443,0.37043358903338564,0.09686377739042477,0.4701298701298701,0.4805194805194805,0.36623376623376624,0.37662337662337664,0.8311688311688312,0.412987012987013,0.35064935064935066,0.3012987012987013
856282,0.8125040564243899,0.5421842654276992,-0.09878219362944758,0.19004067679918513,-1.034724352020275,0.3899088458032905,0.011943113044619133,-0.531393686201443,0.37043358903338564,0.09686377739042477,0.4103896103896104,0.4597402597402597,0.33506493506493507,0.34025974025974026,0.8207792207792208,0.43636363636363634,0.37922077922077924,0.2961038961038961
858025,0.8271400658398342,0.5342501918454371,-0.1630060038893995,0.06200876302263536,-1.0404846247026915,0.46997661859398604,-0.0233029657103936,-0.3775980777392795,0.4749213378810044,0.2256848485793933,0.4103896103896104,0.4597402597402597,0.33506493506493507,0.34025974025974026,0.8207792207792208,0.43636363636363634,0.37922077922077924,0.2961038961038961
870600,0.8271400658398342,0.5342501918454371,-0.1630060038893995,0.06200876302263536,-1.0404846247026915,0.46997661859398604,-0.0233029657103936,-0.3775980777392795,0.4749213378810044,0.2256848485793933,0.3142857142857143,0.4961038961038961,0.2883116883116883,0.3116883116883117,0.8181818181818182,0.4051948051948052,0.36883116883116884,0.2545454545454545
877533,0.833444135573788,0.4940762148765898,-0.23307681346924153,-0.0832752411819229,-0.9410428259626632,0.4003567965730191,-0.031122780616845945,-0.3269251938695028,0.5266434417168979,0.27113879821794956,0.3142857142857143,0.4961038961038961,0.2883116883116883,0.3116883116883117,0.8181818181818182,0.4051948051948052,0.36883116883116884,0.2545454545454545
893828,0.833444135573788,0.4940762148765898,-0.23307681346924153,-0.0832752411819229,-0.9410428259626632,0.4003567965730191,-0.031122780616845945,-0.3269251938695028,0.5266434417168979,0.27113879821794956,0.37142857142857144,0.548051948051948,0.34545454545454546,0.412987012987013,0.8155844155844156,0.38701298701298703,0.3038961038961039,0.24155844155844156
895543,0.8116501768448563,0.43679083527784435,-0.2980277739900393,-0.24822812607667688,-0.9351599527576949,0.31613835943717694,-0.018975601120622562,-0.26570843207158684,0.5351719337736485,0.2711972998621791,0.37142857142857144,0.548051948051948,0.34545454545454546,0.412987012987013,0.8155844155844156,0.38701298701298703,0.3038961038961039,0.24155844155844156
916268,0.8116501768448563,0.43679083527784435,-0.2980277739900393,-0.24822812607667688,-0.9351599527576949,0.31613835943717694,-0.018975601120622562,-0.26570843207158684,0.5351719337736485,0.2711972998621791,0.43636363636363634,0.574025974025974,0.4077922077922078,0.6103896103896104,0.8857142857142857,0.5064935064935064,0.3064935064935065,0.24675324675324675
917983,0.7905336616055616,0.39943925891982923,-0.30722405107499573,-0.3480203884015265,-0.6934446663451719,0.10552598545367015,-0.011537829334515942,-0.4360367946439554,0.36524008671686115,0.2524367342143323,0.43636363636363634,0.574025974025974,0.4077922077922078,0.6103896103896104,0.8857142857142857,0.5064935064935064,0.3064935064935065,0.24675324675324675
930568,0.7905336616055616,0.39943925891982923,-0.30722405107499573,-0.3480203884015265,-0.6934446663451719,0.10552598545367015,-0.011537829334515942,-0.4360367946439554,0.36524008671686115,0.2524367342143323,0.5272727272727272,0.6805194805194805,0.522077922077922,0.8025974025974026,0.8623376623376623,0.4961038961038961,0.32987012987012987,0.43376623376623374
937543,0.8007250985087646,0.4201717342400345,-0.2799673604715572,-0.32235587079257666,-0.8462806959273944,0.055135526890496334,0.18819945802984134,-0.8008404946030432,0.20528384319747853,0.1941283501705207,0.5272727272727272,0.6805194805194805,0.522077922077922,0.8025974025974026,0.8623376623376623,0.4961038961038961,0.32987012987012987,0.43376623376623374
953729,0.8007250985087646,0.4201717342400345,-0.2799673604715572,-0.32235587079257666,-0.8462806959273944,0.055135526890496334,0.18819945802984134,-0.8008404946030432,0.20528384319747853,0.1941283501705207,0.587012987012987,0.7480519480519481,0.6337662337662338,0.8987012987012987,0.9792207792207792,0.4857142857142857,0.3142857142857143,0.44155844155844154
955495,0.8230438344541287,0.47416363283137974,-0.23119864378549307,-0.21051100441293333,-0.8720886805132229,0.267332194113879,0.011587959897915931,-1.0454269403609449,0.11520714584198238,0.15171206858169461,0.587012987012987,0.7480519480519481,0.6337662337662338,0.8987012987012987,0.9792207792207792,0.4857142857142857,0.3142857142857143,0.44155844155844154
976313,0.8230438344541287,0.47416363283137974,-0.23119864378549307,-0.21051100441293333,-0.8720886805132229,0.267332194113879,0.011587959897915931,-1.0454269403609449,0.11520714584198238,0.15171206858169461,0.6649350649350649,0.7532467532467533,0.6467532467532467,0.9142857142857143,1,0.5272727272727272,0.3220779220779221,0.5246753246753246
978030,0.8405085042467406,0.5072362034379004,-0.18080271408764687,-0.05972660034986532,-0.9262603810777144,0.32117789461443275,-0.11476293244772531,-1.1307237183446874,0.125454392420157,0.1885311425048831,0.6649350649350649,0.7532467532467533,0.6467532467532467,0.9142857142857143,1,0.5272727272727272,0.3220779220779221,0.5246753246753246
998767,0.8405085042467406,0.5072362034379004,-0.18080271408764687,-0.05972660034986532,-0.9262603810777144,0.32117789461443275,-0.11476293244772531,-1.1307237183446874,0.125454392420157,0.1885311425048831,0.6883116883116883,0.7220779220779221,0.6077922077922078,0.8519480519480519,0.9324675324675324,0.5194805194805194,0.3116883116883117,0.5662337662337662
1000532,0.8563360893134958,0.4934444588201181,-0.1233884412730768,0.08931047396128741,-1.0266616824286832,0.45731370120307585,-0.11856599474421173,-1.1044919584777828,0.15125729883568695,0.2825861057346797,0.6883116883116883,0.7220779220779221,0.6077922077922078,0.8519480519480519,0.9324675324675324,0.5194805194805194,0.3116883116883117,0.5662337662337662
1013066,0.8563360893134958,0.4934444588201181,-0.1233884412730768,0.08931047396128741,-1.0266616824286832,0.45731370120307585,-0.11856599474421173,-1.1044919584777828,0.15125729883568695,0.2825861057346797,0.6623376623376623,0.6961038961038961,0.5792207792207792,0.7194805194805195,0.7324675324675325,0.41818181818181815,0.2987012987012987,0.574025974025974
1020040,0.8635630415768744,0.46200719420238423,-0.06014601927235119,0.19284885815951291,-0.9138114138128112,0.529056941509425,0.061739211008712616,-0.9903288000908294,0.1666663112458014,0.3259589091982932,0.6623376623376623,0.6961038961038961,0.5792207792207792,0.7194805194805195,0.7324675324675325,0.41818181818181815,0.2987012987012987,0.574025974025974
