Timestamp, Orientation x, Orientation y, Orientation z, Orientation w, Acceleration x, Acceleration y, Acceleration z, Rotation x, Rotation y, Rotation z, EMG 0, EMG 1, EMG 2, EMG 3, EMG 4, EMG 5, EMG 6, EMG 7
0,0.9384457421792597,0.046307480971043924,-0.0302853011620704,-0.34096628385407524,-0.12595026993827485,0.8082298971289159,0.25308107847157757,-0.1480702601273462,0.8786600335422529,0.3873419832201466,0,0,0,0,0,0,0,0
849,0.9384157249567943,0.046856416380755606,-0.0356174616172622,-0.3404582203820472,-0.1284611505610701,0.8073636473881366,0.25533127843353853,-0.14619966583047356,0.8820848182778482,0.3871414032087381,0,0,0,0,0,0,0,0
21869,0.938608522532554,0.04749065877413794,-0.04157277147492172,-0.3391612941217621,-0.1294220525839945,0.8074550019499648,0.25726716056639154,-0.14708054840177648,0.8855283767263348,0.387107284623298,0,0,0,0,0,0,0,0
44376,0.9389765785315864,0.048328447506522376,-0.04784321691587673,-0.33719189303105335,-0.13035221440164296,0.8081823493546908,0.2593131688760396,-0.1482149726675438,0.8877838015044308,0.386910747505553,0,0,0,0,0,0,0,0
60686,0.9395161671698999,0.0490043789791379,-0.054262765084066855,-0.33460946608349446,-0.13058242810324416,0.8069314792094032,0.2628795630097278,-0.150223692972221,0.8887533540852972,0.38742689623982657,0,0,0,0,0,0,0,0
61457,0.9395161671698999,0.0490043789791379,-0.054262765084066855,-0.33460946608349446,-0.13058242810324416,0.8069314792094032,0.2628795630097278,-0.150223692972221,0.8887533540852972,0.38742689623982657,0.01957397812320092,0.02475532527345999,0.022452504317789293,0.05469199769717904,0.023028209556706966,0.022452504317789293,0.024179620034542316,0.018422567645365574
91333,0.9404998844200547,0.04906510267446659,-0.06080121850636261,-0.3306898772771088,-0.13108424972194865,0.8045896875442936,0.26691995100084553,-0.15523827259102663,0.8903485229945068,0.3885341778970203,0.01957397812320092,0.02475532527345999,0.022452504317789293,0.05469199769717904,0.023028209556706966,0.022452504317789293,0.024179620034542316,0.018422567645365574
92107,0.9404998844200547,0.04906510267446659,-0.06080121850636261,-0.3306898772771088,-0.13108424972194865,0.8045896875442936,0.26691995100084553,-0.15523827259102663,0.8903485229945068,0.3885341778970203,0.01957397812320092,0.02475532527345999,0.022452504317789293,0.042026482440990214,0.023028209556706966,0.021301093839953943,0.025906735751295335,0.020149683362118594
105640,0.9421559164390543,0.048551286674168775,-0.0666109560516906,-0.32488148949278156,-0.1316712915548554,0.8031450853826629,0.2682050661297887,-0.16295890080816,0.8932264411207478,0.38874657888192793,0.01957397812320092,0.02475532527345999,0.022452504317789293,0.042026482440990214,0.023028209556706966,0.021301093839953943,0.025906735751295335,0.020149683362118594
106456,0.9421559164390543,0.048551286674168775,-0.0666109560516906,-0.32488148949278156,-0.1316712915548554,0.8031450853826629,0.2682050661297887,-0.16295890080816,0.8932264411207478,0.38874657888192793,0.017271157167530225,0.02360391479562464,0.02360391479562464,0.031088082901554404,0.024179620034542316,0.018422567645365574,0.02648244099021301,0.018998272884283247
120641,0.944380420064625,0.04821562287222744,-0.07198556869002554,-0.317236432034499,-0.12992956748461126,0.8028570878598004,0.2704114421626826,-0.16982460993757736,0.8965999413222094,0.38822486518879534,0.017271157167530225,0.02360391479562464,0.02360391479562464,0.031088082901554404,0.024179620034542316,0.018422567645365574,0.02648244099021301,0.018998272884283247
121457,0.944380420064625,0.04821562287222744,-0.07198556869002554,-0.317236432034499,-0.12992956748461126,0.8028570878598004,0.2704114421626826,-0.16982460993757736,0.8965999413222094,0.38822486518879534,0.015544041450777202,0.018998272884283247,0.024179620034542316,0.021876799078871616,0.022452504317789293,0.018422567645365574,0.027633851468048358,0.01957397812320092
143111,0.9469667422084442,0.04723782174485999,-0.07604407591354301,-0.30860958485825113,-0.12481986698172642,0.8022816843443697,0.27181397754640857,-0.17617458416367549,0.8950715712454712,0.39000253758160597,0.015544041450777202,0.018998272884283247,0.024179620034542316,0.021876799078871616,0.022452504317789293,0.018422567645365574,0.027633851468048358,0.01957397812320092
143905,0.9469667422084442,0.04723782174485999,-0.07604407591354301,-0.30860958485825113,-0.12481986698172642,0.8022816843443697,0.27181397754640857,-0.17617458416367549,0.8950715712454712,0.39000253758160597,0.017271157167530225,0.02072538860103627,0.027058146229130685,0.02360391479562464,0.02072538860103627,0.01957397812320092,0.027633851468048358,0.022452504317789293
165642,0.9499803479983153,0.04434908669486806,-0.07846551713299887,-0.29902116906229564,-0.12307278221185314,0.7997116120839513,0.2740100339106207,-0.18523427832192574,0.890771435894431,0.3940036526308777,0.017271157167530225,0.02072538860103627,0.027058146229130685,0.02360391479562464,0.02072538860103627,0.01957397812320092,0.027633851468048358,0.022452504317789293
166456,0.9499803479983153,0.04434908669486806,-0.07846551713299887,-0.29902116906229564,-0.12307278221185314,0.7997116120839513,0.2740100339106207,-0.18523427832192574,0.890771435894431,0.3940036526308777,0.014968336211859529,0.018998272884283247,0.02360391479562464,0.024179620034542316,0.018998272884283247,0.01957397812320092,0.023028209556706966,0.02072538860103627
180637,0.9535240911349558,0.041058055348677125,-0.0803610786425763,-0.2874858966204136,-0.12288527319881964,0.7987042484071195,0.2781986103048684,-0.19360042648165215,0.8919657951749178,0.39494938069866997,0.014968336211859529,0.018998272884283247,0.02360391479562464,0.024179620034542316,0.018998272884283247,0.01957397812320092,0.023028209556706966,0.02072538860103627
181430,0.9535240911349558,0.041058055348677125,-0.0803610786425763,-0.2874858966204136,-0.12288527319881964,0.7987042484071195,0.2781986103048684,-0.19360042648165215,0.8919657951749178,0.39494938069866997,0.014968336211859529,0.02475532527345999,0.021876799078871616,0.023028209556706966,0.018998272884283247,0.023028209556706966,0.024179620034542316,0.023028209556706966
203181,0.9571963110349107,0.03888867707664584,-0.08452057714239769,-0.274078756885504,-0.12380420653277935,0.8000611100909872,0.2816665926740524,-0.19341791680821552,0.9026913816702703,0.3939744862774592,0.014968336211859529,0.02475532527345999,0.021876799078871616,0.023028209556706966,0.018998272884283247,0.023028209556706966,0.024179620034542316,0.023028209556706966
203961,0.9571963110349107,0.03888867707664584,-0.08452057714239769,-0.274078756885504,-0.12380420653277935,0.8000611100909872,0.2816665926740524,-0.19341791680821552,0.9026913816702703,0.3939744862774592,0.014968336211859529,0.025331030512377662,0.022452504317789293,0.02360391479562464,0.017846862406447898,0.02360391479562464,0.027058146229130685,0.022452504317789293
225659,0.960322506035611,0.039184253752352405,-0.09320144824667748,-0.25992069695212217,-0.12014451919110558,0.8030790929088593,0.28120178870920715,-0.18165058176868382,0.9212586077975984,0.3917006483986594,0.014968336211859529,0.025331030512377662,0.022452504317789293,0.02360391479562464,0.017846862406447898,0.02360391479562464,0.027058146229130685,0.022452504317789293
226440,0.960322506035611,0.039184253752352405,-0.09320144824667748,-0.25992069695212217,-0.12014451919110558,0.8030790929088593,0.28120178870920715,-0.18165058176868382,0.9212586077975984,0.3917006483986594,0.018998272884283247,0.027058146229130685,0.022452504317789293,0.02360391479562464,0.017271157167530225,0.02936096718480138,0.024179620034542316,0.021876799078871616
239968,0.961749444122806,0.03931279588414113,-0.11188717874562354,-0.24692867399633972,-0.1181143561755873,0.8022090132617296,0.2771644188605282,-0.1517825281303813,0.9446491546557971,0.3864194757832958,0.018998272884283247,0.027058146229130685,0.022452504317789293,0.02360391479562464,0.017271157167530225,0.02936096718480138,0.024179620034542316,0.021876799078871616
240831,0.961749444122806,0.03931279588414113,-0.11188717874562354,-0.24692867399633972,-0.1181143561755873,0.8022090132617296,0.2771644188605282,-0.1517825281303813,0.9446491546557971,0.3864194757832958,0.016119746689694875,0.02475532527345999,0.022452504317789293,0.018422567645365574,0.017846862406447898,0.02936096718480138,0.02360391479562464,0.02072538860103627
263158,0.9592215862199213,0.04457705963986952,-0.14074780736475906,-0.24103296248773584,-0.10354930831919812,0.7981193883790627,0.26578232963387266,-0.09874897670591715,0.9626348290027211,0.3777004057592495,0.016119746689694875,0.02475532527345999,0.022452504317789293,0.018422567645365574,0.017846862406447898,0.02936096718480138,0.02360391479562464,0.02072538860103627
263906,0.9592215862199213,0.04457705963986952,-0.14074780736475906,-0.24103296248773584,-0.10354930831919812,0.7981193883790627,0.26578232963387266,-0.09874897670591715,0.9626348290027211,0.3777004057592495,0.015544041450777202,0.025331030512377662,0.02360391479562464,0.042026482440990214,0.01957397812320092,0.02936096718480138,0.02360391479562464,0.020149683362118594
293150,0.9511122405299799,0.05305529870276443,-0.17836430443021056,-0.24648897764145364,-0.08794742725716487,0.7852143432423618,0.24955347536144612,-0.036100341769332134,0.9646432247333891,0.37204851078083184,0.015544041450777202,0.025331030512377662,0.02360391479562464,0.042026482440990214,0.01957397812320092,0.02936096718480138,0.02360391479562464,0.020149683362118594
293951,0.9511122405299799,0.05305529870276443,-0.17836430443021056,-0.24648897764145364,-0.08794742725716487,0.7852143432423618,0.24955347536144612,-0.036100341769332134,0.9646432247333891,0.37204851078083184,0.018422567645365574,0.022452504317789293,0.023028209556706966,0.050662061024755324,0.01957397812320092,0.027058146229130685,0.024179620034542316,0.016119746689694875
299418,0.9359082288854268,0.06378612503561881,-0.2232066669023144,-0.26492621842287256,-0.08335931267047822,0.7765335160026412,0.2305402867745233,0.02874967477101875,0.9578649018630259,0.36631599853233243,0.018422567645365574,0.022452504317789293,0.023028209556706966,0.050662061024755324,0.01957397812320092,0.027058146229130685,0.024179620034542316,0.016119746689694875
308062,0.9359082288854268,0.06378612503561881,-0.2232066669023144,-0.26492621842287256,-0.08335931267047822,0.7765335160026412,0.2305402867745233,0.02874967477101875,0.9578649018630259,0.36631599853233243,0.018998272884283247,0.024179620034542316,0.02360391479562464,0.051237766263673,0.018422567645365574,0.0333909038572251,0.020149683362118594,0.017271157167530225
322879,0.9104285302184407,0.07667553183560843,-0.2749477639290215,-0.29940688250681174,-0.08499330378988035,0.7688948486633881,0.20679835136956598,0.10627463457463926,0.9440572038784869,0.35781404999414257,0.018998272884283247,0.024179620034542316,0.02360391479562464,0.051237766263673,0.018422567645365574,0.0333909038572251,0.020149683362118594,0.017271157167530225
323687,0.9104285302184407,0.07667553183560843,-0.2749477639290215,-0.29940688250681174,-0.08499330378988035,0.7688948486633881,0.20679835136956598,0.10627463457463926,0.9440572038784869,0.35781404999414257,0.021301093839953943,0.02648244099021301,0.025331030512377662,0.07196315486470926,0.018422567645365574,0.027633851468048358,0.01957397812320092,0.018998272884283247
347038,0.870415506402413,0.0906482909867258,-0.3362964649275735,-0.3479431293079862,-0.09373613054132027,0.7634217348178828,0.1806124769148817,0.18383831230268438,0.9209398928849498,0.3533997804418989,0.021301093839953943,0.02648244099021301,0.025331030512377662,0.07196315486470926,0.018422567645365574,0.027633851468048358,0.01957397812320092,0.018998272884283247
347859,0.870415506402413,0.0906482909867258,-0.3362964649275735,-0.3479431293079862,-0.09373613054132027,0.7634217348178828,0.1806124769148817,0.18383831230268438,0.9209398928849498,0.3533997804418989,0.021876799078871616,0.02648244099021301,0.024179620034542316,0.07253886010362694,0.018998272884283247,0.025331030512377662,0.018422567645365574,0.017846862406447898
360911,0.8163008564674636,0.10045392943934328,-0.3993409370120401,-0.40507867855149626,-0.13179165620714564,0.7416860165119227,0.15596332371073215,0.23618889353199518,0.8990897168161057,0.35887031108669804,0.021876799078871616,0.02648244099021301,0.024179620034542316,0.07253886010362694,0.018998272884283247,0.025331030512377662,0.018422567645365574,0.017846862406447898
369507,0.8163008564674636,0.10045392943934328,-0.3993409370120401,-0.40507867855149626,-0.13179165620714564,0.7416860165119227,0.15596332371073215,0.23618889353199518,0.8990897168161057,0.35887031108669804,0.023028209556706966,0.02648244099021301,0.022452504317789293,0.06275187104202648,0.016119746689694875,0.02936096718480138,0.018422567645365574,0.02360391479562464
384565,0.7537155614483013,0.10696643886845189,-0.4596491277350908,-0.45737699194301845,-0.13833150529633034,0.7290600786409577,0.14886971171900168,0.23764574570337138,0.8993844566037456,0.3671190066258255,0.023028209556706966,0.02648244099021301,0.022452504317789293,0.06275187104202648,0.016119746689694875,0.02936096718480138,0.018422567645365574,0.02360391479562464
385354,0.7537155614483013,0.10696643886845189,-0.4596491277350908,-0.45737699194301845,-0.13833150529633034,0.7290600786409577,0.14886971171900168,0.23764574570337138,0.8993844566037456,0.3671190066258255,0.021301093839953943,0.02475532527345999,0.022452504317789293,0.057570523891767415,0.017271157167530225,0.028785261945883708,0.014968336211859529,0.024179620034542316
415381,0.6912494955019621,0.1118694631376495,-0.5054317381783842,-0.5041806384893757,-0.11851166803701446,0.7093537552381279,0.16014222820141216,0.19577515244965277,0.8769376567024869,0.35807443299463954,0.021301093839953943,0.02475532527345999,0.022452504317789293,0.057570523891767415,0.017271157167530225,0.028785261945883708,0.014968336211859529,0.024179620034542316
416158,0.6912494955019621,0.1118694631376495,-0.5054317381783842,-0.5041806384893757,-0.11851166803701446,0.7093537552381279,0.16014222820141216,0.19577515244965277,0.8769376567024869,0.35807443299463954,0.02072538860103627,0.028209556706966035,0.020149683362118594,0.06275187104202648,0.025331030512377662,0.021301093839953943,0.018998272884283247,0.025906735751295335
430390,0.640897546053046,0.10152737088926175,-0.5257868205986779,-0.5499915887613481,-0.08419986049060549,0.6542415746838308,0.2217037005652774,0.11397244774527415,0.7867747824161735,0.3609008858485275,0.02072538860103627,0.028209556706966035,0.020149683362118594,0.06275187104202648,0.025331030512377662,0.021301093839953943,0.018998272884283247,0.025906735751295335
431205,0.640897546053046,0.10152737088926175,-0.5257868205986779,-0.5499915887613481,-0.08419986049060549,0.6542415746838308,0.2217037005652774,0.11397244774527415,0.7867747824161735,0.3609008858485275,0.01669545192861255,0.027633851468048358,0.01957397812320092,0.042026482440990214,0.02648244099021301,0.02360391479562464,0.020149683362118594,0.027633851468048358
467009,0.640897546053046,0.10152737088926175,-0.5257868205986779,-0.5499915887613481,-0.08419986049060549,0.6542415746838308,0.2217037005652774,0.11397244774527415,0.7867747824161735,0.3609008858485275,0.017846862406447898,0.028209556706966035,0.018998272884283247,0.04720782959124928,0.025331030512377662,0.03223949337938975,0.02072538860103627,0.03166378814047208
483124,0.6649035957384264,0.01970081093757578,-0.44738935091912546,-0.5977941578057425,-0.047514839967686406,0.4160484881088215,0.4654081497807756,-0.3208359281357187,0.5798431170799015,0.3644248750136449,0.017846862406447898,0.028209556706966035,0.018998272884283247,0.04720782959124928,0.025331030512377662,0.03223949337938975,0.02072538860103627,0.03166378814047208
483681,0.6649035957384264,0.01970081093757578,-0.44738935091912546,-0.5977941578057425,-0.047514839967686406,0.4160484881088215,0.4654081497807756,-0.3208359281357187,0.5798431170799015,0.3644248750136449,0.025906735751295335,0.06563039723661486,0.03281519861830743,0.04951065054691998,0.028785261945883708,0.05238917674150835,0.021301093839953943,0.03742084052964882
507011,0.738261491474075,0.0015707538798339082,-0.38637581026299195,-0.5528844691093607,-0.13056033596811345,0.7226721276189099,0.34932721793542476,-0.5626200279606646,0.7602938923690289,0.3482497921048741,0.025906735751295335,0.06563039723661486,0.03281519861830743,0.04951065054691998,0.028785261945883708,0.05238917674150835,0.021301093839953943,0.03742084052964882
513663,0.738261491474075,0.0015707538798339082,-0.38637581026299195,-0.5528844691093607,-0.13056033596811345,0.7226721276189099,0.34932721793542476,-0.5626200279606646,0.7602938923690289,0.3482497921048741,0.037996545768566495,0.10420264824409903,0.03511801957397812,0.1473805411629246,0.03223949337938975,0.1318364997121474,0.022452504317789293,0.05008635578583765
528666,0.8052107546142131,-0.00332765478854212,-0.3276143135880204,-0.4942604868887138,-0.22352836466176854,0.9129981236519167,0.2739192192086572,-0.5683421786011646,0.8285360437597031,0.3315994808465538,0.037996545768566495,0.10420264824409903,0.03511801957397812,0.1473805411629246,0.03223949337938975,0.1318364997121474,0.022452504317789293,0.05008635578583765
529492,0.8052107546142131,-0.00332765478854212,-0.3276143135880204,-0.4942604868887138,-0.22352836466176854,0.9129981236519167,0.2739192192086572,-0.5683421786011646,0.8285360437597031,0.3315994808465538,0.09729418537708694,0.12435233160621761,0.03914795624640184,0.17213586643638457,0.061600460564191134,0.2602187679907887,0.020149683362118594,0.06620610247553253
550384,0.8520301237136281,0.0028384309757409354,-0.30090507058582994,-0.42836053750301567,-0.37747971104847233,1.0985578648591814,0.34934643176641084,-0.4784573966053628,0.9441444751971046,0.35419756264013164,0.09729418537708694,0.12435233160621761,0.03914795624640184,0.17213586643638457,0.061600460564191134,0.2602187679907887,0.020149683362118594,0.06620610247553253
551228,0.8520301237136281,0.0028384309757409354,-0.30090507058582994,-0.42836053750301567,-0.37747971104847233,1.0985578648591814,0.34934643176641084,-0.4784573966053628,0.9441444751971046,0.35419756264013164,0.13010938399539435,0.14853195164075994,0.0535405872193437,0.18825561312607944,0.06620610247553253,0.31375935521013243,0.025906735751295335,0.07311456534254462
572859,0.8665663549579593,0.03426473183883792,-0.34082922912708524,-0.3629381726679152,-0.14971772392908816,0.9608107445128586,0.38687613165705537,-0.27302207316235505,1.1630575208761433,0.365379840823096,0.13010938399539435,0.14853195164075994,0.0535405872193437,0.18825561312607944,0.06620610247553253,0.31375935521013243,0.025906735751295335,0.07311456534254462
573687,0.8665663549579593,0.03426473183883792,-0.34082922912708524,-0.3629381726679152,-0.14971772392908816,0.9608107445128586,0.38687613165705537,-0.27302207316235505,1.1630575208761433,0.365379840823096,0.1755900978698906,0.21991940126655152,0.12723085780080598,0.2095567069660334,0.08232584916522741,0.3333333333333333,0.04317789291882556,0.07656879677605066
595349,0.84100460112594,0.09868585799166792,-0.36824407769989975,-0.3838862612238126,0.22133826137478055,0.5574537551472876,0.21491404195391584,0.01884885116000945,0.9998945682096958,0.20293105651608856,0.1755900978698906,0.21991940126655152,0.12723085780080598,0.2095567069660334,0.08232584916522741,0.3333333333333333,0.04317789291882556,0.07656879677605066
596160,0.84100460112594,0.09868585799166792,-0.36824407769989975,-0.3838862612238126,0.22133826137478055,0.5574537551472876,0.21491404195391584,0.01884885116000945,0.9998945682096958,0.20293105651608856,0.1807714450201497,0.3275762809441566,0.22279792746113988,0.2204951065054692,0.08520437535981577,0.47783534830166957,0.11859527921704087,0.07829591249280368
617899,0.800353733112273,0.08733631178290559,-0.357818034644929,-0.47304600687485804,0.13408896548385263,0.5811962117839408,0.1236010837786169,0.12394082405483767,0.6028735031520326,0.31881300350563335,0.1807714450201497,0.3275762809441566,0.22279792746113988,0.2204951065054692,0.08520437535981577,0.47783534830166957,0.11859527921704087,0.07829591249280368
618698,0.800353733112273,0.08733631178290559,-0.357818034644929,-0.47304600687485804,0.13408896548385263,0.5811962117839408,0.1236010837786169,0.12394082405483767,0.6028735031520326,0.31881300350563335,0.18652849740932642,0.5826137017846862,0.5094991364421416,0.2469775474956822,0.09902130109383996,0.6292458261370178,0.3672999424294761,0.07772020725388601
640382,0.7162173569729017,0.035003767431577314,-0.3761367703441188,-0.5867951634356261,-0.33219819687771857,1.0009334667811076,0.04088273827921032,0.328332360662819,0.5178729151364831,0.4437535480220785,0.18652849740932642,0.5826137017846862,0.5094991364421416,0.2469775474956822,0.09902130109383996,0.6292458261370178,0.3672999424294761,0.07772020725388601
641189,0.7162173569729017,0.035003767431577314,-0.3761367703441188,-0.5867951634356261,-0.33219819687771857,1.0009334667811076,0.04088273827921032,0.328332360662819,0.5178729151364831,0.4437535480220785,0.17040875071963155,0.7674150834772596,0.6919976971790444,0.3638457109959701,0.13010938399539435,0.7092688543465746,0.5261945883707542,0.08290155440414508
662836,0.6231624571751523,0.02863260415188585,-0.42173872023975273,-0.6580160923544678,-0.4923231723048749,0.8146522468692299,0.01213496779578574,0.32584030221984595,0.7767783297034745,0.4135389018827424,0.17040875071963155,0.7674150834772596,0.6919976971790444,0.3638457109959701,0.13010938399539435,0.7092688543465746,0.5261945883707542,0.08290155440414508
663639,0.6231624571751523,0.02863260415188585,-0.42173872023975273,-0.6580160923544678,-0.4923231723048749,0.8146522468692299,0.01213496779578574,0.32584030221984595,0.7767783297034745,0.4135389018827424,0.15198618307426598,0.8785261945883708,0.7864133563615429,0.41278065630397237,0.23085780080598733,0.7633851468048359,0.5549798503166379,0.08981001727115717
685378,0.5901032864385675,0.045577549583176294,-0.49152138868873135,-0.6388329380752814,-0.03678285681916854,0.6688311015535897,0.07903635118234044,0.006411959583795035,1.0622117071720023,0.49223876807187994,0.15198618307426598,0.8785261945883708,0.7864133563615429,0.41278065630397237,0.23085780080598733,0.7633851468048359,0.5549798503166379,0.08981001727115717
686183,0.5901032864385675,0.045577549583176294,-0.49152138868873135,-0.6388329380752814,-0.03678285681916854,0.6688311015535897,0.07903635118234044,0.006411959583795035,1.0622117071720023,0.49223876807187994,0.10189982728842832,0.8917674150834772,0.9050086355785838,0.47322970639032813,0.25446171560161196,0.7760506620610248,0.565342544617156,0.09614277489925158
707839,0.5878662142177868,0.06800647554346691,-0.49597344369035096,-0.6354516320061958,0.0026248320287639293,0.6306508972283724,0.11957398939461536,-0.14398944504472128,0.9380042202682615,0.33791691458814976,0.10189982728842832,0.8917674150834772,0.9050086355785838,0.47322970639032813,0.25446171560161196,0.7760506620610248,0.565342544617156,0.09614277489925158
708676,0.5878662142177868,0.06800647554346691,-0.49597344369035096,-0.6354516320061958,0.0026248320287639293,0.6306508972283724,0.11957398939461536,-0.14398944504472128,0.9380042202682615,0.33791691458814976,0.09383995394358088,0.8940702360391479,1,0.6482440990213011,0.2602187679907887,0.6989061600460564,0.5561312607944733,0.09211283822682786
730398,0.6048276718865007,0.032657724833917955,-0.44920847873171044,-0.6567561975075454,-0.08256826012482676,0.5525626171140714,0.19953182484066273,-0.24603303223701023,0.6339204138802349,0.33330493345369505,0.09383995394358088,0.8940702360391479,1,0.6482440990213011,0.2602187679907887,0.6989061600460564,0.5561312607944733,0.09211283822682786
731223,0.6048276718865007,0.032657724833917955,-0.44920847873171044,-0.6567561975075454,-0.08256826012482676,0.5525626171140714,0.19953182484066273,-0.24603303223701023,0.6339204138802349,0.33330493345369505,0.08175014392630973,0.7818077144502015,0.9055843408175014,0.6741508347725964,0.3183649971214738,0.5734024179620034,0.4392630972941854,0.09038572251007485
752868,0.6285093685248931,-0.020157689860970815,-0.38897282273555495,-0.6732531354468716,-0.19737186420342667,0.6023852691533915,0.3824832993392534,-0.3022483086785167,0.5656808449935857,0.3493618775179037,0.08175014392630973,0.7818077144502015,0.9055843408175014,0.6741508347725964,0.3183649971214738,0.5734024179620034,0.4392630972941854,0.09038572251007485
753689,0.6285093685248931,-0.020157689860970815,-0.38897282273555495,-0.6732531354468716,-0.19737186420342667,0.6023852691533915,0.3824832993392534,-0.3022483086785167,0.5656808449935857,0.3493618775179037,0.06735751295336788,0.7207829591249281,0.8491652274035694,0.6436384571099597,0.3333333333333333,0.5118019573978123,0.22855497985031664,0.0736902705814623
776969,0.7033120425655067,-0.023344253107876266,-0.3548324915128623,-0.6155494452892838,-0.36578540725726055,0.8197526032016066,0.2978869345837108,-0.5457362054836485,0.8992624888829388,0.344555327056256,0.06735751295336788,0.7207829591249281,0.8491652274035694,0.6436384571099597,0.3333333333333333,0.5118019573978123,0.22855497985031664,0.0736902705814623
781969,0.7033120425655067,-0.023344253107876266,-0.3548324915128623,-0.6155494452892838,-0.36578540725726055,0.8197526032016066,0.2978869345837108,-0.5457362054836485,0.8992624888829388,0.344555327056256,0.0667818077144502,0.6309729418537708,0.8606793321819228,0.6574553828439839,0.29303396660909614,0.40414507772020725,0.1514104778353483,0.06217616580310881
805364,0.7722512910723944,-0.0031022712522490448,-0.32219121589646055,-0.5475501253303279,-0.43423851267188807,1.13649499616823,0.2559483470321471,-0.5350667532025597,0.9793048841679662,0.3007529644204354,0.0667818077144502,0.6309729418537708,0.8606793321819228,0.6574553828439839,0.29303396660909614,0.40414507772020725,0.1514104778353483,0.06217616580310881
806158,0.7722512910723944,-0.0031022712522490448,-0.32219121589646055,-0.5475501253303279,-0.43423851267188807,1.13649499616823,0.2559483470321471,-0.5350667532025597,0.9793048841679662,0.3007529644204354,0.07138744962579159,0.7651122625215889,0.7380541162924582,0.6384571099597006,0.2947610823258492,0.39147956246401844,0.102475532527346,0.06044905008635579
827880,0.8250033210389328,0.008205597678674723,-0.3331314334019737,-0.45642703307430604,-0.10770299621853024,0.9183873574098362,0.4078316891647712,-0.4882028718493693,1.1037660320069447,0.4090880147351978,0.07138744962579159,0.7651122625215889,0.7380541162924582,0.6384571099597006,0.2947610823258492,0.39147956246401844,0.102475532527346,0.06044905008635579
828681,0.8250033210389328,0.008205597678674723,-0.3331314334019737,-0.45642703307430604,-0.10770299621853024,0.9183873574098362,0.4078316891647712,-0.4882028718493693,1.1037660320069447,0.4090880147351978,0.0846286701208981,0.7225100748416811,0.5941278065630398,0.5020149683362118,0.30857800805987334,0.40184225676453655,0.10535405872193437,0.06850892343120323
857835,0.825926545921237,0.050963001208484085,-0.36594437555350245,-0.42583192371074735,0.0336607048358778,0.9040854762487707,0.31899863267780115,-0.16033252458811265,1.0924115296480654,0.3173492529504369,0.0846286701208981,0.7225100748416811,0.5941278065630398,0.5020149683362118,0.30857800805987334,0.40184225676453655,0.10535405872193437,0.06850892343120323
858663,0.825926545921237,0.050963001208484085,-0.36594437555350245,-0.42583192371074735,0.0336607048358778,0.9040854762487707,0.31899863267780115,-0.16033252458811265,1.0924115296480654,0.3173492529504369,0.0955670696603339,0.6885434657455383,0.5791594703511802,0.4473229706390328,0.24985607369027057,0.41796200345423146,0.1070811744386874,0.06505469199769717
878833,0.7846055154443744,0.10911016357379834,-0.3810556690027887,-0.47674493648071786,0.2592826807495195,0.37844867240458846,0.21875342010967141,0.10907275265799649,0.9027382517537537,0.19200175831325417,0.0955670696603339,0.6885434657455383,0.5791594703511802,0.4473229706390328,0.24985607369027057,0.41796200345423146,0.1070811744386874,0.06505469199769717
887015,0.7846055154443744,0.10911016357379834,-0.3810556690027887,-0.47674493648071786,0.2592826807495195,0.37844867240458846,0.21875342010967141,0.10907275265799649,0.9027382517537537,0.19200175831325417,0.09729418537708694,0.6298215313759356,0.5077720207253886,0.40702360391479564,0.21761658031088082,0.4853195164075993,0.12607944732297063,0.06390328151986183
902037,0.7245449645878883,0.07865579146368551,-0.3887933115132351,-0.5636378462116695,0.058871749912533106,0.6579072270173185,0.17549829920625287,0.19204933951441805,0.6040744429718866,0.3819726925776215,0.09729418537708694,0.6298215313759356,0.5077720207253886,0.40702360391479564,0.21761658031088082,0.4853195164075993,0.12607944732297063,0.06390328151986183
902855,0.7245449645878883,0.07865579146368551,-0.3887933115132351,-0.5636378462116695,0.058871749912533106,0.6579072270173185,0.17549829920625287,0.19204933951441805,0.6040744429718866,0.3819726925776215,0.11744386873920552,0.7213586643638457,0.49971214738054115,0.33506044905008636,0.19976971790443293,0.644789867587795,0.1652274035693725,0.06044905008635579
917884,0.6336948484736517,0.043465459696487276,-0.41288157816940746,-0.6527406799332093,-0.3272697585187103,0.8913429222304555,0.07265463641953271,0.307840310626356,0.6147398519430327,0.4165938424400488,0.11744386873920552,0.7213586643638457,0.49971214738054115,0.33506044905008636,0.19976971790443293,0.644789867587795,0.1652274035693725,0.06044905008635579
918684,0.6336948484736517,0.043465459696487276,-0.41288157816940746,-0.6527406799332093,-0.3272697585187103,0.8913429222304555,0.07265463641953271,0.307840310626356,0.6147398519430327,0.4165938424400488,0.11917098445595854,0.719055843408175,0.6885434657455383,0.44905008635578586,0.16062176165803108,0.6925734024179621,0.21473805411629246,0.04778353483016695
940357,0.5635741986979574,0.04555953747699713,-0.46649504279199344,-0.6802138091492509,-0.42862724279651754,0.8715916751759262,0.0630159072046492,0.18370276882774533,0.8943936712398888,0.4485176180519359,0.11917098445595854,0.719055843408175,0.6885434657455383,0.44905008635578586,0.16062176165803108,0.6925734024179621,0.21473805411629246,0.04778353483016695
941153,0.5635741986979574,0.04555953747699713,-0.46649504279199344,-0.6802138091492509,-0.42862724279651754,0.8715916751759262,0.0630159072046492,0.18370276882774533,0.8943936712398888,0.4485176180519359,0.11629245826137018,0.8497409326424871,0.7990788716177317,0.4703511801957398,0.12320092112838227,0.7167530224525043,0.21704087507196315,0.05814622913068509
962893,0.5390893632707436,0.08009221383393772,-0.5234796452522166,-0.6549327879241782,-0.05388428132385256,0.7438216781342579,0.038050252970198484,-0.038349534803750696,1.0952565874089584,0.44771308505868274,0.11629245826137018,0.8497409326424871,0.7990788716177317,0.4703511801957398,0.12320092112838227,0.7167530224525043,0.21704087507196315,0.05814622913068509
963690,0.5390893632707436,0.08009221383393772,-0.5234796452522166,-0.6549327879241782,-0.05388428132385256,0.7438216781342579,0.038050252970198484,-0.038349534803750696,1.0952565874089584,0.44771308505868274,0.10535405872193437,0.8704663212435233,0.8917674150834772,0.5889464594127807,0.14507772020725387,0.7311456534254461,0.22855497985031664,0.07714450201496834
984569,0.5471560491324311,0.11612984488396506,-0.5330110185461212,-0.6348490931973056,0.05536265043896141,0.6133783750117907,0.11749318450872609,-0.19677688385492614,1.0186522880155453,0.34739349997072183,0.10535405872193437,0.8704663212435233,0.8917674150834772,0.5889464594127807,0.14507772020725387,0.7311456534254461,0.22855497985031664,0.07714450201496834
986205,0.5471560491324311,0.11612984488396506,-0.5330110185461212,-0.6348490931973056,0.05536265043896141,0.6133783750117907,0.11749318450872609,-0.19677688385492614,1.0186522880155453,0.34739349997072183,0.10362694300518134,0.8324697754749568,0.9907887161773172,0.7582037996545768,0.13529073114565343,0.6223373632700058,0.21761658031088082,0.07829591249280368
1015383,0.5802904172842486,0.10100413168905387,-0.4975575230136088,-0.6367870195617802,-0.009610982016394182,0.5485564951835352,0.23690528848019515,-0.31468963989970067,0.7520906835865796,0.3384590746270924,0.10362694300518134,0.8324697754749568,0.9907887161773172,0.7582037996545768,0.13529073114565343,0.6223373632700058,0.21761658031088082,0.07829591249280368
1016170,0.5802904172842486,0.10100413168905387,-0.4975575230136088,-0.6367870195617802,-0.009610982016394182,0.5485564951835352,0.23690528848019515,-0.31468963989970067,0.7520906835865796,0.3384590746270924,0.07196315486470926,0.7207829591249281,0.9199769717904432,0.8785261945883708,0.12377662636729994,0.4478986758779505,0.18652849740932642,0.07656879677605066
1060358,0.6166126354360268,0.0740627030201043,-0.4462335698377131,-0.6443439880932267,-0.09334740559642385,0.6911882034574331,0.4301176636424722,-0.3443051797943689,0.6628896131191103,0.32431033585899294,0.07196315486470926,0.7207829591249281,0.9199769717904432,0.8785261945883708,0.12377662636729994,0.4478986758779505,0.18652849740932642,0.07656879677605066
1061179,0.6166126354360268,0.0740627030201043,-0.4462335698377131,-0.6443439880932267,-0.09334740559642385,0.6911882034574331,0.4301176636424722,-0.3443051797943689,0.6628896131191103,0.32431033585899294,0.061600460564191134,0.5739781232009211,0.8670120898100173,0.9159470351180196,0.12377662636729994,0.4502014968336212,0.13701784686240645,0.0800230282095567
1097013,0.6166126354360268,0.0740627030201043,-0.4462335698377131,-0.6443439880932267,-0.09334740559642385,0.6911882034574331,0.4301176636424722,-0.3443051797943689,0.6628896131191103,0.32431033585899294,0.05296488198042602,0.48416810592976395,0.7708693149107657,0.9740932642487047,0.12147380541162925,0.44847438111686816,0.13874496257915947,0.07656879677605066
