Timestamp, Orientation x, Orientation y, Orientation z, Orientation w, Acceleration x, Acceleration y, Acceleration z, Rotation x, Rotation y, Rotation z, EMG 0, EMG 1, EMG 2, EMG 3, EMG 4, EMG 5, EMG 6, EMG 7
0,0.955757601160504,-0.027909023528804422,0.28146269085842396,0.08079138496351547,0.046799142820311834,0.5544029260393074,0.05304305614795124,-0.16314426233993434,0.4129745552282615,0.18739506717030244,0,0,0,0,0,0,0,0
7438,0.9520716825063467,-0.04440309681816068,0.2930096238467967,0.07571813980579559,0.053431154937777,0.5512952895712285,0.057487319890480365,-0.16701584689812068,0.4168092405033814,0.18381031424136246,0,0,0,0,0,0,0,0
22468,0.9482011366770664,-0.06132208488440932,0.3038397967920886,0.06953836491528272,0.05956638140677428,0.5505251438167957,0.05911776479920455,-0.16418394353798133,0.41418793935502274,0.1880405858616599,0,0,0,0,0,0,0,0
37450,0.9441584564131239,-0.0787111235011293,0.3139141017691672,0.06186521584245982,0.06418219300935982,0.544845929422179,0.06252617407258562,-0.15987665250240643,0.41067561172130007,0.193649827177662,0,0,0,0,0,0,0,0
59915,0.93970343357274,-0.0966188886946504,0.3236226501799021,0.0537645568153453,0.06920365461214265,0.5351780445746053,0.06703530232520546,-0.1589485660782598,0.4099572272821636,0.19598404014939674,0,0,0,0,0,0,0,0
68091,0.93970343357274,-0.0966188886946504,0.3236226501799021,0.0537645568153453,0.06920365461214265,0.5351780445746053,0.06703530232520546,-0.1589485660782598,0.4099572272821636,0.19598404014939674,0.08253358925143954,0.03326935380678183,0.03134996801023673,0.16634676903390916,0.08317338451695458,0.0690978886756238,0.16826615483045426,0.07037747920665387
82418,0.9347941740290884,-0.11521656228424704,0.3328594290348258,0.045712104297270545,0.07284425838892539,0.5307373455285782,0.07047808287443119,-0.1599886289606992,0.4112553165952556,0.1971344520323611,0.08253358925143954,0.03326935380678183,0.03134996801023673,0.16634676903390916,0.08317338451695458,0.0690978886756238,0.16826615483045426,0.07037747920665387
90581,0.9347941740290884,-0.11521656228424704,0.3328594290348258,0.045712104297270545,0.07284425838892539,0.5307373455285782,0.07047808287443119,-0.1599886289606992,0.4112553165952556,0.1971344520323611,0.08445297504798464,0.036468330134357005,0.03134996801023673,0.17338451695457455,0.0818937939859245,0.0671785028790787,0.15035188739603328,0.06589891234804862
97543,0.9295707286844557,-0.133667751222032,0.34147420715805954,0.03776980939943606,0.07971093756161812,0.5315141268895892,0.07352455107029687,-0.1590625782002539,0.41279288863639996,0.1968313480043199,0.08445297504798464,0.036468330134357005,0.03134996801023673,0.17338451695457455,0.0818937939859245,0.0671785028790787,0.15035188739603328,0.06589891234804862
113107,0.9295707286844557,-0.133667751222032,0.34147420715805954,0.03776980939943606,0.07971093756161812,0.5315141268895892,0.07352455107029687,-0.1590625782002539,0.41279288863639996,0.1968313480043199,0.07741522712731926,0.035188739603326934,0.030070377479206652,0.20409468969929623,0.08125399872040946,0.060140754958413305,0.1509916826615483,0.06589891234804862
120025,0.9241191511695094,-0.15113980986048636,0.34979068501830635,0.02840825569276715,0.08606211848505743,0.5300378666886602,0.07546895340702375,-0.1530636928499873,0.4085420926309642,0.19930108243640862,0.07741522712731926,0.035188739603326934,0.030070377479206652,0.20409468969929623,0.08125399872040946,0.060140754958413305,0.1509916826615483,0.06589891234804862
128217,0.9241191511695094,-0.15113980986048636,0.34979068501830635,0.02840825569276715,0.08606211848505743,0.5300378666886602,0.07546895340702375,-0.1530636928499873,0.4085420926309642,0.19930108243640862,0.06781829814459372,0.0345489443378119,0.03134996801023673,0.236084452975048,0.08509277031349968,0.061420345489443376,0.12156110044785669,0.060140754958413305
142465,0.9183405399579905,-0.16773118118160596,0.35802086064343863,0.01838387535916474,0.08767761726462084,0.5252616081291029,0.07822406099658313,-0.14937680663996616,0.4053896904361926,0.1997986773814266,0.06781829814459372,0.0345489443378119,0.03134996801023673,0.236084452975048,0.08509277031349968,0.061420345489443376,0.12156110044785669,0.060140754958413305
150561,0.9183405399579905,-0.16773118118160596,0.35802086064343863,0.01838387535916474,0.08767761726462084,0.5252616081291029,0.07822406099658313,-0.14937680663996616,0.4053896904361926,0.1997986773814266,0.06397952655150352,0.03198976327575176,0.030710172744721688,0.2309660908509277,0.08061420345489444,0.053103007037747924,0.10044785668586052,0.045425463851567496
157539,0.9124385068220605,-0.18378272232011017,0.3655066447365586,0.009207328513812278,0.09031575846661688,0.5236201759754008,0.08169608894137317,-0.1475676963777045,0.40971275357497117,0.19722986011212362,0.06397952655150352,0.03198976327575176,0.030710172744721688,0.2309660908509277,0.08061420345489444,0.053103007037747924,0.10044785668586052,0.045425463851567496
173066,0.9124385068220605,-0.18378272232011017,0.3655066447365586,0.009207328513812278,0.09031575846661688,0.5236201759754008,0.08169608894137317,-0.1475676963777045,0.40971275357497117,0.19722986011212362,0.0818937939859245,0.03262955854126679,0.02943058221369162,0.23352527191298783,0.08637236084452975,0.04158669225847729,0.07357645553422905,0.05438259756877799
180027,0.9064588573437902,-0.19948253236821317,0.3722080999791699,0.0004353537082494932,0.09571251859816796,0.5249476443215833,0.0845752044747704,-0.14567065527726045,0.4134792370965933,0.19553587989940346,0.0818937939859245,0.03262955854126679,0.02943058221369162,0.23352527191298783,0.08637236084452975,0.04158669225847729,0.07357645553422905,0.05438259756877799
188063,0.9064588573437902,-0.19948253236821317,0.3722080999791699,0.0004353537082494932,0.09571251859816796,0.5249476443215833,0.0845752044747704,-0.14567065527726045,0.4134792370965933,0.19553587989940346,0.10492642354446577,0.0345489443378119,0.028790786948176585,0.2328854766474728,0.09788867562380038,0.03966730646193218,0.07165706973768395,0.06269993602047345
202445,0.9006404464962277,-0.2140237419903953,0.37810333993349077,-0.008859364008970347,0.09801183856663617,0.5284677274629744,0.08514398495227907,-0.13918401752926982,0.41361698306185585,0.19586873001500607,0.10492642354446577,0.0345489443378119,0.028790786948176585,0.2328854766474728,0.09788867562380038,0.03966730646193218,0.07165706973768395,0.06269993602047345
210565,0.9006404464962277,-0.2140237419903953,0.37810333993349077,-0.008859364008970347,0.09801183856663617,0.5284677274629744,0.08514398495227907,-0.13918401752926982,0.41361698306185585,0.19586873001500607,0.10684580934101087,0.037747920665387076,0.035188739603326934,0.20473448496481125,0.09980806142034548,0.04286628278950736,0.061420345489443376,0.061420345489443376
217517,0.8949208920639915,-0.2276470708667937,0.38331703252397575,-0.019012118508248445,0.099918802029826,0.5296114466388987,0.08629783663702878,-0.13277154480129053,0.4125718639062911,0.19739193599292237,0.10684580934101087,0.037747920665387076,0.035188739603326934,0.20473448496481125,0.09980806142034548,0.04286628278950736,0.061420345489443376,0.061420345489443376
233045,0.8949208920639915,-0.2276470708667937,0.38331703252397575,-0.019012118508248445,0.099918802029826,0.5296114466388987,0.08629783663702878,-0.13277154480129053,0.4125718639062911,0.19739193599292237,0.12028150991682661,0.04222648752399232,0.044785668586052464,0.18106206014075496,0.14395393474088292,0.05118362124120281,0.06653870761356366,0.0690978886756238
239996,0.8935414041204682,-0.23650614215282528,0.38036844251689067,-0.031119957964052918,0.09812863491249404,0.5308868315474456,0.08609827251106358,-0.1280214809206658,0.4141728364003909,0.195628716237873,0.12028150991682661,0.04222648752399232,0.044785668586052464,0.18106206014075496,0.14395393474088292,0.05118362124120281,0.06653870761356366,0.0690978886756238
248103,0.8935414041204682,-0.23650614215282528,0.38036844251689067,-0.031119957964052918,0.09812863491249404,0.5308868315474456,0.08609827251106358,-0.1280214809206658,0.4141728364003909,0.195628716237873,0.13051823416506717,0.04862444017914268,0.05886116442738324,0.21305182341650672,0.17978246960972488,0.061420345489443376,0.0690978886756238,0.07485604606525911
262432,0.8927872431573796,-0.24405006828817988,0.3762547895423043,-0.04245981594940092,0.09903330605181618,0.5370848901954135,0.0850214778095788,-0.12278001870777344,0.4197221915909771,0.19123965801116494,0.13051823416506717,0.04862444017914268,0.05886116442738324,0.21305182341650672,0.17978246960972488,0.061420345489443376,0.0690978886756238,0.07485604606525911
270542,0.8927872431573796,-0.24405006828817988,0.3762547895423043,-0.04245981594940092,0.09903330605181618,0.5370848901954135,0.0850214778095788,-0.12278001870777344,0.4197221915909771,0.19123965801116494,0.12412028150991683,0.05118362124120281,0.07293666026871401,0.23544465770953296,0.19641714651311581,0.06973768394113884,0.06845809341010876,0.06973768394113884
277529,0.8925753174988328,-0.24939533454890533,0.3717509001093753,-0.05396793459978534,0.10402220644682234,0.5430045502763963,0.08598251109343269,-0.11438102184191923,0.4218351512590773,0.18730011356127366,0.12412028150991683,0.05118362124120281,0.07293666026871401,0.23544465770953296,0.19641714651311581,0.06973768394113884,0.06845809341010876,0.06973768394113884
293043,0.8925753174988328,-0.24939533454890533,0.3717509001093753,-0.05396793459978534,0.10402220644682234,0.5430045502763963,0.08598251109343269,-0.11438102184191923,0.4218351512590773,0.18730011356127366,0.13179782469609724,0.0671785028790787,0.10108765195137556,0.255278310940499,0.2143314139475368,0.07357645553422905,0.06781829814459372,0.08125399872040946
300008,0.8927137500521682,-0.25075085213005527,0.3690375880318325,-0.06322522632220334,0.0846163052270858,0.5336213870851354,0.08973604986052044,-0.10652016199243652,0.4157379955739735,0.17899277254699963,0.13179782469609724,0.0671785028790787,0.10108765195137556,0.255278310940499,0.2143314139475368,0.07357645553422905,0.06781829814459372,0.08125399872040946
308014,0.8927137500521682,-0.25075085213005527,0.3690375880318325,-0.06322522632220334,0.0846163052270858,0.5336213870851354,0.08973604986052044,-0.10652016199243652,0.4157379955739735,0.17899277254699963,0.13755598208573255,0.07421625079974409,0.13563659628918745,0.32053742802303264,0.22136916186820219,0.0710172744721689,0.06845809341010876,0.08125399872040946
322444,0.8940179806079401,-0.2444267458047344,0.3699481586012603,-0.06423220557123469,0.034985291495939264,0.5059330447115007,0.08988972650030053,-0.09863073456337301,0.41265768972148364,0.15419236430139446,0.13755598208573255,0.07421625079974409,0.13563659628918745,0.32053742802303264,0.22136916186820219,0.0710172744721689,0.06845809341010876,0.08125399872040946
330567,0.8940179806079401,-0.2444267458047344,0.3699481586012603,-0.06423220557123469,0.034985291495939264,0.5059330447115007,0.08988972650030053,-0.09863073456337301,0.41265768972148364,0.15419236430139446,0.13051823416506717,0.07613563659628919,0.1561100447856686,0.3602047344849648,0.19961612284069097,0.06973768394113884,0.06653870761356366,0.07549584133077415
337512,0.8978463734743033,-0.22631484450596978,0.3740573323010723,-0.05229333558959291,0.007934138639804855,0.47669534786676626,0.09794698528401485,-0.084377398994823,0.4386141515893295,0.10484325346594492,0.13051823416506717,0.07613563659628919,0.1561100447856686,0.3602047344849648,0.19961612284069097,0.06973768394113884,0.06653870761356366,0.07549584133077415
353106,0.8978463734743033,-0.22631484450596978,0.3740573323010723,-0.05229333558959291,0.007934138639804855,0.47669534786676626,0.09794698528401485,-0.084377398994823,0.4386141515893295,0.10484325346594492,0.13179782469609724,0.07485604606525911,0.16698656429942418,0.4113883557261676,0.17146513115802944,0.060780550223928344,0.06973768394113884,0.0838131797824696
360022,0.9024337278372943,-0.1950749113023636,0.3825617776978695,-0.034722213159663146,-0.007134510820081763,0.4491162711310235,0.10807222558228968,-0.0424913642744007,0.48811725734606004,0.0530204752962857,0.13179782469609724,0.07485604606525911,0.16698656429942418,0.4113883557261676,0.17146513115802944,0.060780550223928344,0.06973768394113884,0.0838131797824696
368075,0.9024337278372943,-0.1950749113023636,0.3825617776978695,-0.034722213159663146,-0.007134510820081763,0.4491162711310235,0.10807222558228968,-0.0424913642744007,0.48811725734606004,0.0530204752962857,0.12667946257197696,0.07549584133077415,0.1657069737683941,0.42418426103646834,0.15419065898912349,0.052463211772232884,0.07229686500319897,0.08637236084452975
382418,0.9127807680607993,-0.15119547413879691,0.37939687017350154,-0.005404901556262359,-0.059108296578980674,0.4189514139772424,0.10612648870226515,0.0162899941235341,0.5630371415734241,0.010952752211840944,0.12667946257197696,0.07549584133077415,0.1657069737683941,0.42418426103646834,0.15419065898912349,0.052463211772232884,0.07229686500319897,0.08637236084452975
390577,0.9127807680607993,-0.15119547413879691,0.37939687017350154,-0.005404901556262359,-0.059108296578980674,0.4189514139772424,0.10612648870226515,0.0162899941235341,0.5630371415734241,0.010952752211840944,0.11004478566858605,0.07677543186180422,0.16250799744081892,0.4382597568777991,0.1509916826615483,0.04990403071017274,0.0710172744721689,0.08701215611004479
397557,0.925897777756753,-0.1000999560164193,0.36198512340033895,0.04074401044888474,-0.05934160834872146,0.38050499550635686,0.09217476064213764,0.05223224040198737,0.6836112524958715,-0.04909330960378161,0.11004478566858605,0.07677543186180422,0.16250799744081892,0.4382597568777991,0.1509916826615483,0.04990403071017274,0.0710172744721689,0.08701215611004479
413151,0.925897777756753,-0.1000999560164193,0.36198512340033895,0.04074401044888474,-0.05934160834872146,0.38050499550635686,0.09217476064213764,0.05223224040198737,0.6836112524958715,-0.04909330960378161,0.18746001279590532,0.09596928982725528,0.1529110684580934,0.4069097888675624,0.1509916826615483,0.05566218809980806,0.09596928982725528,0.17530390275111965
420068,0.9363559245021891,-0.04961293633778485,0.32950231302289945,0.11047336742470132,0.027858414661325936,0.41743425357587083,0.06787785601268365,0.05099138292045041,0.8050663547056787,-0.10415607280594325,0.18746001279590532,0.09596928982725528,0.1529110684580934,0.4069097888675624,0.1509916826615483,0.05566218809980806,0.09596928982725528,0.17530390275111965
428037,0.9363559245021891,-0.04961293633778485,0.32950231302289945,0.11047336742470132,0.027858414661325936,0.41743425357587083,0.06787785601268365,0.05099138292045041,0.8050663547056787,-0.10415607280594325,0.3000639795265515,0.15930902111324377,0.15163147792706333,0.4069097888675624,0.1836212412028151,0.08573256557901472,0.19065898912348048,0.3160588611644274
442406,0.9394592994271918,-0.019947402513647572,0.28562924995308153,0.1882398932850543,0.14842225302259485,0.5127580387228772,0.0335419912200948,0.016425165312899448,0.8759315124912168,-0.0878097977335188,0.3000639795265515,0.15930902111324377,0.15163147792706333,0.4069097888675624,0.1836212412028151,0.08573256557901472,0.19065898912348048,0.3160588611644274
450597,0.9394592994271918,-0.019947402513647572,0.28562924995308153,0.1882398932850543,0.14842225302259485,0.5127580387228772,0.0335419912200948,0.016425165312899448,0.8759315124912168,-0.0878097977335188,0.4197056941778631,0.23160588611644273,0.1561100447856686,0.3921944977607166,0.22648752399232247,0.21369161868202174,0.4171465131158029,0.32629558541266795
457520,0.9339096993792009,-0.011687964223128788,0.2554951896242014,0.2497964630987852,0.2136783743242703,0.5283668816613338,0.045229553206079604,-0.06422115405754358,0.7842861517095461,-0.01584397615917149,0.4197056941778631,0.23160588611644273,0.1561100447856686,0.3921944977607166,0.22648752399232247,0.21369161868202174,0.4171465131158029,0.32629558541266795
473134,0.9339096993792009,-0.011687964223128788,0.2554951896242014,0.2497964630987852,0.2136783743242703,0.5283668816613338,0.045229553206079604,-0.06422115405754358,0.7842861517095461,-0.01584397615917149,0.44081893793985927,0.23736404350607807,0.15355086372360843,0.37939859245041585,0.2418426103646833,0.24120281509916827,0.5886116442738324,0.36788227767114523
480063,0.9187085158730084,-0.022481957587092705,0.269740855668273,0.2875918900609235,0.21581180267679648,0.42100061032188496,0.12638965709198133,-0.2455503368264073,0.585746372414531,0.05635152173038893,0.44081893793985927,0.23736404350607807,0.15355086372360843,0.37939859245041585,0.2418426103646833,0.24120281509916827,0.5886116442738324,0.36788227767114523
488049,0.9187085158730084,-0.022481957587092705,0.269740855668273,0.2875918900609235,0.21581180267679648,0.42100061032188496,0.12638965709198133,-0.2455503368264073,0.585746372414531,0.05635152173038893,0.44529750479846447,0.23864363403710812,0.1433141394753679,0.39667306461932184,0.24056301983365322,0.26039667306461933,0.7095329494561741,0.5930902111324377
502422,0.8897457930489162,-0.012636683416113126,0.3176840150362401,0.3275203880286692,0.2264631250652068,0.4889212596479132,0.15061386265798682,-0.38485564731736377,0.5141489821707383,-0.02597411299101174,0.44529750479846447,0.23864363403710812,0.1433141394753679,0.39667306461932184,0.24056301983365322,0.26039667306461933,0.7095329494561741,0.5930902111324377
510557,0.8897457930489162,-0.012636683416113126,0.3176840150362401,0.3275203880286692,0.2264631250652068,0.4889212596479132,0.15061386265798682,-0.38485564731736377,0.5141489821707383,-0.02597411299101174,0.43378119001919385,0.24056301983365322,0.1343570057581574,0.6609085092770314,0.2885476647472809,0.3570057581573896,0.7165706973768394,0.7037747920665387
517577,0.8819661481537622,-0.0031063254727680123,0.35169393133771,0.31374741897440295,0.147275122303622,1.129995211079787,-0.03758313934741814,-0.19311592943512512,0.32391708241643635,0.15327925175287946,0.43378119001919385,0.24056301983365322,0.1343570057581574,0.6609085092770314,0.2885476647472809,0.3570057581573896,0.7165706973768394,0.7037747920665387
533079,0.8819661481537622,-0.0031063254727680123,0.35169393133771,0.31374741897440295,0.147275122303622,1.129995211079787,-0.03758313934741814,-0.19311592943512512,0.32391708241643635,0.15327925175287946,0.3646833013435701,0.20601407549584133,0.12412028150991683,0.6948176583493282,0.4753678822776711,0.44337811900191937,0.6999360204734485,0.7965451055662188
539995,0.9013196833582444,-0.03985353154620197,0.3431405842256384,0.26132176310360683,-0.07165638788738421,0.6655237896290255,-0.01576030635632844,0.01866357176933031,0.32813158631712525,0.3866910980754674,0.3646833013435701,0.20601407549584133,0.12412028150991683,0.6948176583493282,0.4753678822776711,0.44337811900191937,0.6999360204734485,0.7965451055662188
548072,0.9013196833582444,-0.03985353154620197,0.3431405842256384,0.26132176310360683,-0.07165638788738421,0.6655237896290255,-0.01576030635632844,0.01866357176933031,0.32813158631712525,0.3866910980754674,0.22072936660268713,0.12476007677543186,0.14267434420985284,0.691618682021753,0.5540626999360204,0.4152271273192578,0.5943698016634676,0.8458093410108766
562400,0.9113101820147473,-0.12058616486140983,0.32086972557307075,0.22806873571563296,0.06791990311574003,0.2868395456033394,0.08936713899104085,-0.0574782698809419,0.4748015320455118,0.41146582094896433,0.22072936660268713,0.12476007677543186,0.14267434420985284,0.691618682021753,0.5540626999360204,0.4152271273192578,0.5943698016634676,0.8458093410108766
570543,0.9113101820147473,-0.12058616486140983,0.32086972557307075,0.22806873571563296,0.06791990311574003,0.2868395456033394,0.08936713899104085,-0.0574782698809419,0.4748015320455118,0.41146582094896433,0.18042226487523993,0.11388355726167626,0.17978246960972488,0.8227767114523352,0.5668586052463211,0.4094689699296225,0.4305822136916187,0.8822776711452335
577544,0.9088518431827552,-0.19568145768542106,0.3407549494060542,0.1399398396336603,0.25243280111386895,0.5423364130914254,0.19665556882379795,-0.12084442914099519,0.16382141858052618,0.5289657632527487,0.18042226487523993,0.11388355726167626,0.17978246960972488,0.8227767114523352,0.5668586052463211,0.4094689699296225,0.4305822136916187,0.8822776711452335
593048,0.9088518431827552,-0.19568145768542106,0.3407549494060542,0.1399398396336603,0.25243280111386895,0.5423364130914254,0.19665556882379795,-0.12084442914099519,0.16382141858052618,0.5289657632527487,0.17530390275111965,0.10748560460652591,0.2616762635956494,0.8406909788867563,0.6295585412667947,0.4088291746641075,0.18490083173384517,0.8777991042866283
599996,0.9090943934959665,-0.2103921194299881,0.35763746515528594,0.03712119762696265,-0.025492295590491654,0.5372806611284571,0.07600720455941792,0.05553878501880488,0.0633880050970313,0.48502716707369614,0.17530390275111965,0.10748560460652591,0.2616762635956494,0.8406909788867563,0.6295585412667947,0.4088291746641075,0.18490083173384517,0.8777991042866283
608070,0.9090943934959665,-0.2103921194299881,0.35763746515528594,0.03712119762696265,-0.025492295590491654,0.5372806611284571,0.07600720455941792,0.05553878501880488,0.0633880050970313,0.48502716707369614,0.12923864363403711,0.09980806142034548,0.30134357005758156,0.6954574536148432,0.7024952015355086,0.3307741522712732,0.13947536788227768,0.8010236724248241
622454,0.9120036302054937,-0.20075537830710838,0.35765806460413263,-0.005231194547822657,-0.11311721590074147,0.4437760412347169,0.07495833841224026,0.05211928207007141,0.3289904807677393,0.2661948710039023,0.12923864363403711,0.09980806142034548,0.30134357005758156,0.6954574536148432,0.7024952015355086,0.3307741522712732,0.13947536788227768,0.8010236724248241
630532,0.9120036302054937,-0.20075537830710838,0.35765806460413263,-0.005231194547822657,-0.11311721590074147,0.4437760412347169,0.07495833841224026,0.05211928207007141,0.3289904807677393,0.2661948710039023,0.13115802943058222,0.09660908509277032,0.3198976327575176,0.7389635316698656,0.6813819577735125,0.19001919385796545,0.12923864363403711,0.7184900831733845
637529,0.9255412913792259,-0.15311184338163397,0.3451215408843601,0.028656646453448183,0.04185351613840069,0.28352322387363427,0.12960292027061998,0.0411192979442806,0.6290667957236334,-0.01594979977400615,0.13115802943058222,0.09660908509277032,0.3198976327575176,0.7389635316698656,0.6813819577735125,0.19001919385796545,0.12923864363403711,0.7184900831733845
653033,0.9255412913792259,-0.15311184338163397,0.3451215408843601,0.028656646453448183,0.04185351613840069,0.28352322387363427,0.12960292027061998,0.0411192979442806,0.6290667957236334,-0.01594979977400615,0.11580294305822136,0.08765195137555983,0.30326295585412666,0.8470889315419066,0.7376839411388356,0.15227127319257838,0.12603966730646193,0.672424824056302
660039,0.9305040570105982,-0.09531292817992515,0.33784622937636355,0.10458284230579812,0.2017561621062437,0.14167483686257387,0.2318939332374027,-0.05350226362843352,0.7524379988650113,-0.1640255701451848,0.11580294305822136,0.08765195137555983,0.30326295585412666,0.8470889315419066,0.7376839411388356,0.15227127319257838,0.12603966730646193,0.672424824056302
667416,0.9305040570105982,-0.09531292817992515,0.33784622937636355,0.10458284230579812,0.2017561621062437,0.14167483686257387,0.2318939332374027,-0.05350226362843352,0.7524379988650113,-0.1640255701451848,0.12987843889955214,0.10684580934101087,0.291106845809341,0.8080614203454894,0.8099808061420346,0.127319257837492,0.10556621880998081,0.6263595649392194
682498,0.926834315235097,-0.061044392514626344,0.34508417247159395,0.13479112787867198,0.05772308978931362,0.5133491953846908,0.15025526568062397,-0.09463558505811676,0.5422981582561138,-0.0018571233393423203,0.12987843889955214,0.10684580934101087,0.291106845809341,0.8080614203454894,0.8099808061420346,0.127319257837492,0.10556621880998081,0.6263595649392194
690571,0.926834315235097,-0.061044392514626344,0.34508417247159395,0.13479112787867198,0.05772308978931362,0.5133491953846908,0.15025526568062397,-0.09463558505811676,0.5422981582561138,-0.0018571233393423203,0.27767114523352526,0.23864363403710812,0.24312220089571338,0.8074216250799744,0.836852207293666,0.11900191938579655,0.14971209213051823,0.4740882917466411
697553,0.9336203345683168,-0.06462423322756072,0.32013569080477655,0.14727497694191838,-0.26314697700403217,0.8944191954853173,-0.08216445809608144,-0.005169622694618903,0.5900687369694101,0.14276817295529526,0.27767114523352526,0.23864363403710812,0.24312220089571338,0.8074216250799744,0.836852207293666,0.11900191938579655,0.14971209213051823,0.4740882917466411
713018,0.9336203345683168,-0.06462423322756072,0.32013569080477655,0.14727497694191838,-0.26314697700403217,0.8944191954853173,-0.08216445809608144,-0.005169622694618903,0.5900687369694101,0.14276817295529526,0.362763915547025,0.29174664107485604,0.2034548944337812,0.8822776711452335,0.9219449776071658,0.3039027511196417,0.4273832373640435,0.4894433781190019
719996,0.9457890706306687,-0.07069695195195891,0.2545779946762446,0.188878319261106,-0.06740081944981802,0.4793651148429502,-0.008082207475954811,0.09246024857440482,0.8146340583937048,0.09369650758894865,0.362763915547025,0.29174664107485604,0.2034548944337812,0.8822776711452335,0.9219449776071658,0.3039027511196417,0.4273832373640435,0.4894433781190019
735561,0.9457890706306687,-0.07069695195195891,0.2545779946762446,0.188878319261106,-0.06740081944981802,0.4793651148429502,-0.008082207475954811,0.09246024857440482,0.8146340583937048,0.09369650758894865,0.4740882917466411,0.3365323096609085,0.18042226487523993,0.90850927703135,1,0.345489443378119,0.5508637236084453,0.5470249520153551
742523,0.9369278034281311,-0.074377501867945,0.23106576771574452,0.2514813897073796,0.15503900896217027,0.3226928639437623,0.09771751263911725,-0.139588776458276,0.7710740022902864,-0.0021756056636088317,0.4740882917466411,0.3365323096609085,0.18042226487523993,0.90850927703135,1,0.345489443378119,0.5508637236084453,0.5470249520153551
750517,0.9369278034281311,-0.074377501867945,0.23106576771574452,0.2514813897073796,0.15503900896217027,0.3226928639437623,0.09771751263911725,-0.139588776458276,0.7710740022902864,-0.0021756056636088317,0.48112603966730644,0.34420985284708894,0.17978246960972488,0.8259756877799105,0.927063339731286,0.3512476007677543,0.5898912348048625,0.781190019193858
757495,0.9050882717878883,-0.07655585134211379,0.27560694454021223,0.31463508071813323,0.29226730523130673,0.5334028170257321,0.06817735963145319,-0.4410174570667347,0.5800491169620425,-0.04667465950659255,0.48112603966730644,0.34420985284708894,0.17978246960972488,0.8259756877799105,0.927063339731286,0.3512476007677543,0.5898912348048625,0.781190019193858
773042,0.9050882717878883,-0.07655585134211379,0.27560694454021223,0.31463508071813323,0.29226730523130673,0.5334028170257321,0.06817735963145319,-0.4410174570667347,0.5800491169620425,-0.04667465950659255,0.47664747280870123,0.34037108125399873,0.16634676903390916,0.8010236724248241,0.8707613563659629,0.3563659628918746,0.5988483685220729,0.8637236084452975
780011,0.874855044678074,-0.0711318473278279,0.325361678309624,0.3517224607337447,0.3710460642935649,0.5747682070617907,0.20831944740809488,-0.3955343629547241,0.4655558236061415,0.00831196996562511,0.47664747280870123,0.34037108125399873,0.16634676903390916,0.8010236724248241,0.8707613563659629,0.3563659628918746,0.5988483685220729,0.8637236084452975
795565,0.874855044678074,-0.0711318473278279,0.325361678309624,0.3517224607337447,0.3710460642935649,0.5747682070617907,0.20831944740809488,-0.3955343629547241,0.4655558236061415,0.00831196996562511,0.4037108125399872,0.2655150351887396,0.13563659628918745,0.8809980806142035,0.8253358925143954,0.3838771593090211,0.5905310300703774,0.9040307101727447
802469,0.8765350295928853,-0.057360909506269486,0.3700944512885761,0.30236759926060364,0.10486106404457424,0.8589932666920422,-0.01130338572420242,-0.1402604646069468,0.15302496684930464,0.2598069659596192,0.4037108125399872,0.2655150351887396,0.13563659628918745,0.8809980806142035,0.8253358925143954,0.3838771593090211,0.5905310300703774,0.9040307101727447
810545,0.8765350295928853,-0.057360909506269486,0.3700944512885761,0.30236759926060364,0.10486106404457424,0.8589932666920422,-0.01130338572420242,-0.1402604646069468,0.15302496684930464,0.2598069659596192,0.33013435700575816,0.20153550863723607,0.14843250159948818,0.8419705694177864,0.7703134996801023,0.3237364043506078,0.44529750479846447,0.8829174664107485
817525,0.8880070024465212,-0.11390588187821138,0.37011819467502605,0.24795470483536056,-0.17184723294672039,0.756805421725133,-0.05816464149976472,-0.054139357599268856,0.3330301842794973,0.41774524888444764,0.33013435700575816,0.20153550863723607,0.14843250159948818,0.8419705694177864,0.7703134996801023,0.3237364043506078,0.44529750479846447,0.8829174664107485
833023,0.8880070024465212,-0.11390588187821138,0.37011819467502605,0.24795470483536056,-0.17184723294672039,0.756805421725133,-0.05816464149976472,-0.054139357599268856,0.3330301842794973,0.41774524888444764,0.12987843889955214,0.11900191938579655,0.2527191298784389,0.7683941138835573,0.6564299424184261,0.29942418426103645,0.3115802943058221,0.9168266154830454
839994,0.895004247148466,-0.19476119480057924,0.3425556330716839,0.2090241919896263,0.13900155046914278,0.48299154837217106,0.14672970843318073,-0.047308076616083716,0.49799061659022287,0.41321619127300574,0.12987843889955214,0.11900191938579655,0.2527191298784389,0.7683941138835573,0.6564299424184261,0.29942418426103645,0.3115802943058221,0.9168266154830454
855517,0.895004247148466,-0.19476119480057924,0.3425556330716839,0.2090241919896263,0.13900155046914278,0.48299154837217106,0.14672970843318073,-0.047308076616083716,0.49799061659022287,0.41321619127300574,0.1145233525271913,0.10492642354446577,0.29686500319897635,0.7741522712731925,0.7005758157389635,0.30070377479206656,0.2328854766474728,0.8259756877799105
862473,0.8970162848964665,-0.2366109587560674,0.35742670756906025,0.107810887870463,0.023866750699361505,0.46002703697689984,0.17769664000099405,0.020258699884746018,0.10978247480406819,0.5300516575726036,0.1145233525271913,0.10492642354446577,0.29686500319897635,0.7741522712731925,0.7005758157389635,0.30070377479206656,0.2328854766474728,0.8259756877799105
870545,0.8970162848964665,-0.2366109587560674,0.35742670756906025,0.107810887870463,0.023866750699361505,0.46002703697689984,0.17769664000099405,0.020258699884746018,0.10978247480406819,0.5300516575726036,0.2667946257197697,0.16122840690978887,0.3103007037747921,0.7594369801663468,0.7146513115802943,0.29558541266794625,0.2220089571337172,0.7184900831733845
877483,0.9081544444610778,-0.21625683248976751,0.3542268642361772,0.0548800151283546,-0.1338630802836925,0.3963014283215303,0.07465747819764545,0.13055469892403734,0.3084323892541619,0.2829623693157677,0.2667946257197697,0.16122840690978887,0.3103007037747921,0.7594369801663468,0.7146513115802943,0.29558541266794625,0.2220089571337172,0.7184900831733845
892996,0.9081544444610778,-0.21625683248976751,0.3542268642361772,0.0548800151283546,-0.1338630802836925,0.3963014283215303,0.07465747819764545,0.13055469892403734,0.3084323892541619,0.2829623693157677,0.2853486884197057,0.17018554062699937,0.32501599488163785,0.7421625079974408,0.8157389635316699,0.2514395393474088,0.2053742802303263,0.6397952655150352
899970,0.9248228679102488,-0.13163581035051664,0.3454062057060345,0.08982889002645957,0.04433688506137043,0.3024764535645119,0.06329111836648633,0.11922396306483296,0.600660925098917,-0.08504506409146219,0.2853486884197057,0.17018554062699937,0.32501599488163785,0.7421625079974408,0.8157389635316699,0.2514395393474088,0.2053742802303263,0.6397952655150352
915545,0.9248228679102488,-0.13163581035051664,0.3454062057060345,0.08982889002645957,0.04433688506137043,0.3024764535645119,0.06329111836648633,0.11922396306483296,0.600660925098917,-0.08504506409146219,0.326935380678183,0.2252079334612924,0.32437619961612285,0.7773512476007678,0.8304542546385156,0.3141394753678823,0.18170185540626999,0.6813819577735125
