Timestamp, Orientation x, Orientation y, Orientation z, Orientation w, Acceleration x, Acceleration y, Acceleration z, Rotation x, Rotation y, Rotation z, EMG 0, EMG 1, EMG 2, EMG 3, EMG 4, EMG 5, EMG 6, EMG 7
0,3140,13884,-1865,7894,3748,4828,-628,-117,149,213,0,0,0,0,0,0,0,0
7526,3098,13883,-1881,7909,3758,4896,-550,134,142,200,0,0,0,0,0,0,0,0
22508,3047,13884,-1879,7926,3826,4986,-496,261,120,184,0,0,0,0,0,0,0,0
44997,3011,13883,-1874,7943,3911,5090,-448,238,88,176,0,0,0,0,0,0,0,0
60086,3000,13878,-1876,7956,3978,5160,-427,114,68,178,0,0,0,0,0,0,0,0
68156,3000,13878,-1876,7956,3978,5160,-427,114,68,178,51,174,99,55,33,105,250,106
68939,3000,13878,-1876,7956,3978,5160,-427,114,68,178,51,174,99,55,33,105,250,106
82534,3015,13868,-1893,7963,4040,5183,-429,-57,44,180,51,174,99,55,33,105,250,106
90619,3015,13868,-1893,7963,4040,5183,-429,-57,44,180,42,143,84,49,29,88,209,95
91412,3015,13868,-1893,7963,4040,5183,-429,-57,44,180,42,143,84,49,29,88,209,95
107741,3046,13856,-1929,7964,4075,5163,-448,-199,18,200,42,143,84,49,29,88,209,95
108571,3140,13884,-1865,7894,3748,4828,-628,-117,149,213,42,143,84,49,29,88,209,95
109379,3098,13883,-1881,7909,3758,4896,-550,134,142,200,42,143,84,49,29,88,209,95
110262,3047,13884,-1879,7926,3826,4986,-496,261,120,184,42,143,84,49,29,88,209,95
115145,3011,13883,-1874,7943,3911,5090,-448,238,88,176,42,143,84,49,29,88,209,95
115970,3000,13878,-1876,7956,3978,5160,-427,114,68,178,42,143,84,49,29,88,209,95
116788,3000,13878,-1876,7956,3978,5160,-427,114,68,178,51,174,99,55,33,105,250,106
117596,3000,13878,-1876,7956,3978,5160,-427,114,68,178,51,174,99,55,33,105,250,106
122686,3000,13878,-1876,7956,3978,5160,-427,114,68,178,42,143,84,49,29,88,209,95
123517,3000,13878,-1876,7956,3978,5160,-427,114,68,178,42,143,84,49,29,88,209,95
124327,3000,13878,-1876,7956,3978,5160,-427,114,68,178,42,143,84,49,29,88,209,95
125132,3000,13878,-1876,7956,3978,5160,-427,114,68,178,42,143,84,49,29,88,209,95
130106,3000,13878,-1876,7956,3978,5160,-427,114,68,178,42,143,84,49,29,88,209,95
130889,3000,13878,-1876,7956,3978,5160,-427,114,68,178,42,143,84,49,29,88,209,95
131719,3000,13878,-1876,7956,3978,5160,-427,114,68,178,42,143,84,49,29,88,209,95
132534,3000,13878,-1876,7956,3978,5160,-427,114,68,178,42,143,84,49,29,88,209,95
137604,3000,13878,-1876,7956,3978,5160,-427,114,68,178,42,143,84,49,29,88,209,95
138527,3046,13856,-1929,7964,4075,5163,-448,-199,18,200,42,143,84,49,29,88,209,95
139351,3046,13856,-1929,7964,4075,5163,-448,-199,18,200,37,120,71,41,28,77,177,83
140161,3046,13856,-1929,7964,4075,5163,-448,-199,18,200,37,120,71,41,28,77,177,83
144304,3046,13856,-1929,7964,4075,5163,-448,-199,18,200,37,120,71,41,28,77,177,83
145084,3046,13856,-1929,7964,4075,5163,-448,-199,18,200,37,120,71,41,28,77,177,83
145900,3046,13856,-1929,7964,4075,5163,-448,-199,18,200,37,120,71,41,28,77,177,83
152573,3046,13856,-1929,7964,4075,5163,-448,-199,18,200,37,120,71,41,28,77,177,83
153397,3046,13856,-1929,7964,4075,5163,-448,-199,18,200,37,120,71,41,28,77,177,83
154196,3046,13856,-1929,7964,4075,5163,-448,-199,18,200,37,120,71,41,28,77,177,83
154994,3046,13856,-1929,7964,4075,5163,-448,-199,18,200,37,120,71,41,28,77,177,83
160148,3046,13856,-1929,7964,4075,5163,-448,-199,18,200,37,120,71,41,28,77,177,83
160954,3046,13856,-1929,7964,4075,5163,-448,-199,18,200,37,120,71,41,28,77,177,83
161876,3086,13844,-1980,7958,4068,5131,-485,-301,-5,227,37,120,71,41,28,77,177,83
162690,3086,13844,-1980,7958,4068,5131,-485,-301,-5,227,36,95,58,39,23,57,137,65
167706,3086,13844,-1980,7958,4068,5131,-485,-301,-5,227,36,95,58,39,23,57,137,65
168518,3086,13844,-1980,7958,4068,5131,-485,-301,-5,227,36,95,58,39,23,57,137,65
169326,3086,13844,-1980,7958,4068,5131,-485,-301,-5,227,36,95,58,39,23,57,137,65
170133,3086,13844,-1980,7958,4068,5131,-485,-301,-5,227,36,95,58,39,23,57,137,65
175120,3086,13844,-1980,7958,4068,5131,-485,-301,-5,227,36,95,58,39,23,57,137,65
175903,3086,13844,-1980,7958,4068,5131,-485,-301,-5,227,36,95,58,39,23,57,137,65
176718,3086,13844,-1980,7958,4068,5131,-485,-301,-5,227,36,95,58,39,23,57,137,65
177531,3086,13844,-1980,7958,4068,5131,-485,-301,-5,227,36,95,58,39,23,57,137,65
181046,3086,13844,-1980,7958,4068,5131,-485,-301,-5,227,36,95,58,39,23,57,137,65
190325,3129,13832,-2042,7946,4041,5079,-528,-368,-13,241,36,95,58,39,23,57,137,65
191002,3129,13832,-2042,7946,4041,5079,-528,-368,-13,241,33,66,43,32,22,45,96,50
191847,3129,13832,-2042,7946,4041,5079,-528,-368,-13,241,33,66,43,32,22,45,96,50
192666,3129,13832,-2042,7946,4041,5079,-528,-368,-13,241,33,66,43,32,22,45,96,50
197596,3129,13832,-2042,7946,4041,5079,-528,-368,-13,241,33,66,43,32,22,45,96,50
198430,3129,13832,-2042,7946,4041,5079,-528,-368,-13,241,33,66,43,32,22,45,96,50
199208,3129,13832,-2042,7946,4041,5079,-528,-368,-13,241,33,66,43,32,22,45,96,50
200002,3129,13832,-2042,7946,4041,5079,-528,-368,-13,241,33,66,43,32,22,45,96,50
205165,3129,13832,-2042,7946,4041,5079,-528,-368,-13,241,33,66,43,32,22,45,96,50
206088,3172,13821,-2108,7930,3984,5033,-550,-395,-12,235,33,66,43,32,22,45,96,50
206880,3172,13821,-2108,7930,3984,5033,-550,-395,-12,235,31,51,32,31,20,34,68,35
207698,3172,13821,-2108,7930,3984,5033,-550,-395,-12,235,31,51,32,31,20,34,68,35
212653,3172,13821,-2108,7930,3984,5033,-550,-395,-12,235,31,51,32,31,20,34,68,35
213457,3172,13821,-2108,7930,3984,5033,-550,-395,-12,235,31,51,32,31,20,34,68,35
214296,3172,13821,-2108,7930,3984,5033,-550,-395,-12,235,31,51,32,31,20,34,68,35
215103,3172,13821,-2108,7930,3984,5033,-550,-395,-12,235,31,51,32,31,20,34,68,35
218584,3172,13821,-2108,7930,3984,5033,-550,-395,-12,235,31,51,32,31,20,34,68,35
219361,3172,13821,-2108,7930,3984,5033,-550,-395,-12,235,31,51,32,31,20,34,68,35
227624,3172,13821,-2108,7930,3984,5033,-550,-395,-12,235,31,51,32,31,20,34,68,35
228432,3172,13821,-2108,7930,3984,5033,-550,-395,-12,235,31,51,32,31,20,34,68,35
229295,3172,13821,-2108,7930,3984,5033,-550,-395,-12,235,31,51,32,31,20,34,68,35
230164,3207,13813,-2169,7913,3919,4986,-580,-361,3,215,31,51,32,31,20,34,68,35
235180,3207,13813,-2169,7913,3919,4986,-580,-361,3,215,31,43,32,32,22,29,65,31
236050,3207,13813,-2169,7913,3919,4986,-580,-361,3,215,31,43,32,32,22,29,65,31
236799,3207,13813,-2169,7913,3919,4986,-580,-361,3,215,31,43,32,32,22,29,65,31
237617,3207,13813,-2169,7913,3919,4986,-580,-361,3,215,31,43,32,32,22,29,65,31
250130,3207,13813,-2169,7913,3919,4986,-580,-361,3,215,31,43,32,32,22,29,65,31
250920,3207,13813,-2169,7913,3919,4986,-580,-361,3,215,31,43,32,32,22,29,65,31
251770,3207,13813,-2169,7913,3919,4986,-580,-361,3,215,31,43,32,32,22,29,65,31
252566,3207,13813,-2169,7913,3919,4986,-580,-361,3,215,31,43,32,32,22,29,65,31
257642,3207,13813,-2169,7913,3919,4986,-580,-361,3,215,31,43,32,32,22,29,65,31
258555,3231,13808,-2216,7899,3895,4971,-596,-266,29,177,31,43,32,32,22,29,65,31
259407,3231,13808,-2216,7899,3895,4971,-596,-266,29,177,29,39,32,32,22,29,65,30
260198,3231,13808,-2216,7899,3895,4971,-596,-266,29,177,29,39,32,32,22,29,65,30
265205,3231,13808,-2216,7899,3895,4971,-596,-266,29,177,29,39,32,32,22,29,65,30
266010,3231,13808,-2216,7899,3895,4971,-596,-266,29,177,29,39,32,32,22,29,65,30
266832,3231,13808,-2216,7899,3895,4971,-596,-266,29,177,29,39,32,32,22,29,65,30
267667,3231,13808,-2216,7899,3895,4971,-596,-266,29,177,29,39,32,32,22,29,65,30
272605,3231,13808,-2216,7899,3895,4971,-596,-266,29,177,29,39,32,32,22,29,65,30
273411,3231,13808,-2216,7899,3895,4971,-596,-266,29,177,29,39,32,32,22,29,65,30
274213,3231,13808,-2216,7899,3895,4971,-596,-266,29,177,29,39,32,32,22,29,65,30
275071,3231,13808,-2216,7899,3895,4971,-596,-266,29,177,29,39,32,32,22,29,65,30
280144,3231,13808,-2216,7899,3895,4971,-596,-266,29,177,29,39,32,32,22,29,65,30
281042,3243,13805,-2231,7895,3946,4961,-631,-122,106,53,29,39,32,32,22,29,65,30
281849,3243,13805,-2231,7895,3946,4961,-631,-122,106,53,27,39,30,30,21,29,57,30
282648,3243,13805,-2231,7895,3946,4961,-631,-122,106,53,27,39,30,30,21,29,57,30
287676,3243,13805,-2231,7895,3946,4961,-631,-122,106,53,27,39,30,30,21,29,57,30
288484,3243,13805,-2231,7895,3946,4961,-631,-122,106,53,27,39,30,30,21,29,57,30
289294,3243,13805,-2231,7895,3946,4961,-631,-122,106,53,27,39,30,30,21,29,57,30
290106,3243,13805,-2231,7895,3946,4961,-631,-122,106,53,27,39,30,30,21,29,57,30
295086,3243,13805,-2231,7895,3946,4961,-631,-122,106,53,27,39,30,30,21,29,57,30
295884,3243,13805,-2231,7895,3946,4961,-631,-122,106,53,27,39,30,30,21,29,57,30
296721,3243,13805,-2231,7895,3946,4961,-631,-122,106,53,27,39,30,30,21,29,57,30
297517,3243,13805,-2231,7895,3946,4961,-631,-122,106,53,27,39,30,30,21,29,57,30
302586,3243,13805,-2231,7895,3946,4961,-631,-122,106,53,27,39,30,30,21,29,57,30
303516,3255,13805,-2195,7901,3918,4994,-683,24,233,-164,27,39,30,30,21,29,57,30
304324,3255,13805,-2195,7901,3918,4994,-683,24,233,-164,25,40,32,31,24,30,54,30
305134,3255,13805,-2195,7901,3918,4994,-683,24,233,-164,25,40,32,31,24,30,54,30
310147,3255,13805,-2195,7901,3918,4994,-683,24,233,-164,25,40,32,31,24,30,54,30
310965,3255,13805,-2195,7901,3918,4994,-683,24,233,-164,25,40,32,31,24,30,54,30
311799,3255,13805,-2195,7901,3918,4994,-683,24,233,-164,25,40,32,31,24,30,54,30
312596,3255,13805,-2195,7901,3918,4994,-683,24,233,-164,25,40,32,31,24,30,54,30
317616,3255,13805,-2195,7901,3918,4994,-683,24,233,-164,25,40,32,31,24,30,54,30
318421,3255,13805,-2195,7901,3918,4994,-683,24,233,-164,25,40,32,31,24,30,54,30
319302,3255,13805,-2195,7901,3918,4994,-683,24,233,-164,25,40,32,31,24,30,54,30
320006,3255,13805,-2195,7901,3918,4994,-683,24,233,-164,25,40,32,31,24,30,54,30
325119,3255,13805,-2195,7901,3918,4994,-683,24,233,-164,25,40,32,31,24,30,54,30
326064,3249,13815,-2119,7906,3894,5063,-765,231,282,-283,25,40,32,31,24,30,54,30
326872,3249,13815,-2119,7906,3894,5063,-765,231,282,-283,31,57,39,29,24,31,53,31
327666,3249,13815,-2119,7906,3894,5063,-765,231,282,-283,31,57,39,29,24,31,53,31
332702,3249,13815,-2119,7906,3894,5063,-765,231,282,-283,31,57,39,29,24,31,53,31
333509,3249,13815,-2119,7906,3894,5063,-765,231,282,-283,31,57,39,29,24,31,53,31
334364,3249,13815,-2119,7906,3894,5063,-765,231,282,-283,31,57,39,29,24,31,53,31
335175,3249,13815,-2119,7906,3894,5063,-765,231,282,-283,31,57,39,29,24,31,53,31
340095,3249,13815,-2119,7906,3894,5063,-765,231,282,-283,31,57,39,29,24,31,53,31
340908,3249,13815,-2119,7906,3894,5063,-765,231,282,-283,31,57,39,29,24,31,53,31
341720,3249,13815,-2119,7906,3894,5063,-765,231,282,-283,31,57,39,29,24,31,53,31
342531,3249,13815,-2119,7906,3894,5063,-765,231,282,-283,31,57,39,29,24,31,53,31
347600,3249,13815,-2119,7906,3894,5063,-765,231,282,-283,31,57,39,29,24,31,53,31
348538,3253,13835,-1993,7903,3962,5264,-834,356,291,-494,31,57,39,29,24,31,53,31
349335,3253,13835,-1993,7903,3962,5264,-834,356,291,-494,76,101,55,26,25,31,51,30
350157,3253,13835,-1993,7903,3962,5264,-834,356,291,-494,76,101,55,26,25,31,51,30
355209,3253,13835,-1993,7903,3962,5264,-834,356,291,-494,76,101,55,26,25,31,51,30
355985,3253,13835,-1993,7903,3962,5264,-834,356,291,-494,76,101,55,26,25,31,51,30
356815,3253,13835,-1993,7903,3962,5264,-834,356,291,-494,76,101,55,26,25,31,51,30
357624,3253,13835,-1993,7903,3962,5264,-834,356,291,-494,76,101,55,26,25,31,51,30
362559,3253,13835,-1993,7903,3962,5264,-834,356,291,-494,76,101,55,26,25,31,51,30
363380,3253,13835,-1993,7903,3962,5264,-834,356,291,-494,76,101,55,26,25,31,51,30
364191,3253,13835,-1993,7903,3962,5264,-834,356,291,-494,76,101,55,26,25,31,51,30
365004,3253,13835,-1993,7903,3962,5264,-834,356,291,-494,76,101,55,26,25,31,51,30
370143,3253,13835,-1993,7903,3962,5264,-834,356,291,-494,76,101,55,26,25,31,51,30
371082,3278,13868,-1814,7878,4029,5439,-905,414,229,-794,76,101,55,26,25,31,51,30
371875,3278,13868,-1814,7878,4029,5439,-905,414,229,-794,88,126,64,28,28,32,54,36
372688,3278,13868,-1814,7878,4029,5439,-905,414,229,-794,76,101,55,26,25,31,51,30
377715,3278,13868,-1814,7878,4029,5439,-905,414,229,-794,88,126,64,28,28,32,54,36
378527,3278,13868,-1814,7878,4029,5439,-905,414,229,-794,88,126,64,28,28,32,54,36
379354,3278,13868,-1814,7878,4029,5439,-905,414,229,-794,88,126,64,28,28,32,54,36
380144,3278,13868,-1814,7878,4029,5439,-905,414,229,-794,88,126,64,28,28,32,54,36
385092,3278,13868,-1814,7878,4029,5439,-905,414,229,-794,88,126,64,28,28,32,54,36
385906,3278,13868,-1814,7878,4029,5439,-905,414,229,-794,88,126,64,28,28,32,54,36
386727,3278,13868,-1814,7878,4029,5439,-905,414,229,-794,88,126,64,28,28,32,54,36
387562,3278,13868,-1814,7878,4029,5439,-905,414,229,-794,88,126,64,28,28,32,54,36
392634,3278,13868,-1814,7878,4029,5439,-905,414,229,-794,88,126,64,28,28,32,54,36
393544,3304,13921,-1577,7824,4013,5507,-957,564,113,-1125,88,126,64,28,28,32,54,36
394362,3304,13921,-1577,7824,4013,5507,-957,564,113,-1125,100,144,71,29,30,33,60,37
395174,3304,13921,-1577,7824,4013,5507,-957,564,113,-1125,100,144,71,29,30,33,60,37
400227,3304,13921,-1577,7824,4013,5507,-957,564,113,-1125,100,144,71,29,30,33,60,37
400983,3304,13921,-1577,7824,4013,5507,-957,564,113,-1125,100,144,71,29,30,33,60,37
401801,3304,13921,-1577,7824,4013,5507,-957,564,113,-1125,100,144,71,29,30,33,60,37
402629,3304,13921,-1577,7824,4013,5507,-957,564,113,-1125,100,144,71,29,30,33,60,37
407592,3304,13921,-1577,7824,4013,5507,-957,564,113,-1125,100,144,71,29,30,33,60,37
408386,3304,13921,-1577,7824,4013,5507,-957,564,113,-1125,100,144,71,29,30,33,60,37
409184,3304,13921,-1577,7824,4013,5507,-957,564,113,-1125,100,144,71,29,30,33,60,37
409999,3304,13921,-1577,7824,4013,5507,-957,564,113,-1125,100,144,71,29,30,33,60,37
415099,3304,13921,-1577,7824,4013,5507,-957,564,113,-1125,100,144,71,29,30,33,60,37
416035,3333,13967,-1288,7783,4142,5534,-1045,663,25,-1526,100,144,71,29,30,33,60,37
416867,3333,13967,-1288,7783,4142,5534,-1045,663,25,-1526,108,167,74,29,30,34,59,40
417652,3333,13967,-1288,7783,4142,5534,-1045,663,25,-1526,108,167,74,29,30,34,59,40
420469,3333,13967,-1288,7783,4142,5534,-1045,663,25,-1526,108,167,74,29,30,34,59,40
430131,3333,13967,-1288,7783,4142,5534,-1045,663,25,-1526,108,167,74,29,30,34,59,40
430952,3333,13967,-1288,7783,4142,5534,-1045,663,25,-1526,108,167,74,29,30,34,59,40
431740,3333,13967,-1288,7783,4142,5534,-1045,663,25,-1526,108,167,74,29,30,34,59,40
432567,3333,13967,-1288,7783,4142,5534,-1045,663,25,-1526,108,167,74,29,30,34,59,40
437574,3333,13967,-1288,7783,4142,5534,-1045,663,25,-1526,108,167,74,29,30,34,59,40
438460,3333,13967,-1288,7783,4142,5534,-1045,663,25,-1526,108,167,74,29,30,34,59,40
439195,3333,13967,-1288,7783,4142,5534,-1045,663,25,-1526,108,167,74,29,30,34,59,40
440028,3333,13967,-1288,7783,4142,5534,-1045,663,25,-1526,108,167,74,29,30,34,59,40
445209,3333,13967,-1288,7783,4142,5534,-1045,663,25,-1526,108,165,72,30,35,38,63,40
446001,3333,13967,-1288,7783,4142,5534,-1045,663,25,-1526,108,165,72,30,35,38,63,40
446814,3333,13967,-1288,7783,4142,5534,-1045,663,25,-1526,108,165,72,30,35,38,63,40
447635,3333,13967,-1288,7783,4142,5534,-1045,663,25,-1526,108,165,72,30,35,38,63,40
452613,3333,13967,-1288,7783,4142,5534,-1045,663,25,-1526,108,165,72,30,35,38,63,40
453408,3333,13967,-1288,7783,4142,5534,-1045,663,25,-1526,108,165,72,30,35,38,63,40
454221,3333,13967,-1288,7783,4142,5534,-1045,663,25,-1526,108,165,72,30,35,38,63,40
455033,3333,13967,-1288,7783,4142,5534,-1045,663,25,-1526,108,165,72,30,35,38,63,40
460133,3333,13967,-1288,7783,4142,5534,-1045,663,25,-1526,108,165,72,30,35,38,63,40
461039,3292,14064,-437,7718,4178,5632,-993,1522,259,-2185,108,165,72,30,35,38,63,40
461848,3292,14064,-437,7718,4178,5632,-993,1522,259,-2185,88,154,62,30,40,40,63,39
462653,3292,14064,-437,7718,4178,5632,-993,1522,259,-2185,88,154,62,30,40,40,63,39
467687,3292,14064,-437,7718,4178,5632,-993,1522,259,-2185,88,154,62,30,40,40,63,39
468491,3292,14064,-437,7718,4178,5632,-993,1522,259,-2185,88,154,62,30,40,40,63,39
469318,3292,14064,-437,7718,4178,5632,-993,1522,259,-2185,88,154,62,30,40,40,63,39
470108,3292,14064,-437,7718,4178,5632,-993,1522,259,-2185,88,154,62,30,40,40,63,39
475139,3292,14064,-437,7718,4178,5632,-993,1522,259,-2185,88,154,62,30,40,40,63,39
475923,3292,14064,-437,7718,4178,5632,-993,1522,259,-2185,88,154,62,30,40,40,63,39
476748,3292,14064,-437,7718,4178,5632,-993,1522,259,-2185,88,154,62,30,40,40,63,39
477568,3292,14064,-437,7718,4178,5632,-993,1522,259,-2185,88,154,62,30,40,40,63,39
482646,3292,14064,-437,7718,4178,5632,-993,1522,259,-2185,88,154,62,30,40,40,63,39
483568,3189,14120,119,7672,3944,5734,-971,2008,274,-2457,88,154,62,30,40,40,63,39
484385,3189,14120,119,7672,3944,5734,-971,2008,274,-2457,85,142,75,52,65,44,61,36
485223,3189,14120,119,7672,3944,5734,-971,2008,274,-2457,85,142,75,52,65,44,61,36
490226,3189,14120,119,7672,3944,5734,-971,2008,274,-2457,85,142,75,52,65,44,61,36
491000,3189,14120,119,7672,3944,5734,-971,2008,274,-2457,85,142,75,52,65,44,61,36
491853,3189,14120,119,7672,3944,5734,-971,2008,274,-2457,85,142,75,52,65,44,61,36
492654,3189,14120,119,7672,3944,5734,-971,2008,274,-2457,85,142,75,52,65,44,61,36
497634,3189,14120,119,7672,3944,5734,-971,2008,274,-2457,85,142,75,52,65,44,61,36
498418,3189,14120,119,7672,3944,5734,-971,2008,274,-2457,85,142,75,52,65,44,61,36
499224,3189,14120,119,7672,3944,5734,-971,2008,274,-2457,85,142,75,52,65,44,61,36
500059,3189,14120,119,7672,3944,5734,-971,2008,274,-2457,85,142,75,52,65,44,61,36
505126,3189,14120,119,7672,3944,5734,-971,2008,274,-2457,85,142,75,52,65,44,61,36
506053,3079,14177,721,7578,3820,5972,-997,2177,85,-2694,85,142,75,52,65,44,61,36
506877,3079,14177,721,7578,3820,5972,-997,2177,85,-2694,71,149,112,105,83,47,61,36
507691,3079,14177,721,7578,3820,5972,-997,2177,85,-2694,71,149,112,105,83,47,61,36
512709,3079,14177,721,7578,3820,5972,-997,2177,85,-2694,71,149,112,105,83,47,61,36
513504,3079,14177,721,7578,3820,5972,-997,2177,85,-2694,71,149,112,105,83,47,61,36
514317,3079,14177,721,7578,3820,5972,-997,2177,85,-2694,71,149,112,105,83,47,61,36
515127,3079,14177,721,7578,3820,5972,-997,2177,85,-2694,71,149,112,105,83,47,61,36
520107,3079,14177,721,7578,3820,5972,-997,2177,85,-2694,71,149,112,105,83,47,61,36
520906,3079,14177,721,7578,3820,5972,-997,2177,85,-2694,71,149,112,105,83,47,61,36
521713,3079,14177,721,7578,3820,5972,-997,2177,85,-2694,71,149,112,105,83,47,61,36
522517,3079,14177,721,7578,3820,5972,-997,2177,85,-2694,71,149,112,105,83,47,61,36
527599,3079,14177,721,7578,3820,5972,-997,2177,85,-2694,71,149,112,105,83,47,61,36
528535,2973,14228,1340,7439,3656,6191,-1079,2215,-107,-2825,71,149,112,105,83,47,61,36
529347,2973,14228,1340,7439,3656,6191,-1079,2215,-107,-2825,63,154,122,169,121,52,61,38
530155,2973,14228,1340,7439,3656,6191,-1079,2215,-107,-2825,63,154,122,169,121,52,61,38
535185,2973,14228,1340,7439,3656,6191,-1079,2215,-107,-2825,63,154,122,169,121,52,61,38
535977,2973,14228,1340,7439,3656,6191,-1079,2215,-107,-2825,63,154,122,169,121,52,61,38
536799,2973,14228,1340,7439,3656,6191,-1079,2215,-107,-2825,63,154,122,169,121,52,61,38
537602,2973,14228,1340,7439,3656,6191,-1079,2215,-107,-2825,63,154,122,169,121,52,61,38
542642,2973,14228,1340,7439,3656,6191,-1079,2215,-107,-2825,63,154,122,169,121,52,61,38
543410,2973,14228,1340,7439,3656,6191,-1079,2215,-107,-2825,63,154,122,169,121,52,61,38
544228,2973,14228,1340,7439,3656,6191,-1079,2215,-107,-2825,63,154,122,169,121,52,61,38
545052,2973,14228,1340,7439,3656,6191,-1079,2215,-107,-2825,63,154,122,169,121,52,61,38
550159,2973,14228,1340,7439,3656,6191,-1079,2215,-107,-2825,63,154,122,169,121,52,61,38
551084,2916,14265,1938,7257,3598,6348,-1099,1918,-345,-2933,63,154,122,169,121,52,61,38
551865,2916,14265,1938,7257,3598,6348,-1099,1918,-345,-2933,65,158,125,172,120,49,66,41
552689,2916,14265,1938,7257,3598,6348,-1099,1918,-345,-2933,65,158,125,172,120,49,66,41
557709,2916,14265,1938,7257,3598,6348,-1099,1918,-345,-2933,65,158,125,172,120,49,66,41
558505,2916,14265,1938,7257,3598,6348,-1099,1918,-345,-2933,65,158,125,172,120,49,66,41
559321,2916,14265,1938,7257,3598,6348,-1099,1918,-345,-2933,65,158,125,172,120,49,66,41
560130,2916,14265,1938,7257,3598,6348,-1099,1918,-345,-2933,65,158,125,172,120,49,66,41
565108,2916,14265,1938,7257,3598,6348,-1099,1918,-345,-2933,65,158,125,172,120,49,66,41
565910,2916,14265,1938,7257,3598,6348,-1099,1918,-345,-2933,65,158,125,172,120,49,66,41
566731,2916,14265,1938,7257,3598,6348,-1099,1918,-345,-2933,65,158,125,172,120,49,66,41
567535,2916,14265,1938,7257,3598,6348,-1099,1918,-345,-2933,65,158,125,172,120,49,66,41
572636,2916,14265,1938,7257,3598,6348,-1099,1918,-345,-2933,65,158,125,172,120,49,66,41
573537,2895,14291,2535,7027,3511,6265,-1098,1766,-584,-3069,65,158,125,172,120,49,66,41
574356,2895,14291,2535,7027,3511,6265,-1098,1766,-584,-3069,58,148,132,195,131,66,76,46
575164,2895,14291,2535,7027,3511,6265,-1098,1766,-584,-3069,58,148,132,195,131,66,76,46
580198,2895,14291,2535,7027,3511,6265,-1098,1766,-584,-3069,58,148,132,195,131,66,76,46
580978,2895,14291,2535,7027,3511,6265,-1098,1766,-584,-3069,58,148,132,195,131,66,76,46
581792,2895,14291,2535,7027,3511,6265,-1098,1766,-584,-3069,58,148,132,195,131,66,76,46
582623,2895,14291,2535,7027,3511,6265,-1098,1766,-584,-3069,58,148,132,195,131,66,76,46
587575,2895,14291,2535,7027,3511,6265,-1098,1766,-584,-3069,58,148,132,195,131,66,76,46
588356,2895,14291,2535,7027,3511,6265,-1098,1766,-584,-3069,58,148,132,195,131,66,76,46
589153,2895,14291,2535,7027,3511,6265,-1098,1766,-584,-3069,58,148,132,195,131,66,76,46
589985,2895,14291,2535,7027,3511,6265,-1098,1766,-584,-3069,58,148,132,195,131,66,76,46
595151,2895,14291,2535,7027,3511,6265,-1098,1766,-584,-3069,58,148,132,195,131,66,76,46
596073,2912,14302,3137,6748,3282,6207,-963,1624,-840,-3264,58,148,132,195,131,66,76,46
596882,2912,14302,3137,6748,3282,6207,-963,1624,-840,-3264,46,144,125,196,124,67,81,46
597697,2912,14302,3137,6748,3282,6207,-963,1624,-840,-3264,46,144,125,196,124,67,81,46
602744,2912,14302,3137,6748,3282,6207,-963,1624,-840,-3264,46,144,125,196,124,67,81,46
603526,2912,14302,3137,6748,3282,6207,-963,1624,-840,-3264,46,144,125,196,124,67,81,46
604329,2912,14302,3137,6748,3282,6207,-963,1624,-840,-3264,46,144,125,196,124,67,81,46
605132,2912,14302,3137,6748,3282,6207,-963,1624,-840,-3264,46,144,125,196,124,67,81,46
610164,2912,14302,3137,6748,3282,6207,-963,1624,-840,-3264,46,144,125,196,124,67,81,46
610896,2912,14302,3137,6748,3282,6207,-963,1624,-840,-3264,46,144,125,196,124,67,81,46
611739,2912,14302,3137,6748,3282,6207,-963,1624,-840,-3264,46,144,125,196,124,67,81,46
612543,2912,14302,3137,6748,3282,6207,-963,1624,-840,-3264,46,144,125,196,124,67,81,46
617649,2912,14302,3137,6748,3282,6207,-963,1624,-840,-3264,46,144,125,196,124,67,81,46
618535,2943,14314,3736,6396,2955,6383,-882,1653,-1228,-3342,46,144,125,196,124,67,81,46
619358,2943,14314,3736,6396,2955,6383,-882,1653,-1228,-3342,47,123,90,175,114,69,86,53
620186,2943,14314,3736,6396,2955,6383,-882,1653,-1228,-3342,47,123,90,175,114,69,86,53
625188,2943,14314,3736,6396,2955,6383,-882,1653,-1228,-3342,47,123,90,175,114,69,86,53
625989,2943,14314,3736,6396,2955,6383,-882,1653,-1228,-3342,47,123,90,175,114,69,86,53
626807,2943,14314,3736,6396,2955,6383,-882,1653,-1228,-3342,47,123,90,175,114,69,86,53
627640,2943,14314,3736,6396,2955,6383,-882,1653,-1228,-3342,47,123,90,175,114,69,86,53
632588,2943,14314,3736,6396,2955,6383,-882,1653,-1228,-3342,47,123,90,175,114,69,86,53
633385,2943,14314,3736,6396,2955,6383,-882,1653,-1228,-3342,47,123,90,175,114,69,86,53
634187,2943,14314,3736,6396,2955,6383,-882,1653,-1228,-3342,47,123,90,175,114,69,86,53
635045,2943,14314,3736,6396,2955,6383,-882,1653,-1228,-3342,47,123,90,175,114,69,86,53
640079,2943,14314,3736,6396,2955,6383,-882,1653,-1228,-3342,47,123,90,175,114,69,86,53
641016,3029,14331,4303,5945,2595,6447,-808,1455,-1841,-3396,47,123,90,175,114,69,86,53
641845,3029,14331,4303,5945,2595,6447,-808,1455,-1841,-3396,41,82,72,116,73,70,99,51
642638,3029,14331,4303,5945,2595,6447,-808,1455,-1841,-3396,41,82,72,116,73,70,99,51
647658,3029,14331,4303,5945,2595,6447,-808,1455,-1841,-3396,41,82,72,116,73,70,99,51
648500,3029,14331,4303,5945,2595,6447,-808,1455,-1841,-3396,41,82,72,116,73,70,99,51
649302,3029,14331,4303,5945,2595,6447,-808,1455,-1841,-3396,41,82,72,116,73,70,99,51
650084,3029,14331,4303,5945,2595,6447,-808,1455,-1841,-3396,41,82,72,116,73,70,99,51
655068,3029,14331,4303,5945,2595,6447,-808,1455,-1841,-3396,41,82,72,116,73,70,99,51
655869,3029,14331,4303,5945,2595,6447,-808,1455,-1841,-3396,41,82,72,116,73,70,99,51
656681,3029,14331,4303,5945,2595,6447,-808,1455,-1841,-3396,41,82,72,116,73,70,99,51
657484,3029,14331,4303,5945,2595,6447,-808,1455,-1841,-3396,41,82,72,116,73,70,99,51
662610,3029,14331,4303,5945,2595,6447,-808,1455,-1841,-3396,41,82,72,116,73,70,99,51
663544,3269,14352,4778,5379,2160,6360,-585,702,-2744,-3383,41,82,72,116,73,70,99,51
664353,3269,14352,4778,5379,2160,6360,-585,702,-2744,-3383,42,72,70,112,73,77,105,56
665161,3269,14352,4778,5379,2160,6360,-585,702,-2744,-3383,42,72,70,112,73,77,105,56
670208,3269,14352,4778,5379,2160,6360,-585,702,-2744,-3383,42,72,70,112,73,77,105,56
670991,3269,14352,4778,5379,2160,6360,-585,702,-2744,-3383,42,72,70,112,73,77,105,56
671836,3269,14352,4778,5379,2160,6360,-585,702,-2744,-3383,42,72,70,112,73,77,105,56
672622,3269,14352,4778,5379,2160,6360,-585,702,-2744,-3383,42,72,70,112,73,77,105,56
677575,3269,14352,4778,5379,2160,6360,-585,702,-2744,-3383,42,72,70,112,73,77,105,56
678389,3269,14352,4778,5379,2160,6360,-585,702,-2744,-3383,42,72,70,112,73,77,105,56
679197,3269,14352,4778,5379,2160,6360,-585,702,-2744,-3383,42,72,70,112,73,77,105,56
680003,3269,14352,4778,5379,2160,6360,-585,702,-2744,-3383,42,72,70,112,73,77,105,56
685119,3269,14352,4778,5379,2160,6360,-585,702,-2744,-3383,42,72,70,112,73,77,105,56
686043,3859,14357,5121,4602,1501,6695,-76,-869,-4477,-3618,42,72,70,112,73,77,105,56
686830,3859,14357,5121,4602,1501,6695,-76,-869,-4477,-3618,198,81,61,69,50,75,119,151
687638,3859,14357,5121,4602,1501,6695,-76,-869,-4477,-3618,198,81,61,69,50,75,119,151
692679,3859,14357,5121,4602,1501,6695,-76,-869,-4477,-3618,198,81,61,69,50,75,119,151
693484,3859,14357,5121,4602,1501,6695,-76,-869,-4477,-3618,198,81,61,69,50,75,119,151
694294,3859,14357,5121,4602,1501,6695,-76,-869,-4477,-3618,198,81,61,69,50,75,119,151
695133,3859,14357,5121,4602,1501,6695,-76,-869,-4477,-3618,198,81,61,69,50,75,119,151
700086,3859,14357,5121,4602,1501,6695,-76,-869,-4477,-3618,198,81,61,69,50,75,119,151
700885,3859,14357,5121,4602,1501,6695,-76,-869,-4477,-3618,198,81,61,69,50,75,119,151
701666,3859,14357,5121,4602,1501,6695,-76,-869,-4477,-3618,198,81,61,69,50,75,119,151
702483,3859,14357,5121,4602,1501,6695,-76,-869,-4477,-3618,198,81,61,69,50,75,119,151
707582,3859,14357,5121,4602,1501,6695,-76,-869,-4477,-3618,198,81,61,69,50,75,119,151
708518,4825,14289,5265,3639,1108,7141,3,-2773,-6205,-3626,198,81,61,69,50,75,119,151
709325,4825,14289,5265,3639,1108,7141,3,-2773,-6205,-3626,329,125,73,53,61,86,148,419
710148,4825,14289,5265,3639,1108,7141,3,-2773,-6205,-3626,329,125,73,53,61,86,148,419
715162,4825,14289,5265,3639,1108,7141,3,-2773,-6205,-3626,329,125,73,53,61,86,148,419
715968,4825,14289,5265,3639,1108,7141,3,-2773,-6205,-3626,329,125,73,53,61,86,148,419
716790,4825,14289,5265,3639,1108,7141,3,-2773,-6205,-3626,329,125,73,53,61,86,148,419
717586,4825,14289,5265,3639,1108,7141,3,-2773,-6205,-3626,329,125,73,53,61,86,148,419
722584,4825,14289,5265,3639,1108,7141,3,-2773,-6205,-3626,329,125,73,53,61,86,148,419
723425,4825,14289,5265,3639,1108,7141,3,-2773,-6205,-3626,329,125,73,53,61,86,148,419
724230,4825,14289,5265,3639,1108,7141,3,-2773,-6205,-3626,329,125,73,53,61,86,148,419
725037,4825,14289,5265,3639,1108,7141,3,-2773,-6205,-3626,329,125,73,53,61,86,148,419
730122,4825,14289,5265,3639,1108,7141,3,-2773,-6205,-3626,329,125,73,53,61,86,148,419
731047,6017,14092,5175,2613,1938,7562,-108,-4270,-7270,-3254,329,125,73,53,61,86,148,419
731878,6017,14092,5175,2613,1938,7562,-108,-4270,-7270,-3254,487,152,88,53,82,115,162,643
732677,6017,14092,5175,2613,1938,7562,-108,-4270,-7270,-3254,487,152,88,53,82,115,162,643
737689,6017,14092,5175,2613,1938,7562,-108,-4270,-7270,-3254,487,152,88,53,82,115,162,643
738485,6017,14092,5175,2613,1938,7562,-108,-4270,-7270,-3254,487,152,88,53,82,115,162,643
739293,6017,14092,5175,2613,1938,7562,-108,-4270,-7270,-3254,487,152,88,53,82,115,162,643
740106,6017,14092,5175,2613,1938,7562,-108,-4270,-7270,-3254,487,152,88,53,82,115,162,643
745076,6017,14092,5175,2613,1938,7562,-108,-4270,-7270,-3254,487,152,88,53,82,115,162,643
745883,6017,14092,5175,2613,1938,7562,-108,-4270,-7270,-3254,487,152,88,53,82,115,162,643
746702,6017,14092,5175,2613,1938,7562,-108,-4270,-7270,-3254,487,152,88,53,82,115,162,643
747539,6017,14092,5175,2613,1938,7562,-108,-4270,-7270,-3254,487,152,88,53,82,115,162,643
752608,6017,14092,5175,2613,1938,7562,-108,-4270,-7270,-3254,487,152,88,53,82,115,162,643
753520,7253,13728,4993,1553,3299,7193,-163,-5012,-7373,-3067,487,152,88,53,82,115,162,643
754343,7253,13728,4993,1553,3299,7193,-163,-5012,-7373,-3067,508,183,97,52,84,115,210,773
755146,7253,13728,4993,1553,3299,7193,-163,-5012,-7373,-3067,508,183,97,52,84,115,210,773
760178,7253,13728,4993,1553,3299,7193,-163,-5012,-7373,-3067,508,183,97,52,84,115,210,773
760959,7253,13728,4993,1553,3299,7193,-163,-5012,-7373,-3067,508,183,97,52,84,115,210,773
761775,7253,13728,4993,1553,3299,7193,-163,-5012,-7373,-3067,508,183,97,52,84,115,210,773
762598,7253,13728,4993,1553,3299,7193,-163,-5012,-7373,-3067,508,183,97,52,84,115,210,773
767555,7253,13728,4993,1553,3299,7193,-163,-5012,-7373,-3067,508,183,97,52,84,115,210,773
768354,7253,13728,4993,1553,3299,7193,-163,-5012,-7373,-3067,508,183,97,52,84,115,210,773
769158,7253,13728,4993,1553,3299,7193,-163,-5012,-7373,-3067,508,183,97,52,84,115,210,773
769976,7253,13728,4993,1553,3299,7193,-163,-5012,-7373,-3067,508,183,97,52,84,115,210,773
774230,7253,13728,4993,1553,3299,7193,-163,-5012,-7373,-3067,508,183,97,52,84,115,210,773
775156,8436,13133,4918,751,3834,7173,-1810,-5722,-5675,-3296,508,183,97,52,84,115,210,773
776008,8436,13133,4918,751,3834,7173,-1810,-5722,-5675,-3296,516,194,108,53,89,112,210,786
782695,8436,13133,4918,751,3834,7173,-1810,-5722,-5675,-3296,516,194,108,53,89,112,210,786
783514,8436,13133,4918,751,3834,7173,-1810,-5722,-5675,-3296,516,194,108,53,89,112,210,786
784325,8436,13133,4918,751,3834,7173,-1810,-5722,-5675,-3296,516,194,108,53,89,112,210,786
785164,8436,13133,4918,751,3834,7173,-1810,-5722,-5675,-3296,516,194,108,53,89,112,210,786
790100,8436,13133,4918,751,3834,7173,-1810,-5722,-5675,-3296,516,194,108,53,89,112,210,786
790891,8436,13133,4918,751,3834,7173,-1810,-5722,-5675,-3296,516,194,108,53,89,112,210,786
791693,8436,13133,4918,751,3834,7173,-1810,-5722,-5675,-3296,516,194,108,53,89,112,210,786
792536,8436,13133,4918,751,3834,7173,-1810,-5722,-5675,-3296,516,194,108,53,89,112,210,786
797611,8436,13133,4918,751,3834,7173,-1810,-5722,-5675,-3296,516,194,108,53,89,112,210,786
798534,8896,12720,5219,488,4717,5658,-2110,-2737,-982,-2919,516,194,108,53,89,112,210,786
799325,8896,12720,5219,488,4717,5658,-2110,-2737,-982,-2919,481,226,126,58,96,108,258,785
800162,8896,12720,5219,488,4717,5658,-2110,-2737,-982,-2919,481,226,126,58,96,108,258,785
805343,8896,12720,5219,488,4717,5658,-2110,-2737,-982,-2919,481,226,126,58,96,108,258,785
805991,8896,12720,5219,488,4717,5658,-2110,-2737,-982,-2919,481,226,126,58,96,108,258,785
806788,8896,12720,5219,488,4717,5658,-2110,-2737,-982,-2919,481,226,126,58,96,108,258,785
807618,8896,12720,5219,488,4717,5658,-2110,-2737,-982,-2919,481,226,126,58,96,108,258,785
812580,8896,12720,5219,488,4717,5658,-2110,-2737,-982,-2919,481,226,126,58,96,108,258,785
813386,8896,12720,5219,488,4717,5658,-2110,-2737,-982,-2919,481,226,126,58,96,108,258,785
814190,8896,12720,5219,488,4717,5658,-2110,-2737,-982,-2919,481,226,126,58,96,108,258,785
815017,8896,12720,5219,488,4717,5658,-2110,-2737,-982,-2919,481,226,126,58,96,108,258,785
820101,8896,12720,5219,488,4717,5658,-2110,-2737,-982,-2919,481,226,126,58,96,108,258,785
821016,9004,12370,5719,1266,3337,4687,-1946,-2842,4773,-454,481,226,126,58,96,108,258,785
821852,9004,12370,5719,1266,3337,4687,-1946,-2842,4773,-454,404,235,135,100,109,115,454,683
822635,9004,12370,5719,1266,3337,4687,-1946,-2842,4773,-454,404,235,135,100,109,115,454,683
827650,9004,12370,5719,1266,3337,4687,-1946,-2842,4773,-454,404,235,135,100,109,115,454,683
828465,9004,12370,5719,1266,3337,4687,-1946,-2842,4773,-454,404,235,135,100,109,115,454,683
829325,9004,12370,5719,1266,3337,4687,-1946,-2842,4773,-454,404,235,135,100,109,115,454,683
830093,9004,12370,5719,1266,3337,4687,-1946,-2842,4773,-454,404,235,135,100,109,115,454,683
835053,9004,12370,5719,1266,3337,4687,-1946,-2842,4773,-454,404,235,135,100,109,115,454,683
835855,9004,12370,5719,1266,3337,4687,-1946,-2842,4773,-454,404,235,135,100,109,115,454,683
836668,9004,12370,5719,1266,3337,4687,-1946,-2842,4773,-454,404,235,135,100,109,115,454,683
837512,9004,12370,5719,1266,3337,4687,-1946,-2842,4773,-454,404,235,135,100,109,115,454,683
842624,9004,12370,5719,1266,3337,4687,-1946,-2842,4773,-454,404,235,135,100,109,115,454,683
843544,8734,12135,6180,2582,-254,6302,-3144,-1960,7636,1762,404,235,135,100,109,115,454,683
844380,8734,12135,6180,2582,-254,6302,-3144,-1960,7636,1762,191,228,181,178,284,340,547,484
845170,8734,12135,6180,2582,-254,6302,-3144,-1960,7636,1762,191,228,181,178,284,340,547,484
850222,8734,12135,6180,2582,-254,6302,-3144,-1960,7636,1762,191,228,181,178,284,340,547,484
850992,8734,12135,6180,2582,-254,6302,-3144,-1960,7636,1762,191,228,181,178,284,340,547,484
851787,8734,12135,6180,2582,-254,6302,-3144,-1960,7636,1762,191,228,181,178,284,340,547,484
852600,8734,12135,6180,2582,-254,6302,-3144,-1960,7636,1762,191,228,181,178,284,340,547,484
857576,8734,12135,6180,2582,-254,6302,-3144,-1960,7636,1762,191,228,181,178,284,340,547,484
858406,8734,12135,6180,2582,-254,6302,-3144,-1960,7636,1762,191,228,181,178,284,340,547,484
859236,8734,12135,6180,2582,-254,6302,-3144,-1960,7636,1762,191,228,181,178,284,340,547,484
859999,8734,12135,6180,2582,-254,6302,-3144,-1960,7636,1762,191,228,181,178,284,340,547,484
865089,8734,12135,6180,2582,-254,6302,-3144,-1960,7636,1762,191,228,181,178,284,340,547,484
866004,7735,12779,6234,2530,2312,2549,-2668,6234,1488,1866,191,228,181,178,284,340,547,484
866815,7735,12779,6234,2530,2312,2549,-2668,6234,1488,1866,130,222,216,209,372,557,544,244
867660,7735,12779,6234,2530,2312,2549,-2668,6234,1488,1866,130,222,216,209,372,557,544,244
872665,7735,12779,6234,2530,2312,2549,-2668,6234,1488,1866,130,222,216,209,372,557,544,244
873451,7735,12779,6234,2530,2312,2549,-2668,6234,1488,1866,130,222,216,209,372,557,544,244
874286,7735,12779,6234,2530,2312,2549,-2668,6234,1488,1866,130,222,216,209,372,557,544,244
875103,7735,12779,6234,2530,2312,2549,-2668,6234,1488,1866,130,222,216,209,372,557,544,244
880063,7735,12779,6234,2530,2312,2549,-2668,6234,1488,1866,130,222,216,209,372,557,544,244
880848,7735,12779,6234,2530,2312,2549,-2668,6234,1488,1866,130,222,216,209,372,557,544,244
881659,7735,12779,6234,2530,2312,2549,-2668,6234,1488,1866,130,222,216,209,372,557,544,244
882487,7735,12779,6234,2530,2312,2549,-2668,6234,1488,1866,130,222,216,209,372,557,544,244
887579,7735,12779,6234,2530,2312,2549,-2668,6234,1488,1866,130,222,216,209,372,557,544,244
888485,6291,13668,6072,2274,8261,5588,-1797,9106,768,3192,130,222,216,209,372,557,544,244
889295,6291,13668,6072,2274,8261,5588,-1797,9106,768,3192,103,221,230,217,384,666,593,210
890130,6291,13668,6072,2274,8261,5588,-1797,9106,768,3192,103,221,230,217,384,666,593,210
895115,6291,13668,6072,2274,8261,5588,-1797,9106,768,3192,103,221,230,217,384,666,593,210
895949,6291,13668,6072,2274,8261,5588,-1797,9106,768,3192,103,221,230,217,384,666,593,210
896764,6291,13668,6072,2274,8261,5588,-1797,9106,768,3192,103,221,230,217,384,666,593,210
897619,6291,13668,6072,2274,8261,5588,-1797,9106,768,3192,103,221,230,217,384,666,593,210
902578,6291,13668,6072,2274,8261,5588,-1797,9106,768,3192,103,221,230,217,384,666,593,210
903399,6291,13668,6072,2274,8261,5588,-1797,9106,768,3192,103,221,230,217,384,666,593,210
904212,6291,13668,6072,2274,8261,5588,-1797,9106,768,3192,103,221,230,217,384,666,593,210
905022,6291,13668,6072,2274,8261,5588,-1797,9106,768,3192,103,221,230,217,384,666,593,210
910084,6291,13668,6072,2274,8261,5588,-1797,9106,768,3192,103,221,230,217,384,666,593,210
911039,5099,13894,6681,2171,791,6889,-1983,6738,3039,-1764,103,221,230,217,384,666,593,210
911839,5099,13894,6681,2171,791,6889,-1983,6738,3039,-1764,101,199,231,230,409,691,667,168
912658,5099,13894,6681,2171,791,6889,-1983,6738,3039,-1764,101,199,231,230,409,691,667,168
917675,5099,13894,6681,2171,791,6889,-1983,6738,3039,-1764,101,199,231,230,409,691,667,168
918488,5099,13894,6681,2171,791,6889,-1983,6738,3039,-1764,101,199,231,230,409,691,667,168
919296,5099,13894,6681,2171,791,6889,-1983,6738,3039,-1764,101,199,231,230,409,691,667,168
920101,5099,13894,6681,2171,791,6889,-1983,6738,3039,-1764,101,199,231,230,409,691,667,168
925053,5099,13894,6681,2171,791,6889,-1983,6738,3039,-1764,101,199,231,230,409,691,667,168
925870,5099,13894,6681,2171,791,6889,-1983,6738,3039,-1764,101,199,231,230,409,691,667,168
926669,5099,13894,6681,2171,791,6889,-1983,6738,3039,-1764,101,199,231,230,409,691,667,168
927500,5099,13894,6681,2171,791,6889,-1983,6738,3039,-1764,101,199,231,230,409,691,667,168
932568,5099,13894,6681,2171,791,6889,-1983,6738,3039,-1764,101,199,231,230,409,691,667,168
933509,4769,14080,6642,1822,-3956,9975,-85,2658,-1108,247,101,199,231,230,409,691,667,168
934330,4769,14080,6642,1822,-3956,9975,-85,2658,-1108,247,211,211,240,219,414,718,869,358
935141,4769,14080,6642,1822,-3956,9975,-85,2658,-1108,247,211,211,240,219,414,718,869,358
940129,4769,14080,6642,1822,-3956,9975,-85,2658,-1108,247,211,211,240,219,414,718,869,358
940948,4769,14080,6642,1822,-3956,9975,-85,2658,-1108,247,211,211,240,219,414,718,869,358
941761,4769,14080,6642,1822,-3956,9975,-85,2658,-1108,247,211,211,240,219,414,718,869,358
942597,4769,14080,6642,1822,-3956,9975,-85,2658,-1108,247,211,211,240,219,414,718,869,358
947536,4769,14080,6642,1822,-3956,9975,-85,2658,-1108,247,211,211,240,219,414,718,869,358
948350,4769,14080,6642,1822,-3956,9975,-85,2658,-1108,247,211,211,240,219,414,718,869,358
949154,4769,14080,6642,1822,-3956,9975,-85,2658,-1108,247,211,211,240,219,414,718,869,358
949971,4769,14080,6642,1822,-3956,9975,-85,2658,-1108,247,211,211,240,219,414,718,869,358
955090,4769,14080,6642,1822,-3956,9975,-85,2658,-1108,247,211,211,240,219,414,718,869,358
956034,5126,14222,6202,1181,-2793,9745,443,-305,-4702,1172,211,211,240,219,414,718,869,358
956847,5126,14222,6202,1181,-2793,9745,443,-305,-4702,1172,246,256,394,172,321,738,1156,566
957666,5126,14222,6202,1181,-2793,9745,443,-305,-4702,1172,246,256,394,172,321,738,1156,566
962681,5126,14222,6202,1181,-2793,9745,443,-305,-4702,1172,246,256,394,172,321,738,1156,566
963481,5126,14222,6202,1181,-2793,9745,443,-305,-4702,1172,246,256,394,172,321,738,1156,566
964318,5126,14222,6202,1181,-2793,9745,443,-305,-4702,1172,246,256,394,172,321,738,1156,566
965125,5126,14222,6202,1181,-2793,9745,443,-305,-4702,1172,246,256,394,172,321,738,1156,566
970096,5126,14222,6202,1181,-2793,9745,443,-305,-4702,1172,246,256,394,172,321,738,1156,566
970925,5126,14222,6202,1181,-2793,9745,443,-305,-4702,1172,246,256,394,172,321,738,1156,566
971732,5126,14222,6202,1181,-2793,9745,443,-305,-4702,1172,246,256,394,172,321,738,1156,566
973333,5126,14222,6202,1181,-2793,9745,443,-305,-4702,1172,246,256,394,172,321,738,1156,566
975344,5126,14222,6202,1181,-2793,9745,443,-305,-4702,1172,246,256,394,172,321,738,1156,566
985251,5780,13928,6267,1317,4865,4756,2035,-3961,-495,-965,246,256,394,172,321,738,1156,566
986023,5780,13928,6267,1317,4865,4756,2035,-3961,-495,-965,344,309,431,139,223,655,1213,731
986828,5780,13928,6267,1317,4865,4756,2035,-3961,-495,-965,344,309,431,139,223,655,1213,731
987695,5780,13928,6267,1317,4865,4756,2035,-3961,-495,-965,344,309,431,139,223,655,1213,731
992554,5780,13928,6267,1317,4865,4756,2035,-3961,-495,-965,344,309,431,139,223,655,1213,731
993348,5780,13928,6267,1317,4865,4756,2035,-3961,-495,-965,344,309,431,139,223,655,1213,731
994151,5780,13928,6267,1317,4865,4756,2035,-3961,-495,-965,344,309,431,139,223,655,1213,731
994978,5780,13928,6267,1317,4865,4756,2035,-3961,-495,-965,344,309,431,139,223,655,1213,731
1000065,5780,13928,6267,1317,4865,4756,2035,-3961,-495,-965,344,309,431,139,223,655,1213,731
1000979,6564,13655,6068,1428,8364,5768,-1086,-4598,-1425,229,344,309,431,139,223,655,1213,731
1001788,6564,13655,6068,1428,8364,5768,-1086,-4598,-1425,229,399,322,437,134,202,558,1274,867
1002621,6564,13655,6068,1428,8364,5768,-1086,-4598,-1425,229,399,322,437,134,202,558,1274,867
1007644,6564,13655,6068,1428,8364,5768,-1086,-4598,-1425,229,399,322,437,134,202,558,1274,867
1008425,6564,13655,6068,1428,8364,5768,-1086,-4598,-1425,229,399,322,437,134,202,558,1274,867
1009291,6564,13655,6068,1428,8364,5768,-1086,-4598,-1425,229,399,322,437,134,202,558,1274,867
1010218,6564,13655,6068,1428,8364,5768,-1086,-4598,-1425,229,399,322,437,134,202,558,1274,867
1015081,6564,13655,6068,1428,8364,5768,-1086,-4598,-1425,229,399,322,437,134,202,558,1274,867
1015911,6564,13655,6068,1428,8364,5768,-1086,-4598,-1425,229,399,322,437,134,202,558,1274,867
1016730,6564,13655,6068,1428,8364,5768,-1086,-4598,-1425,229,399,322,437,134,202,558,1274,867
1017534,6564,13655,6068,1428,8364,5768,-1086,-4598,-1425,229,399,322,437,134,202,558,1274,867
1022614,6564,13655,6068,1428,8364,5768,-1086,-4598,-1425,229,399,322,437,134,202,558,1274,867
1023531,7368,13198,6243,975,1428,4452,1547,-3738,-3297,-3335,399,322,437,134,202,558,1274,867
1024343,7368,13198,6243,975,1428,4452,1547,-3738,-3297,-3335,431,323,436,110,145,534,1328,926
1025153,7368,13198,6243,975,1428,4452,1547,-3738,-3297,-3335,431,323,436,110,145,534,1328,926
1030181,7368,13198,6243,975,1428,4452,1547,-3738,-3297,-3335,431,323,436,110,145,534,1328,926
1030991,7368,13198,6243,975,1428,4452,1547,-3738,-3297,-3335,431,323,436,110,145,534,1328,926
1031792,7368,13198,6243,975,1428,4452,1547,-3738,-3297,-3335,431,323,436,110,145,534,1328,926
1032606,7368,13198,6243,975,1428,4452,1547,-3738,-3297,-3335,431,323,436,110,145,534,1328,926
1037577,7368,13198,6243,975,1428,4452,1547,-3738,-3297,-3335,431,323,436,110,145,534,1328,926
1038404,7368,13198,6243,975,1428,4452,1547,-3738,-3297,-3335,431,323,436,110,145,534,1328,926
1039230,7368,13198,6243,975,1428,4452,1547,-3738,-3297,-3335,431,323,436,110,145,534,1328,926
1040035,7368,13198,6243,975,1428,4452,1547,-3738,-3297,-3335,431,323,436,110,145,534,1328,926
1045068,7368,13198,6243,975,1428,4452,1547,-3738,-3297,-3335,431,323,436,110,145,534,1328,926
1046015,8151,12556,6612,767,961,6380,-89,-4625,-1618,-4031,431,323,436,110,145,534,1328,926
1046821,8151,12556,6612,767,961,6380,-89,-4625,-1618,-4031,398,303,430,103,118,495,1210,970
1047632,8151,12556,6612,767,961,6380,-89,-4625,-1618,-4031,398,303,430,103,118,495,1210,970
1050443,8151,12556,6612,767,961,6380,-89,-4625,-1618,-4031,398,303,430,103,118,495,1210,970
1060059,8151,12556,6612,767,961,6380,-89,-4625,-1618,-4031,398,303,430,103,118,495,1210,970
1060854,8151,12556,6612,767,961,6380,-89,-4625,-1618,-4031,398,303,430,103,118,495,1210,970
1061666,8151,12556,6612,767,961,6380,-89,-4625,-1618,-4031,398,303,430,103,118,495,1210,970
1062479,8151,12556,6612,767,961,6380,-89,-4625,-1618,-4031,398,303,430,103,118,495,1210,970
1067559,8151,12556,6612,767,961,6380,-89,-4625,-1618,-4031,398,303,430,103,118,495,1210,970
1068356,8151,12556,6612,767,961,6380,-89,-4625,-1618,-4031,398,303,430,103,118,495,1210,970
1069154,8151,12556,6612,767,961,6380,-89,-4625,-1618,-4031,398,303,430,103,118,495,1210,970
1069993,8151,12556,6612,767,961,6380,-89,-4625,-1618,-4031,398,303,430,103,118,495,1210,970
1075182,8151,12556,6612,767,961,6380,-89,-4625,-1618,-4031,387,270,284,146,133,335,889,1096
1075988,8151,12556,6612,767,961,6380,-89,-4625,-1618,-4031,387,270,284,146,133,335,889,1096
1076795,8151,12556,6612,767,961,6380,-89,-4625,-1618,-4031,387,270,284,146,133,335,889,1096
1077607,8151,12556,6612,767,961,6380,-89,-4625,-1618,-4031,387,270,284,146,133,335,889,1096
1082557,8151,12556,6612,767,961,6380,-89,-4625,-1618,-4031,387,270,284,146,133,335,889,1096
1083352,8151,12556,6612,767,961,6380,-89,-4625,-1618,-4031,387,270,284,146,133,335,889,1096
1084183,8151,12556,6612,767,961,6380,-89,-4625,-1618,-4031,387,270,284,146,133,335,889,1096
1085000,8151,12556,6612,767,961,6380,-89,-4625,-1618,-4031,387,270,284,146,133,335,889,1096
1090069,8151,12556,6612,767,961,6380,-89,-4625,-1618,-4031,387,270,284,146,133,335,889,1096
1091001,8082,12376,6666,2341,-1432,3997,-2067,-3002,4935,3211,387,270,284,146,133,335,889,1096
1091831,8082,12376,6666,2341,-1432,3997,-2067,-3002,4935,3211,308,196,249,311,275,240,917,1008
1092638,8082,12376,6666,2341,-1432,3997,-2067,-3002,4935,3211,308,196,249,311,275,240,917,1008
1097646,8082,12376,6666,2341,-1432,3997,-2067,-3002,4935,3211,308,196,249,311,275,240,917,1008
1098447,8082,12376,6666,2341,-1432,3997,-2067,-3002,4935,3211,308,196,249,311,275,240,917,1008
1099291,8082,12376,6666,2341,-1432,3997,-2067,-3002,4935,3211,308,196,249,311,275,240,917,1008
1100111,8082,12376,6666,2341,-1432,3997,-2067,-3002,4935,3211,308,196,249,311,275,240,917,1008
1103481,8082,12376,6666,2341,-1432,3997,-2067,-3002,4935,3211,308,196,249,311,275,240,917,1008
1104300,8082,12376,6666,2341,-1432,3997,-2067,-3002,4935,3211,308,196,249,311,275,240,917,1008
1112602,8082,12376,6666,2341,-1432,3997,-2067,-3002,4935,3211,308,196,249,311,275,240,917,1008
1113403,8082,12376,6666,2341,-1432,3997,-2067,-3002,4935,3211,308,196,249,311,275,240,917,1008
1114205,8082,12376,6666,2341,-1432,3997,-2067,-3002,4935,3211,308,196,249,311,275,240,917,1008
1115144,7363,12767,6676,2577,1316,5422,-3243,3594,2354,2074,308,196,249,311,275,240,917,1008
1120218,7363,12767,6676,2577,1316,5422,-3243,3594,2354,2074,237,198,345,387,341,340,894,1012
1120986,7363,12767,6676,2577,1316,5422,-3243,3594,2354,2074,237,198,345,387,341,340,894,1012
1121795,7363,12767,6676,2577,1316,5422,-3243,3594,2354,2074,237,198,345,387,341,340,894,1012
1122629,7363,12767,6676,2577,1316,5422,-3243,3594,2354,2074,237,198,345,387,341,340,894,1012
1127584,7363,12767,6676,2577,1316,5422,-3243,3594,2354,2074,237,198,345,387,341,340,894,1012
1128380,7363,12767,6676,2577,1316,5422,-3243,3594,2354,2074,237,198,345,387,341,340,894,1012
1129186,7363,12767,6676,2577,1316,5422,-3243,3594,2354,2074,237,198,345,387,341,340,894,1012
1130031,7363,12767,6676,2577,1316,5422,-3243,3594,2354,2074,237,198,345,387,341,340,894,1012
1135092,7363,12767,6676,2577,1316,5422,-3243,3594,2354,2074,237,198,345,387,341,340,894,1012
1136018,6400,13352,6713,2026,7614,3881,-3381,6980,-630,639,237,198,345,387,341,340,894,1012
1136828,6400,13352,6713,2026,7614,3881,-3381,6980,-630,639,176,188,355,438,632,574,900,964
1137642,6400,13352,6713,2026,7614,3881,-3381,6980,-630,639,176,188,355,438,632,574,900,964
1142666,6400,13352,6713,2026,7614,3881,-3381,6980,-630,639,176,188,355,438,632,574,900,964
1143456,6400,13352,6713,2026,7614,3881,-3381,6980,-630,639,176,188,355,438,632,574,900,964
1144293,6400,13352,6713,2026,7614,3881,-3381,6980,-630,639,176,188,355,438,632,574,900,964
1145079,6400,13352,6713,2026,7614,3881,-3381,6980,-630,639,176,188,355,438,632,574,900,964
1150040,6400,13352,6713,2026,7614,3881,-3381,6980,-630,639,176,188,355,438,632,574,900,964
1150868,6400,13352,6713,2026,7614,3881,-3381,6980,-630,639,176,188,355,438,632,574,900,964
1151665,6400,13352,6713,2026,7614,3881,-3381,6980,-630,639,176,188,355,438,632,574,900,964
1152479,6400,13352,6713,2026,7614,3881,-3381,6980,-630,639,176,188,355,438,632,574,900,964
1157553,6400,13352,6713,2026,7614,3881,-3381,6980,-630,639,176,188,355,438,632,574,900,964
1158481,5271,13716,6855,2343,5616,6878,-2647,5327,4104,1664,176,188,355,438,632,574,900,964
1159292,5271,13716,6855,2343,5616,6878,-2647,5327,4104,1664,154,178,356,446,848,717,862,869
1160104,5271,13716,6855,2343,5616,6878,-2647,5327,4104,1664,154,178,356,446,848,717,862,869
1165122,5271,13716,6855,2343,5616,6878,-2647,5327,4104,1664,154,178,356,446,848,717,862,869
1165933,5271,13716,6855,2343,5616,6878,-2647,5327,4104,1664,154,178,356,446,848,717,862,869
1166783,5271,13716,6855,2343,5616,6878,-2647,5327,4104,1664,154,178,356,446,848,717,862,869
1167571,5271,13716,6855,2343,5616,6878,-2647,5327,4104,1664,154,178,356,446,848,717,862,869
1172595,5271,13716,6855,2343,5616,6878,-2647,5327,4104,1664,154,178,356,446,848,717,862,869
1173384,5271,13716,6855,2343,5616,6878,-2647,5327,4104,1664,154,178,356,446,848,717,862,869
1174197,5271,13716,6855,2343,5616,6878,-2647,5327,4104,1664,154,178,356,446,848,717,862,869
1175010,5271,13716,6855,2343,5616,6878,-2647,5327,4104,1664,154,178,356,446,848,717,862,869
1180090,5271,13716,6855,2343,5616,6878,-2647,5327,4104,1664,154,178,356,446,848,717,862,869
1181014,4574,13742,7179,2664,-1452,7821,-1873,2827,3703,-324,154,178,356,446,848,717,862,869
1181823,4574,13742,7179,2664,-1452,7821,-1873,2827,3703,-324,136,168,351,436,893,743,981,546
1182648,4574,13742,7179,2664,-1452,7821,-1873,2827,3703,-324,136,168,351,436,893,743,981,546
1187678,4574,13742,7179,2664,-1452,7821,-1873,2827,3703,-324,136,168,351,436,893,743,981,546
1188453,4574,13742,7179,2664,-1452,7821,-1873,2827,3703,-324,136,168,351,436,893,743,981,546
1189290,4574,13742,7179,2664,-1452,7821,-1873,2827,3703,-324,136,168,351,436,893,743,981,546
1190106,4574,13742,7179,2664,-1452,7821,-1873,2827,3703,-324,136,168,351,436,893,743,981,546
1195060,4574,13742,7179,2664,-1452,7821,-1873,2827,3703,-324,136,168,351,436,893,743,981,546
1195856,4574,13742,7179,2664,-1452,7821,-1873,2827,3703,-324,136,168,351,436,893,743,981,546
1196706,4574,13742,7179,2664,-1452,7821,-1873,2827,3703,-324,136,168,351,436,893,743,981,546
1197515,4574,13742,7179,2664,-1452,7821,-1873,2827,3703,-324,136,168,351,436,893,743,981,546
1202577,4574,13742,7179,2664,-1452,7821,-1873,2827,3703,-324,136,168,351,436,893,743,981,546
1203491,4489,13923,7007,2303,-4538,8711,-641,1407,-1921,764,136,168,351,436,893,743,981,546
1204329,4489,13923,7007,2303,-4538,8711,-641,1407,-1921,764,187,198,327,344,866,777,1067,571
1205280,4489,13923,7007,2303,-4538,8711,-641,1407,-1921,764,187,198,327,344,866,777,1067,571
1210176,4489,13923,7007,2303,-4538,8711,-641,1407,-1921,764,187,198,327,344,866,777,1067,571
1210947,4489,13923,7007,2303,-4538,8711,-641,1407,-1921,764,187,198,327,344,866,777,1067,571
1211769,4489,13923,7007,2303,-4538,8711,-641,1407,-1921,764,187,198,327,344,866,777,1067,571
1212583,4489,13923,7007,2303,-4538,8711,-641,1407,-1921,764,187,198,327,344,866,777,1067,571
1217566,4489,13923,7007,2303,-4538,8711,-641,1407,-1921,764,187,198,327,344,866,777,1067,571
1218354,4489,13923,7007,2303,-4538,8711,-641,1407,-1921,764,187,198,327,344,866,777,1067,571
1219152,4489,13923,7007,2303,-4538,8711,-641,1407,-1921,764,187,198,327,344,866,777,1067,571
1219974,4489,13923,7007,2303,-4538,8711,-641,1407,-1921,764,187,198,327,344,866,777,1067,571
1225109,4489,13923,7007,2303,-4538,8711,-641,1407,-1921,764,187,198,327,344,866,777,1067,571
1226039,4893,14049,6659,1656,-1256,8199,-137,-454,-4680,649,187,198,327,344,866,777,1067,571
1226879,4893,14049,6659,1656,-1256,8199,-137,-454,-4680,649,250,228,221,259,857,795,1262,547
1227674,4893,14049,6659,1656,-1256,8199,-137,-454,-4680,649,250,228,221,259,857,795,1262,547
1232683,4893,14049,6659,1656,-1256,8199,-137,-454,-4680,649,250,228,221,259,857,795,1262,547
1233481,4893,14049,6659,1656,-1256,8199,-137,-454,-4680,649,250,228,221,259,857,795,1262,547
1234301,4893,14049,6659,1656,-1256,8199,-137,-454,-4680,649,250,228,221,259,857,795,1262,547
1235100,4893,14049,6659,1656,-1256,8199,-137,-454,-4680,649,250,228,221,259,857,795,1262,547
1240091,4893,14049,6659,1656,-1256,8199,-137,-454,-4680,649,250,228,221,259,857,795,1262,547
1240881,4893,14049,6659,1656,-1256,8199,-137,-454,-4680,649,250,228,221,259,857,795,1262,547
1241692,4893,14049,6659,1656,-1256,8199,-137,-454,-4680,649,250,228,221,259,857,795,1262,547
1242492,4893,14049,6659,1656,-1256,8199,-137,-454,-4680,649,250,228,221,259,857,795,1262,547
1247571,4893,14049,6659,1656,-1256,8199,-137,-454,-4680,649,250,228,221,259,857,795,1262,547
1248509,5386,13897,6545,1852,4460,4914,1583,-3134,-288,247,250,228,221,259,857,795,1262,547
1249356,5386,13897,6545,1852,4460,4914,1583,-3134,-288,247,377,254,203,169,677,670,1232,695
1250142,5386,13897,6545,1852,4460,4914,1583,-3134,-288,247,377,254,203,169,677,670,1232,695
1253618,5386,13897,6545,1852,4460,4914,1583,-3134,-288,247,377,254,203,169,677,670,1232,695
1254434,5386,13897,6545,1852,4460,4914,1583,-3134,-288,247,377,254,203,169,677,670,1232,695
