Timestamp, Orientation x, Orientation y, Orientation z, Orientation w, Acceleration x, Acceleration y, Acceleration z, Rotation x, Rotation y, Rotation z, EMG 0, EMG 1, EMG 2, EMG 3, EMG 4, EMG 5, EMG 6, EMG 7
0,-962,-15154,-5080,-3476,1209,4423,-2041,-123,537,-193,0,0,0,0,0,0,0,0
7442,-916,-15136,-5106,-3529,1243,4412,-2039,-118,520,-175,0,0,0,0,0,0,0,0
14973,-865,-15119,-5129,-3579,1277,4409,-2054,-94,509,-155,0,0,0,0,0,0,0,0
37455,-806,-15105,-5151,-3623,1308,4411,-2091,-30,499,-134,0,0,0,0,0,0,0,0
59979,-735,-15090,-5173,-3668,1343,4409,-2100,36,525,-116,0,0,0,0,0,0,0,0
68064,-735,-15090,-5173,-3668,1343,4409,-2100,36,525,-116,34,24,46,36,51,32,88,48
68895,-735,-15090,-5173,-3668,1343,4409,-2100,36,525,-116,34,24,46,36,51,32,88,48
75017,-625,-15074,-5194,-3722,1353,4303,-2089,187,654,-82,34,24,46,36,51,32,88,48
90556,-625,-15074,-5194,-3722,1353,4303,-2089,187,654,-82,46,37,54,71,58,44,129,75
91351,-625,-15074,-5194,-3722,1353,4303,-2089,187,654,-82,46,37,54,71,58,44,129,75
97507,-425,-15057,-5217,-3789,1376,4011,-2245,505,944,-23,46,37,54,71,58,44,129,75
113142,-425,-15057,-5217,-3789,1376,4011,-2245,505,944,-23,51,53,64,141,72,52,126,82
113874,-425,-15057,-5217,-3789,1376,4011,-2245,505,944,-23,51,53,64,141,72,52,126,82
120056,-115,-15020,-5243,-3917,1494,3848,-2552,917,1558,52,51,53,64,141,72,52,126,82
128069,-115,-15020,-5243,-3917,1494,3848,-2552,917,1558,52,103,112,80,166,98,57,127,100
128854,-115,-15020,-5243,-3917,1494,3848,-2552,917,1558,52,103,112,80,166,98,57,127,100
135010,296,-14932,-5290,-4175,1570,3932,-2751,1620,2281,133,103,112,80,166,98,57,127,100
158749,296,-14932,-5290,-4175,1570,3932,-2751,1620,2281,133,127,140,116,272,146,68,127,105
159529,296,-14932,-5290,-4175,1570,3932,-2751,1620,2281,133,127,140,116,272,146,68,127,105
160506,818,-14797,-5360,-4485,1641,4207,-2668,2187,2835,108,127,140,116,272,146,68,127,105
175143,818,-14797,-5360,-4485,1641,4207,-2668,2187,2835,108,160,208,197,302,165,84,128,125
175966,818,-14797,-5360,-4485,1641,4207,-2668,2187,2835,108,160,208,197,302,165,84,128,125
176919,-962,-15154,-5080,-3476,1209,4423,-2041,-123,537,-193,160,208,197,302,165,84,128,125
177713,-916,-15136,-5106,-3529,1243,4412,-2039,-118,520,-175,160,208,197,302,165,84,128,125
182772,-865,-15119,-5129,-3579,1277,4409,-2054,-94,509,-155,160,208,197,302,165,84,128,125
183583,-806,-15105,-5151,-3623,1308,4411,-2091,-30,499,-134,160,208,197,302,165,84,128,125
184427,-735,-15090,-5173,-3668,1343,4409,-2100,36,525,-116,160,208,197,302,165,84,128,125
185215,-735,-15090,-5173,-3668,1343,4409,-2100,36,525,-116,34,24,46,36,51,32,88,48
190091,-735,-15090,-5173,-3668,1343,4409,-2100,36,525,-116,34,24,46,36,51,32,88,48
190873,-735,-15090,-5173,-3668,1343,4409,-2100,36,525,-116,34,24,46,36,51,32,88,48
191712,-735,-15090,-5173,-3668,1343,4409,-2100,36,525,-116,34,24,46,36,51,32,88,48
192503,-735,-15090,-5173,-3668,1343,4409,-2100,36,525,-116,34,24,46,36,51,32,88,48
195357,-735,-15090,-5173,-3668,1343,4409,-2100,36,525,-116,34,24,46,36,51,32,88,48
205227,-625,-15074,-5194,-3722,1353,4303,-2089,187,654,-82,34,24,46,36,51,32,88,48
205995,-625,-15074,-5194,-3722,1353,4303,-2089,187,654,-82,46,37,54,71,58,44,129,75
206795,-625,-15074,-5194,-3722,1353,4303,-2089,187,654,-82,46,37,54,71,58,44,129,75
207631,-625,-15074,-5194,-3722,1353,4303,-2089,187,654,-82,46,37,54,71,58,44,129,75
212619,-625,-15074,-5194,-3722,1353,4303,-2089,187,654,-82,46,37,54,71,58,44,129,75
213410,-625,-15074,-5194,-3722,1353,4303,-2089,187,654,-82,46,37,54,71,58,44,129,75
214232,-625,-15074,-5194,-3722,1353,4303,-2089,187,654,-82,46,37,54,71,58,44,129,75
215022,-625,-15074,-5194,-3722,1353,4303,-2089,187,654,-82,46,37,54,71,58,44,129,75
220143,-625,-15074,-5194,-3722,1353,4303,-2089,187,654,-82,46,37,54,71,58,44,129,75
221019,-425,-15057,-5217,-3789,1376,4011,-2245,505,944,-23,46,37,54,71,58,44,129,75
221842,-425,-15057,-5217,-3789,1376,4011,-2245,505,944,-23,51,53,64,141,72,52,126,82
222672,-425,-15057,-5217,-3789,1376,4011,-2245,505,944,-23,51,53,64,141,72,52,126,82
227682,-425,-15057,-5217,-3789,1376,4011,-2245,505,944,-23,51,53,64,141,72,52,126,82
228461,-425,-15057,-5217,-3789,1376,4011,-2245,505,944,-23,51,53,64,141,72,52,126,82
229268,-425,-15057,-5217,-3789,1376,4011,-2245,505,944,-23,51,53,64,141,72,52,126,82
230106,-425,-15057,-5217,-3789,1376,4011,-2245,505,944,-23,51,53,64,141,72,52,126,82
235106,-425,-15057,-5217,-3789,1376,4011,-2245,505,944,-23,51,53,64,141,72,52,126,82
235789,-425,-15057,-5217,-3789,1376,4011,-2245,505,944,-23,51,53,64,141,72,52,126,82
236660,-425,-15057,-5217,-3789,1376,4011,-2245,505,944,-23,51,53,64,141,72,52,126,82
237525,-425,-15057,-5217,-3789,1376,4011,-2245,505,944,-23,51,53,64,141,72,52,126,82
242605,-425,-15057,-5217,-3789,1376,4011,-2245,505,944,-23,51,53,64,141,72,52,126,82
243506,-115,-15020,-5243,-3917,1494,3848,-2552,917,1558,52,51,53,64,141,72,52,126,82
244341,-115,-15020,-5243,-3917,1494,3848,-2552,917,1558,52,103,112,80,166,98,57,127,100
245130,-115,-15020,-5243,-3917,1494,3848,-2552,917,1558,52,103,112,80,166,98,57,127,100
250158,-115,-15020,-5243,-3917,1494,3848,-2552,917,1558,52,103,112,80,166,98,57,127,100
250941,-115,-15020,-5243,-3917,1494,3848,-2552,917,1558,52,103,112,80,166,98,57,127,100
251791,-115,-15020,-5243,-3917,1494,3848,-2552,917,1558,52,103,112,80,166,98,57,127,100
252582,-115,-15020,-5243,-3917,1494,3848,-2552,917,1558,52,103,112,80,166,98,57,127,100
257539,-115,-15020,-5243,-3917,1494,3848,-2552,917,1558,52,103,112,80,166,98,57,127,100
258372,-115,-15020,-5243,-3917,1494,3848,-2552,917,1558,52,103,112,80,166,98,57,127,100
259158,-115,-15020,-5243,-3917,1494,3848,-2552,917,1558,52,103,112,80,166,98,57,127,100
260013,-115,-15020,-5243,-3917,1494,3848,-2552,917,1558,52,103,112,80,166,98,57,127,100
265154,-115,-15020,-5243,-3917,1494,3848,-2552,917,1558,52,103,112,80,166,98,57,127,100
266027,296,-14932,-5290,-4175,1570,3932,-2751,1620,2281,133,103,112,80,166,98,57,127,100
266849,296,-14932,-5290,-4175,1570,3932,-2751,1620,2281,133,127,140,116,272,146,68,127,105
267667,296,-14932,-5290,-4175,1570,3932,-2751,1620,2281,133,127,140,116,272,146,68,127,105
272631,296,-14932,-5290,-4175,1570,3932,-2751,1620,2281,133,127,140,116,272,146,68,127,105
273409,296,-14932,-5290,-4175,1570,3932,-2751,1620,2281,133,127,140,116,272,146,68,127,105
274230,296,-14932,-5290,-4175,1570,3932,-2751,1620,2281,133,127,140,116,272,146,68,127,105
275106,296,-14932,-5290,-4175,1570,3932,-2751,1620,2281,133,127,140,116,272,146,68,127,105
280134,296,-14932,-5290,-4175,1570,3932,-2751,1620,2281,133,127,140,116,272,146,68,127,105
280842,296,-14932,-5290,-4175,1570,3932,-2751,1620,2281,133,127,140,116,272,146,68,127,105
281685,296,-14932,-5290,-4175,1570,3932,-2751,1620,2281,133,127,140,116,272,146,68,127,105
282495,296,-14932,-5290,-4175,1570,3932,-2751,1620,2281,133,127,140,116,272,146,68,127,105
287558,296,-14932,-5290,-4175,1570,3932,-2751,1620,2281,133,127,140,116,272,146,68,127,105
288480,818,-14797,-5360,-4485,1641,4207,-2668,2187,2835,108,127,140,116,272,146,68,127,105
289312,818,-14797,-5360,-4485,1641,4207,-2668,2187,2835,108,160,208,197,302,165,84,128,125
290158,818,-14797,-5360,-4485,1641,4207,-2668,2187,2835,108,160,208,197,302,165,84,128,125
295177,818,-14797,-5360,-4485,1641,4207,-2668,2187,2835,108,160,208,197,302,165,84,128,125
295971,818,-14797,-5360,-4485,1641,4207,-2668,2187,2835,108,160,208,197,302,165,84,128,125
296830,818,-14797,-5360,-4485,1641,4207,-2668,2187,2835,108,160,208,197,302,165,84,128,125
297583,818,-14797,-5360,-4485,1641,4207,-2668,2187,2835,108,160,208,197,302,165,84,128,125
302551,818,-14797,-5360,-4485,1641,4207,-2668,2187,2835,108,160,208,197,302,165,84,128,125
303343,818,-14797,-5360,-4485,1641,4207,-2668,2187,2835,108,160,208,197,302,165,84,128,125
304204,818,-14797,-5360,-4485,1641,4207,-2668,2187,2835,108,160,208,197,302,165,84,128,125
305010,818,-14797,-5360,-4485,1641,4207,-2668,2187,2835,108,160,208,197,302,165,84,128,125
310078,818,-14797,-5360,-4485,1641,4207,-2668,2187,2835,108,160,208,197,302,165,84,128,125
310984,1323,-14642,-5411,-4799,1729,4424,-2225,2122,2852,173,160,208,197,302,165,84,128,125
311807,1323,-14642,-5411,-4799,1729,4424,-2225,2122,2852,173,196,266,250,303,176,82,99,142
312582,1323,-14642,-5411,-4799,1729,4424,-2225,2122,2852,173,196,266,250,303,176,82,99,142
315397,1323,-14642,-5411,-4799,1729,4424,-2225,2122,2852,173,196,266,250,303,176,82,99,142
325131,1323,-14642,-5411,-4799,1729,4424,-2225,2122,2852,173,196,266,250,303,176,82,99,142
325881,1323,-14642,-5411,-4799,1729,4424,-2225,2122,2852,173,196,266,250,303,176,82,99,142
326771,1323,-14642,-5411,-4799,1729,4424,-2225,2122,2852,173,196,266,250,303,176,82,99,142
327512,1323,-14642,-5411,-4799,1729,4424,-2225,2122,2852,173,196,266,250,303,176,82,99,142
332524,1323,-14642,-5411,-4799,1729,4424,-2225,2122,2852,173,196,266,250,303,176,82,99,142
333334,1323,-14642,-5411,-4799,1729,4424,-2225,2122,2852,173,196,266,250,303,176,82,99,142
334189,1323,-14642,-5411,-4799,1729,4424,-2225,2122,2852,173,196,266,250,303,176,82,99,142
334954,1323,-14642,-5411,-4799,1729,4424,-2225,2122,2852,173,196,266,250,303,176,82,99,142
340119,1323,-14642,-5411,-4799,1729,4424,-2225,2122,2852,173,202,278,327,289,176,86,99,146
340935,1323,-14642,-5411,-4799,1729,4424,-2225,2122,2852,173,202,278,327,289,176,86,99,146
341738,1323,-14642,-5411,-4799,1729,4424,-2225,2122,2852,173,202,278,327,289,176,86,99,146
342611,1323,-14642,-5411,-4799,1729,4424,-2225,2122,2852,173,202,278,327,289,176,86,99,146
347544,1323,-14642,-5411,-4799,1729,4424,-2225,2122,2852,173,202,278,327,289,176,86,99,146
348345,1323,-14642,-5411,-4799,1729,4424,-2225,2122,2852,173,202,278,327,289,176,86,99,146
349203,1323,-14642,-5411,-4799,1729,4424,-2225,2122,2852,173,202,278,327,289,176,86,99,146
349974,1323,-14642,-5411,-4799,1729,4424,-2225,2122,2852,173,202,278,327,289,176,86,99,146
352829,1323,-14642,-5411,-4799,1729,4424,-2225,2122,2852,173,202,278,327,289,176,86,99,146
362671,1948,-14377,-5470,-5295,1978,4050,-1805,932,1766,-58,202,278,327,289,176,86,99,146
363471,1948,-14377,-5470,-5295,1978,4050,-1805,932,1766,-58,206,284,335,285,187,93,101,153
364286,1948,-14377,-5470,-5295,1978,4050,-1805,932,1766,-58,206,284,335,285,187,93,101,153
365130,1948,-14377,-5470,-5295,1978,4050,-1805,932,1766,-58,206,284,335,285,187,93,101,153
370073,1948,-14377,-5470,-5295,1978,4050,-1805,932,1766,-58,206,284,335,285,187,93,101,153
370880,1948,-14377,-5470,-5295,1978,4050,-1805,932,1766,-58,206,284,335,285,187,93,101,153
371726,1948,-14377,-5470,-5295,1978,4050,-1805,932,1766,-58,206,284,335,285,187,93,101,153
372525,1948,-14377,-5470,-5295,1978,4050,-1805,932,1766,-58,206,284,335,285,187,93,101,153
377584,1948,-14377,-5470,-5295,1978,4050,-1805,932,1766,-58,206,284,335,285,187,93,101,153
378557,2017,-14326,-5558,-5317,1979,4413,-1846,658,719,-266,206,284,335,285,187,93,101,153
379340,2017,-14326,-5558,-5317,1979,4413,-1846,658,719,-266,200,283,355,218,159,89,99,153
380172,2017,-14326,-5558,-5317,1979,4413,-1846,658,719,-266,200,283,355,218,159,89,99,153
385132,2017,-14326,-5558,-5317,1979,4413,-1846,658,719,-266,200,283,355,218,159,89,99,153
385994,2017,-14326,-5558,-5317,1979,4413,-1846,658,719,-266,200,283,355,218,159,89,99,153
386773,2017,-14326,-5558,-5317,1979,4413,-1846,658,719,-266,200,283,355,218,159,89,99,153
387573,2017,-14326,-5558,-5317,1979,4413,-1846,658,719,-266,200,283,355,218,159,89,99,153
392504,2017,-14326,-5558,-5317,1979,4413,-1846,658,719,-266,200,283,355,218,159,89,99,153
393319,2017,-14326,-5558,-5317,1979,4413,-1846,658,719,-266,200,283,355,218,159,89,99,153
394147,2017,-14326,-5558,-5317,1979,4413,-1846,658,719,-266,200,283,355,218,159,89,99,153
394956,2017,-14326,-5558,-5317,1979,4413,-1846,658,719,-266,200,283,355,218,159,89,99,153
400042,2017,-14326,-5558,-5317,1979,4413,-1846,658,719,-266,200,283,355,218,159,89,99,153
400970,1981,-14322,-5728,-5158,2185,4598,-1956,683,-599,-590,200,283,355,218,159,89,99,153
401786,1981,-14322,-5728,-5158,2185,4598,-1956,683,-599,-590,184,246,329,201,139,75,85,137
402646,1981,-14322,-5728,-5158,2185,4598,-1956,683,-599,-590,184,246,329,201,139,75,85,137
407633,1981,-14322,-5728,-5158,2185,4598,-1956,683,-599,-590,184,246,329,201,139,75,85,137
408458,1981,-14322,-5728,-5158,2185,4598,-1956,683,-599,-590,184,246,329,201,139,75,85,137
409251,1981,-14322,-5728,-5158,2185,4598,-1956,683,-599,-590,184,246,329,201,139,75,85,137
410131,1981,-14322,-5728,-5158,2185,4598,-1956,683,-599,-590,184,246,329,201,139,75,85,137
415048,1981,-14322,-5728,-5158,2185,4598,-1956,683,-599,-590,184,246,329,201,139,75,85,137
415843,1981,-14322,-5728,-5158,2185,4598,-1956,683,-599,-590,184,246,329,201,139,75,85,137
416635,1981,-14322,-5728,-5158,2185,4598,-1956,683,-599,-590,184,246,329,201,139,75,85,137
417452,1981,-14322,-5728,-5158,2185,4598,-1956,683,-599,-590,184,246,329,201,139,75,85,137
422613,1981,-14322,-5728,-5158,2185,4598,-1956,683,-599,-590,184,246,329,201,139,75,85,137
423531,1870,-14354,-5927,-4880,2333,4380,-2578,360,-1673,-888,184,246,329,201,139,75,85,137
424374,1870,-14354,-5927,-4880,2333,4380,-2578,360,-1673,-888,157,268,294,204,157,177,164,160
425164,1870,-14354,-5927,-4880,2333,4380,-2578,360,-1673,-888,184,246,329,201,139,75,85,137
430182,1870,-14354,-5927,-4880,2333,4380,-2578,360,-1673,-888,157,268,294,204,157,177,164,160
430984,1870,-14354,-5927,-4880,2333,4380,-2578,360,-1673,-888,157,268,294,204,157,177,164,160
431799,1870,-14354,-5927,-4880,2333,4380,-2578,360,-1673,-888,157,268,294,204,157,177,164,160
432604,1870,-14354,-5927,-4880,2333,4380,-2578,360,-1673,-888,157,268,294,204,157,177,164,160
437597,1870,-14354,-5927,-4880,2333,4380,-2578,360,-1673,-888,157,268,294,204,157,177,164,160
438357,1870,-14354,-5927,-4880,2333,4380,-2578,360,-1673,-888,157,268,294,204,157,177,164,160
439202,1870,-14354,-5927,-4880,2333,4380,-2578,360,-1673,-888,157,268,294,204,157,177,164,160
439997,1870,-14354,-5927,-4880,2333,4380,-2578,360,-1673,-888,157,268,294,204,157,177,164,160
445172,1870,-14354,-5927,-4880,2333,4380,-2578,360,-1673,-888,157,268,294,204,157,177,164,160
446021,1882,-14348,-6075,-4706,2284,5174,-2059,1172,-713,-223,157,268,294,204,157,177,164,160
446851,1882,-14348,-6075,-4706,2284,5174,-2059,1172,-713,-223,167,495,224,215,185,244,297,169
447633,1882,-14348,-6075,-4706,2284,5174,-2059,1172,-713,-223,167,495,224,215,185,244,297,169
452645,1882,-14348,-6075,-4706,2284,5174,-2059,1172,-713,-223,167,495,224,215,185,244,297,169
453458,1882,-14348,-6075,-4706,2284,5174,-2059,1172,-713,-223,167,495,224,215,185,244,297,169
454275,1882,-14348,-6075,-4706,2284,5174,-2059,1172,-713,-223,167,495,224,215,185,244,297,169
455175,1882,-14348,-6075,-4706,2284,5174,-2059,1172,-713,-223,167,495,224,215,185,244,297,169
460049,1882,-14348,-6075,-4706,2284,5174,-2059,1172,-713,-223,167,495,224,215,185,244,297,169
460833,1882,-14348,-6075,-4706,2284,5174,-2059,1172,-713,-223,167,495,224,215,185,244,297,169
461679,1882,-14348,-6075,-4706,2284,5174,-2059,1172,-713,-223,167,495,224,215,185,244,297,169
462513,1882,-14348,-6075,-4706,2284,5174,-2059,1172,-713,-223,167,495,224,215,185,244,297,169
467520,1882,-14348,-6075,-4706,2284,5174,-2059,1172,-713,-223,167,495,224,215,185,244,297,169
468462,1912,-14451,-5978,-4498,1304,6993,-2378,356,-1060,866,167,495,224,215,185,244,297,169
469290,1912,-14451,-5978,-4498,1304,6993,-2378,356,-1060,866,142,511,213,220,182,261,416,204
470176,1912,-14451,-5978,-4498,1304,6993,-2378,356,-1060,866,142,511,213,220,182,261,416,204
472901,1912,-14451,-5978,-4498,1304,6993,-2378,356,-1060,866,142,511,213,220,182,261,416,204
482613,1912,-14451,-5978,-4498,1304,6993,-2378,356,-1060,866,142,511,213,220,182,261,416,204
483383,1912,-14451,-5978,-4498,1304,6993,-2378,356,-1060,866,142,511,213,220,182,261,416,204
484210,1912,-14451,-5978,-4498,1304,6993,-2378,356,-1060,866,142,511,213,220,182,261,416,204
485009,1912,-14451,-5978,-4498,1304,6993,-2378,356,-1060,866,142,511,213,220,182,261,416,204
490000,1912,-14451,-5978,-4498,1304,6993,-2378,356,-1060,866,142,511,213,220,182,261,416,204
490827,1912,-14451,-5978,-4498,1304,6993,-2378,356,-1060,866,142,511,213,220,182,261,416,204
491624,1912,-14451,-5978,-4498,1304,6993,-2378,356,-1060,866,142,511,213,220,182,261,416,204
492425,1912,-14451,-5978,-4498,1304,6993,-2378,356,-1060,866,142,511,213,220,182,261,416,204
497637,1912,-14451,-5978,-4498,1304,6993,-2378,356,-1060,866,139,543,167,194,184,268,668,292
498420,1912,-14451,-5978,-4498,1304,6993,-2378,356,-1060,866,139,543,167,194,184,268,668,292
499247,1912,-14451,-5978,-4498,1304,6993,-2378,356,-1060,866,139,543,167,194,184,268,668,292
500103,1912,-14451,-5978,-4498,1304,6993,-2378,356,-1060,866,139,543,167,194,184,268,668,292
505047,1912,-14451,-5978,-4498,1304,6993,-2378,356,-1060,866,139,543,167,194,184,268,668,292
505842,1912,-14451,-5978,-4498,1304,6993,-2378,356,-1060,866,139,543,167,194,184,268,668,292
506671,1912,-14451,-5978,-4498,1304,6993,-2378,356,-1060,866,139,543,167,194,184,268,668,292
507551,1912,-14451,-5978,-4498,1304,6993,-2378,356,-1060,866,139,543,167,194,184,268,668,292
512538,1912,-14451,-5978,-4498,1304,6993,-2378,356,-1060,866,139,543,167,194,184,268,668,292
513468,553,-14857,-5149,-4571,1697,3546,-3648,-5266,-813,1298,139,543,167,194,184,268,668,292
514291,553,-14857,-5149,-4571,1697,3546,-3648,-5266,-813,1298,131,553,143,167,182,290,963,333
515131,553,-14857,-5149,-4571,1697,3546,-3648,-5266,-813,1298,131,553,143,167,182,290,963,333
520172,553,-14857,-5149,-4571,1697,3546,-3648,-5266,-813,1298,131,553,143,167,182,290,963,333
520941,553,-14857,-5149,-4571,1697,3546,-3648,-5266,-813,1298,131,553,143,167,182,290,963,333
521780,553,-14857,-5149,-4571,1697,3546,-3648,-5266,-813,1298,131,553,143,167,182,290,963,333
522540,553,-14857,-5149,-4571,1697,3546,-3648,-5266,-813,1298,131,553,143,167,182,290,963,333
527583,553,-14857,-5149,-4571,1697,3546,-3648,-5266,-813,1298,131,553,143,167,182,290,963,333
528371,553,-14857,-5149,-4571,1697,3546,-3648,-5266,-813,1298,131,553,143,167,182,290,963,333
529200,553,-14857,-5149,-4571,1697,3546,-3648,-5266,-813,1298,131,553,143,167,182,290,963,333
529997,553,-14857,-5149,-4571,1697,3546,-3648,-5266,-813,1298,131,553,143,167,182,290,963,333
535174,553,-14857,-5149,-4571,1697,3546,-3648,-5266,-813,1298,131,553,143,167,182,290,963,333
536000,-220,-14795,-4879,-5071,2132,1896,-3628,-5223,1323,-39,131,553,143,167,182,290,963,333
536841,-220,-14795,-4879,-5071,2132,1896,-3628,-5223,1323,-39,118,522,153,152,156,248,1018,335
537633,-220,-14795,-4879,-5071,2132,1896,-3628,-5223,1323,-39,118,522,153,152,156,248,1018,335
542659,-220,-14795,-4879,-5071,2132,1896,-3628,-5223,1323,-39,118,522,153,152,156,248,1018,335
543448,-220,-14795,-4879,-5071,2132,1896,-3628,-5223,1323,-39,118,522,153,152,156,248,1018,335
544268,-220,-14795,-4879,-5071,2132,1896,-3628,-5223,1323,-39,118,522,153,152,156,248,1018,335
545133,-220,-14795,-4879,-5071,2132,1896,-3628,-5223,1323,-39,118,522,153,152,156,248,1018,335
550031,-220,-14795,-4879,-5071,2132,1896,-3628,-5223,1323,-39,118,522,153,152,156,248,1018,335
550861,-220,-14795,-4879,-5071,2132,1896,-3628,-5223,1323,-39,118,522,153,152,156,248,1018,335
551660,-220,-14795,-4879,-5071,2132,1896,-3628,-5223,1323,-39,118,522,153,152,156,248,1018,335
552516,-220,-14795,-4879,-5071,2132,1896,-3628,-5223,1323,-39,118,522,153,152,156,248,1018,335
557585,-220,-14795,-4879,-5071,2132,1896,-3628,-5223,1323,-39,118,522,153,152,156,248,1018,335
558489,-1042,-14487,-4950,-5744,2268,553,-2611,-5185,2575,-2251,118,522,153,152,156,248,1018,335
559333,-1042,-14487,-4950,-5744,2268,553,-2611,-5185,2575,-2251,93,328,153,115,117,187,997,330
560153,-1042,-14487,-4950,-5744,2268,553,-2611,-5185,2575,-2251,93,328,153,115,117,187,997,330
565158,-1042,-14487,-4950,-5744,2268,553,-2611,-5185,2575,-2251,93,328,153,115,117,187,997,330
565946,-1042,-14487,-4950,-5744,2268,553,-2611,-5185,2575,-2251,93,328,153,115,117,187,997,330
566775,-1042,-14487,-4950,-5744,2268,553,-2611,-5185,2575,-2251,93,328,153,115,117,187,997,330
567555,-1042,-14487,-4950,-5744,2268,553,-2611,-5185,2575,-2251,93,328,153,115,117,187,997,330
572517,-1042,-14487,-4950,-5744,2268,553,-2611,-5185,2575,-2251,93,328,153,115,117,187,997,330
573331,-1042,-14487,-4950,-5744,2268,553,-2611,-5185,2575,-2251,93,328,153,115,117,187,997,330
574158,-1042,-14487,-4950,-5744,2268,553,-2611,-5185,2575,-2251,93,328,153,115,117,187,997,330
574966,-1042,-14487,-4950,-5744,2268,553,-2611,-5185,2575,-2251,93,328,153,115,117,187,997,330
580133,-1042,-14487,-4950,-5744,2268,553,-2611,-5185,2575,-2251,93,328,153,115,117,187,997,330
581028,-1248,-14272,-5260,-5961,2474,1234,-1135,-854,1261,-2227,93,328,153,115,117,187,997,330
581840,-1248,-14272,-5260,-5961,2474,1234,-1135,-854,1261,-2227,91,288,164,76,84,166,955,315
582640,-1248,-14272,-5260,-5961,2474,1234,-1135,-854,1261,-2227,91,288,164,76,84,166,955,315
587687,-1248,-14272,-5260,-5961,2474,1234,-1135,-854,1261,-2227,91,288,164,76,84,166,955,315
588495,-1248,-14272,-5260,-5961,2474,1234,-1135,-854,1261,-2227,91,288,164,76,84,166,955,315
589315,-1248,-14272,-5260,-5961,2474,1234,-1135,-854,1261,-2227,91,288,164,76,84,166,955,315
590133,-1248,-14272,-5260,-5961,2474,1234,-1135,-854,1261,-2227,91,288,164,76,84,166,955,315
592847,-1248,-14272,-5260,-5961,2474,1234,-1135,-854,1261,-2227,91,288,164,76,84,166,955,315
602543,-1248,-14272,-5260,-5961,2474,1234,-1135,-854,1261,-2227,91,288,164,76,84,166,955,315
603374,-1248,-14272,-5260,-5961,2474,1234,-1135,-854,1261,-2227,91,288,164,76,84,166,955,315
604196,-1248,-14272,-5260,-5961,2474,1234,-1135,-854,1261,-2227,91,288,164,76,84,166,955,315
605005,-1248,-14272,-5260,-5961,2474,1234,-1135,-854,1261,-2227,91,288,164,76,84,166,955,315
610193,-656,-14120,-5769,-5948,486,4216,-1802,3753,1763,-1546,91,288,164,76,84,166,955,315
611032,-656,-14120,-5769,-5948,486,4216,-1802,3753,1763,-1546,93,233,168,62,67,154,799,244
611815,-656,-14120,-5769,-5948,486,4216,-1802,3753,1763,-1546,93,233,168,62,67,154,799,244
612662,-656,-14120,-5769,-5948,486,4216,-1802,3753,1763,-1546,93,233,168,62,67,154,799,244
617530,-656,-14120,-5769,-5948,486,4216,-1802,3753,1763,-1546,93,233,168,62,67,154,799,244
618354,-656,-14120,-5769,-5948,486,4216,-1802,3753,1763,-1546,93,233,168,62,67,154,799,244
619175,-656,-14120,-5769,-5948,486,4216,-1802,3753,1763,-1546,93,233,168,62,67,154,799,244
619988,-656,-14120,-5769,-5948,486,4216,-1802,3753,1763,-1546,93,233,168,62,67,154,799,244
625022,-656,-14120,-5769,-5948,486,4216,-1802,3753,1763,-1546,93,233,168,62,67,154,799,244
626014,154,-14038,-5666,-6266,-155,7204,-1313,3058,3275,2051,93,233,168,62,67,154,799,244
626811,154,-14038,-5666,-6266,-155,7204,-1313,3058,3275,2051,127,301,181,67,57,111,401,191
627648,154,-14038,-5666,-6266,-155,7204,-1313,3058,3275,2051,127,301,181,67,57,111,401,191
632608,154,-14038,-5666,-6266,-155,7204,-1313,3058,3275,2051,127,301,181,67,57,111,401,191
633448,154,-14038,-5666,-6266,-155,7204,-1313,3058,3275,2051,127,301,181,67,57,111,401,191
634225,154,-14038,-5666,-6266,-155,7204,-1313,3058,3275,2051,127,301,181,67,57,111,401,191
635026,154,-14038,-5666,-6266,-155,7204,-1313,3058,3275,2051,127,301,181,67,57,111,401,191
640025,154,-14038,-5666,-6266,-155,7204,-1313,3058,3275,2051,127,301,181,67,57,111,401,191
640842,154,-14038,-5666,-6266,-155,7204,-1313,3058,3275,2051,127,301,181,67,57,111,401,191
641660,154,-14038,-5666,-6266,-155,7204,-1313,3058,3275,2051,127,301,181,67,57,111,401,191
642461,154,-14038,-5666,-6266,-155,7204,-1313,3058,3275,2051,127,301,181,67,57,111,401,191
647559,154,-14038,-5666,-6266,-155,7204,-1313,3058,3275,2051,127,301,181,67,57,111,401,191
648503,1104,-14050,-5523,-6271,2930,4925,-1477,4272,1877,2779,127,301,181,67,57,111,401,191
649316,1104,-14050,-5523,-6271,2930,4925,-1477,4272,1877,2779,145,331,207,64,52,97,183,155
650130,1104,-14050,-5523,-6271,2930,4925,-1477,4272,1877,2779,145,331,207,64,52,97,183,155
655157,1104,-14050,-5523,-6271,2930,4925,-1477,4272,1877,2779,145,331,207,64,52,97,183,155
655945,1104,-14050,-5523,-6271,2930,4925,-1477,4272,1877,2779,145,331,207,64,52,97,183,155
656770,1104,-14050,-5523,-6271,2930,4925,-1477,4272,1877,2779,145,331,207,64,52,97,183,155
657624,1104,-14050,-5523,-6271,2930,4925,-1477,4272,1877,2779,145,331,207,64,52,97,183,155
662555,1104,-14050,-5523,-6271,2930,4925,-1477,4272,1877,2779,145,331,207,64,52,97,183,155
663344,1104,-14050,-5523,-6271,2930,4925,-1477,4272,1877,2779,145,331,207,64,52,97,183,155
664185,1104,-14050,-5523,-6271,2930,4925,-1477,4272,1877,2779,145,331,207,64,52,97,183,155
664993,1104,-14050,-5523,-6271,2930,4925,-1477,4272,1877,2779,145,331,207,64,52,97,183,155
670061,1104,-14050,-5523,-6271,2930,4925,-1477,4272,1877,2779,145,331,207,64,52,97,183,155
670985,1564,-14134,-5126,-6322,2702,4297,-2025,1218,1195,3034,145,331,207,64,52,97,183,155
671816,1564,-14134,-5126,-6322,2702,4297,-2025,1218,1195,3034,175,335,193,62,59,90,128,159
672607,1564,-14134,-5126,-6322,2702,4297,-2025,1218,1195,3034,175,335,193,62,59,90,128,159
677648,1564,-14134,-5126,-6322,2702,4297,-2025,1218,1195,3034,175,335,193,62,59,90,128,159
678457,1564,-14134,-5126,-6322,2702,4297,-2025,1218,1195,3034,175,335,193,62,59,90,128,159
679254,1564,-14134,-5126,-6322,2702,4297,-2025,1218,1195,3034,175,335,193,62,59,90,128,159
680051,1564,-14134,-5126,-6322,2702,4297,-2025,1218,1195,3034,175,335,193,62,59,90,128,159
685006,1564,-14134,-5126,-6322,2702,4297,-2025,1218,1195,3034,175,335,193,62,59,90,128,159
685819,1564,-14134,-5126,-6322,2702,4297,-2025,1218,1195,3034,175,335,193,62,59,90,128,159
686643,1564,-14134,-5126,-6322,2702,4297,-2025,1218,1195,3034,175,335,193,62,59,90,128,159
687447,1564,-14134,-5126,-6322,2702,4297,-2025,1218,1195,3034,175,335,193,62,59,90,128,159
692621,1564,-14134,-5126,-6322,2702,4297,-2025,1218,1195,3034,175,335,193,62,59,90,128,159
693528,1671,-14250,-4808,-6283,1755,4852,-1748,-117,98,2065,175,335,193,62,59,90,128,159
694347,1671,-14250,-4808,-6283,1755,4852,-1748,-117,98,2065,189,358,199,68,66,74,109,141
695162,1671,-14250,-4808,-6283,1755,4852,-1748,-117,98,2065,189,358,199,68,66,74,109,141
700168,1671,-14250,-4808,-6283,1755,4852,-1748,-117,98,2065,189,358,199,68,66,74,109,141
700971,1671,-14250,-4808,-6283,1755,4852,-1748,-117,98,2065,189,358,199,68,66,74,109,141
701814,1671,-14250,-4808,-6283,1755,4852,-1748,-117,98,2065,189,358,199,68,66,74,109,141
702595,1671,-14250,-4808,-6283,1755,4852,-1748,-117,98,2065,189,358,199,68,66,74,109,141
715047,1671,-14250,-4808,-6283,1755,4852,-1748,-117,98,2065,189,358,199,68,66,74,109,141
715856,1671,-14250,-4808,-6283,1755,4852,-1748,-117,98,2065,189,358,199,68,66,74,109,141
716658,1671,-14250,-4808,-6283,1755,4852,-1748,-117,98,2065,189,358,199,68,66,74,109,141
717514,1671,-14250,-4808,-6283,1755,4852,-1748,-117,98,2065,189,358,199,68,66,74,109,141
730154,1671,-14250,-4808,-6283,1755,4852,-1748,-117,98,2065,189,358,199,68,66,74,109,141
731033,1689,-14392,-4827,-5932,1512,4211,-1634,648,-1300,439,189,358,199,68,66,74,109,141
731836,1689,-14392,-4827,-5932,1512,4211,-1634,648,-1300,439,186,348,230,97,76,76,113,124
732674,1689,-14392,-4827,-5932,1512,4211,-1634,648,-1300,439,186,348,230,97,76,76,113,124
737634,1689,-14392,-4827,-5932,1512,4211,-1634,648,-1300,439,186,348,230,97,76,76,113,124
738485,1689,-14392,-4827,-5932,1512,4211,-1634,648,-1300,439,186,348,230,97,76,76,113,124
739268,1689,-14392,-4827,-5932,1512,4211,-1634,648,-1300,439,186,348,230,97,76,76,113,124
740172,1689,-14392,-4827,-5932,1512,4211,-1634,648,-1300,439,186,348,230,97,76,76,113,124
745089,1689,-14392,-4827,-5932,1512,4211,-1634,648,-1300,439,186,348,230,97,76,76,113,124
745869,1689,-14392,-4827,-5932,1512,4211,-1634,648,-1300,439,186,348,230,97,76,76,113,124
746669,1689,-14392,-4827,-5932,1512,4211,-1634,648,-1300,439,186,348,230,97,76,76,113,124
747502,1689,-14392,-4827,-5932,1512,4211,-1634,648,-1300,439,186,348,230,97,76,76,113,124
750331,1689,-14392,-4827,-5932,1512,4211,-1634,648,-1300,439,186,348,230,97,76,76,113,124
760166,1442,-14549,-5153,-5306,1553,3794,-1909,345,-3852,-1512,186,348,230,97,76,76,113,124
761019,1442,-14549,-5153,-5306,1553,3794,-1909,345,-3852,-1512,183,291,245,164,96,145,173,146
761812,1442,-14549,-5153,-5306,1553,3794,-1909,345,-3852,-1512,183,291,245,164,96,145,173,146
762617,1442,-14549,-5153,-5306,1553,3794,-1909,345,-3852,-1512,183,291,245,164,96,145,173,146
767544,1442,-14549,-5153,-5306,1553,3794,-1909,345,-3852,-1512,183,291,245,164,96,145,173,146
768341,1442,-14549,-5153,-5306,1553,3794,-1909,345,-3852,-1512,183,291,245,164,96,145,173,146
769159,1442,-14549,-5153,-5306,1553,3794,-1909,345,-3852,-1512,183,291,245,164,96,145,173,146
769945,1442,-14549,-5153,-5306,1553,3794,-1909,345,-3852,-1512,183,291,245,164,96,145,173,146
775159,1442,-14549,-5153,-5306,1553,3794,-1909,345,-3852,-1512,183,291,245,164,96,145,173,146
776026,795,-14658,-5693,-4535,1901,3640,-2238,-1027,-5376,-3354,183,291,245,164,96,145,173,146
776857,795,-14658,-5693,-4535,1901,3640,-2238,-1027,-5376,-3354,187,421,230,189,118,216,320,176
777654,795,-14658,-5693,-4535,1901,3640,-2238,-1027,-5376,-3354,187,421,230,189,118,216,320,176
782684,795,-14658,-5693,-4535,1901,3640,-2238,-1027,-5376,-3354,187,421,230,189,118,216,320,176
783492,795,-14658,-5693,-4535,1901,3640,-2238,-1027,-5376,-3354,187,421,230,189,118,216,320,176
784306,795,-14658,-5693,-4535,1901,3640,-2238,-1027,-5376,-3354,187,421,230,189,118,216,320,176
785131,795,-14658,-5693,-4535,1901,3640,-2238,-1027,-5376,-3354,187,421,230,189,118,216,320,176
790060,795,-14658,-5693,-4535,1901,3640,-2238,-1027,-5376,-3354,187,421,230,189,118,216,320,176
790851,795,-14658,-5693,-4535,1901,3640,-2238,-1027,-5376,-3354,187,421,230,189,118,216,320,176
791682,795,-14658,-5693,-4535,1901,3640,-2238,-1027,-5376,-3354,187,421,230,189,118,216,320,176
792474,795,-14658,-5693,-4535,1901,3640,-2238,-1027,-5376,-3354,187,421,230,189,118,216,320,176
797582,795,-14658,-5693,-4535,1901,3640,-2238,-1027,-5376,-3354,187,421,230,189,118,216,320,176
798490,499,-14628,-6135,-4072,3832,5260,-5027,109,-2970,-2607,187,421,230,189,118,216,320,176
799332,499,-14628,-6135,-4072,3832,5260,-5027,109,-2970,-2607,179,439,233,199,128,275,542,212
800153,499,-14628,-6135,-4072,3832,5260,-5027,109,-2970,-2607,179,439,233,199,128,275,542,212
805156,499,-14628,-6135,-4072,3832,5260,-5027,109,-2970,-2607,179,439,233,199,128,275,542,212
805946,499,-14628,-6135,-4072,3832,5260,-5027,109,-2970,-2607,179,439,233,199,128,275,542,212
806789,499,-14628,-6135,-4072,3832,5260,-5027,109,-2970,-2607,179,439,233,199,128,275,542,212
807569,499,-14628,-6135,-4072,3832,5260,-5027,109,-2970,-2607,179,439,233,199,128,275,542,212
812526,499,-14628,-6135,-4072,3832,5260,-5027,109,-2970,-2607,179,439,233,199,128,275,542,212
813343,499,-14628,-6135,-4072,3832,5260,-5027,109,-2970,-2607,179,439,233,199,128,275,542,212
814171,499,-14628,-6135,-4072,3832,5260,-5027,109,-2970,-2607,179,439,233,199,128,275,542,212
814954,499,-14628,-6135,-4072,3832,5260,-5027,109,-2970,-2607,179,439,233,199,128,275,542,212
820050,499,-14628,-6135,-4072,3832,5260,-5027,109,-2970,-2607,179,439,233,199,128,275,542,212
820973,860,-14717,-5788,-4200,1185,6689,-3436,1039,1330,2399,179,439,233,199,128,275,542,212
821830,860,-14717,-5788,-4200,1185,6689,-3436,1039,1330,2399,161,471,218,201,124,284,743,257
822591,860,-14717,-5788,-4200,1185,6689,-3436,1039,1330,2399,161,471,218,201,124,284,743,257
827619,860,-14717,-5788,-4200,1185,6689,-3436,1039,1330,2399,161,471,218,201,124,284,743,257
828446,860,-14717,-5788,-4200,1185,6689,-3436,1039,1330,2399,161,471,218,201,124,284,743,257
829269,860,-14717,-5788,-4200,1185,6689,-3436,1039,1330,2399,161,471,218,201,124,284,743,257
830050,860,-14717,-5788,-4200,1185,6689,-3436,1039,1330,2399,161,471,218,201,124,284,743,257
835018,860,-14717,-5788,-4200,1185,6689,-3436,1039,1330,2399,161,471,218,201,124,284,743,257
835816,860,-14717,-5788,-4200,1185,6689,-3436,1039,1330,2399,161,471,218,201,124,284,743,257
836674,860,-14717,-5788,-4200,1185,6689,-3436,1039,1330,2399,161,471,218,201,124,284,743,257
837470,860,-14717,-5788,-4200,1185,6689,-3436,1039,1330,2399,161,471,218,201,124,284,743,257
842591,860,-14717,-5788,-4200,1185,6689,-3436,1039,1330,2399,161,471,218,201,124,284,743,257
843506,514,-14811,-5334,-4516,1488,4728,-2556,-3033,1033,1905,161,471,218,201,124,284,743,257
844344,514,-14811,-5334,-4516,1488,4728,-2556,-3033,1033,1905,161,476,176,202,123,308,871,285
845130,514,-14811,-5334,-4516,1488,4728,-2556,-3033,1033,1905,161,476,176,202,123,308,871,285
850171,514,-14811,-5334,-4516,1488,4728,-2556,-3033,1033,1905,161,476,176,202,123,308,871,285
850985,514,-14811,-5334,-4516,1488,4728,-2556,-3033,1033,1905,161,476,176,202,123,308,871,285
851808,514,-14811,-5334,-4516,1488,4728,-2556,-3033,1033,1905,161,476,176,202,123,308,871,285
852603,514,-14811,-5334,-4516,1488,4728,-2556,-3033,1033,1905,161,476,176,202,123,308,871,285
857569,514,-14811,-5334,-4516,1488,4728,-2556,-3033,1033,1905,161,476,176,202,123,308,871,285
858379,514,-14811,-5334,-4516,1488,4728,-2556,-3033,1033,1905,161,476,176,202,123,308,871,285
859202,514,-14811,-5334,-4516,1488,4728,-2556,-3033,1033,1905,161,476,176,202,123,308,871,285
859993,514,-14811,-5334,-4516,1488,4728,-2556,-3033,1033,1905,161,476,176,202,123,308,871,285
872573,514,-14811,-5334,-4516,1488,4728,-2556,-3033,1033,1905,161,476,176,202,123,308,871,285
873480,-225,-14844,-5068,-4730,2290,3164,-2628,-4766,-232,100,161,476,176,202,123,308,871,285
874279,-225,-14844,-5068,-4730,2290,3164,-2628,-4766,-232,100,140,470,196,175,109,285,894,281
875133,-225,-14844,-5068,-4730,2290,3164,-2628,-4766,-232,100,140,470,196,175,109,285,894,281
880133,-225,-14844,-5068,-4730,2290,3164,-2628,-4766,-232,100,140,470,196,175,109,285,894,281
880918,-225,-14844,-5068,-4730,2290,3164,-2628,-4766,-232,100,140,470,196,175,109,285,894,281
881736,-225,-14844,-5068,-4730,2290,3164,-2628,-4766,-232,100,140,470,196,175,109,285,894,281
882568,-225,-14844,-5068,-4730,2290,3164,-2628,-4766,-232,100,140,470,196,175,109,285,894,281
887556,-225,-14844,-5068,-4730,2290,3164,-2628,-4766,-232,100,140,470,196,175,109,285,894,281
888412,-225,-14844,-5068,-4730,2290,3164,-2628,-4766,-232,100,140,470,196,175,109,285,894,281
889212,-225,-14844,-5068,-4730,2290,3164,-2628,-4766,-232,100,140,470,196,175,109,285,894,281
890008,-225,-14844,-5068,-4730,2290,3164,-2628,-4766,-232,100,140,470,196,175,109,285,894,281
895131,-225,-14844,-5068,-4730,2290,3164,-2628,-4766,-232,100,140,470,196,175,109,285,894,281
896026,-1134,-14615,-5105,-5245,2895,1453,-3282,-5472,1413,-2019,140,470,196,175,109,285,894,281
896818,-1134,-14615,-5105,-5245,2895,1453,-3282,-5472,1413,-2019,119,336,232,152,82,236,864,265
897635,-1134,-14615,-5105,-5245,2895,1453,-3282,-5472,1413,-2019,119,336,232,152,82,236,864,265
902645,-1134,-14615,-5105,-5245,2895,1453,-3282,-5472,1413,-2019,119,336,232,152,82,236,864,265
903462,-1134,-14615,-5105,-5245,2895,1453,-3282,-5472,1413,-2019,119,336,232,152,82,236,864,265
904265,-1134,-14615,-5105,-5245,2895,1453,-3282,-5472,1413,-2019,119,336,232,152,82,236,864,265
905171,-1134,-14615,-5105,-5245,2895,1453,-3282,-5472,1413,-2019,119,336,232,152,82,236,864,265
909771,-1134,-14615,-5105,-5245,2895,1453,-3282,-5472,1413,-2019,119,336,232,152,82,236,864,265
910598,-1134,-14615,-5105,-5245,2895,1453,-3282,-5472,1413,-2019,119,336,232,152,82,236,864,265
911422,-1134,-14615,-5105,-5245,2895,1453,-3282,-5472,1413,-2019,119,336,232,152,82,236,864,265
912248,-1134,-14615,-5105,-5245,2895,1453,-3282,-5472,1413,-2019,119,336,232,152,82,236,864,265
