Timestamp, Orientation x, Orientation y, Orientation z, Orientation w, Acceleration x, Acceleration y, Acceleration z, Rotation x, Rotation y, Rotation z, EMG 0, EMG 1, EMG 2, EMG 3, EMG 4, EMG 5, EMG 6, EMG 7
0,2679,12319,-6594,8124,3816,3334,-253,-19,16,-24,0,0,0,0,0,0,0,0
786,2684,12318,-6594,8124,3810,3327,-261,-27,10,-16,0,0,0,0,0,0,0,0
14284,2688,12317,-6596,8124,3808,3319,-269,-29,7,-10,0,0,0,0,0,0,0,0
36787,2691,12315,-6597,8124,3816,3324,-279,-20,10,-8,0,0,0,0,0,0,0,0
51785,2694,12313,-6599,8125,3813,3330,-261,-23,12,4,0,0,0,0,0,0,0,0
67389,2694,12313,-6599,8125,3813,3330,-261,-23,12,4,22,21,38,28,34,68,42,53
68290,2694,12313,-6599,8125,3813,3330,-261,-23,12,4,22,21,38,28,34,68,42,53
74344,2698,12308,-6606,8125,3819,3319,-267,-45,8,22,22,21,38,28,34,68,42,53
82367,2698,12308,-6606,8125,3819,3319,-267,-45,8,22,23,23,32,27,34,79,75,37
83164,2698,12308,-6606,8125,3819,3319,-267,-45,8,22,23,23,32,27,34,79,75,37
99476,2700,12300,-6619,8126,3810,3280,-219,-70,-4,37,23,23,32,27,34,79,75,37
100309,2700,12300,-6619,8126,3810,3280,-219,-70,-4,37,23,23,32,27,34,79,75,37
101138,2679,12319,-6594,8124,3816,3334,-253,-19,16,-24,23,23,32,27,34,79,75,37
101959,2684,12318,-6594,8124,3810,3327,-261,-27,10,-16,23,23,32,27,34,79,75,37
106887,2688,12317,-6596,8124,3808,3319,-269,-29,7,-10,23,23,32,27,34,79,75,37
107738,2691,12315,-6597,8124,3816,3324,-279,-20,10,-8,23,23,32,27,34,79,75,37
108562,2694,12313,-6599,8125,3813,3330,-261,-23,12,4,23,23,32,27,34,79,75,37
109360,2694,12313,-6599,8125,3813,3330,-261,-23,12,4,22,21,38,28,34,68,42,53
114460,2694,12313,-6599,8125,3813,3330,-261,-23,12,4,23,23,32,27,34,79,75,37
115289,2694,12313,-6599,8125,3813,3330,-261,-23,12,4,23,23,32,27,34,79,75,37
116100,2694,12313,-6599,8125,3813,3330,-261,-23,12,4,23,23,32,27,34,79,75,37
116912,2694,12313,-6599,8125,3813,3330,-261,-23,12,4,23,23,32,27,34,79,75,37
121836,2694,12313,-6599,8125,3813,3330,-261,-23,12,4,23,23,32,27,34,79,75,37
122688,2694,12313,-6599,8125,3813,3330,-261,-23,12,4,23,23,32,27,34,79,75,37
123460,2694,12313,-6599,8125,3813,3330,-261,-23,12,4,23,23,32,27,34,79,75,37
124326,2694,12313,-6599,8125,3813,3330,-261,-23,12,4,23,23,32,27,34,79,75,37
129382,2694,12313,-6599,8125,3813,3330,-261,-23,12,4,23,23,32,27,34,79,75,37
130316,2700,12300,-6619,8126,3810,3280,-219,-70,-4,37,23,23,32,27,34,79,75,37
131115,2700,12300,-6619,8126,3810,3280,-219,-70,-4,37,27,27,29,24,43,119,133,43
131944,2700,12300,-6619,8126,3810,3280,-219,-70,-4,37,27,27,29,24,43,119,133,43
136935,2700,12300,-6619,8126,3810,3280,-219,-70,-4,37,27,27,29,24,43,119,133,43
137776,2700,12300,-6619,8126,3810,3280,-219,-70,-4,37,27,27,29,24,43,119,133,43
138565,2700,12300,-6619,8126,3810,3280,-219,-70,-4,37,27,27,29,24,43,119,133,43
139401,2700,12300,-6619,8126,3810,3280,-219,-70,-4,37,27,27,29,24,43,119,133,43
144310,2700,12300,-6619,8126,3810,3280,-219,-70,-4,37,27,27,29,24,43,119,133,43
145180,2700,12300,-6619,8126,3810,3280,-219,-70,-4,37,27,27,29,24,43,119,133,43
145942,2700,12300,-6619,8126,3810,3280,-219,-70,-4,37,27,27,29,24,43,119,133,43
146787,2700,12300,-6619,8126,3810,3280,-219,-70,-4,37,27,27,29,24,43,119,133,43
150347,2700,12300,-6619,8126,3810,3280,-219,-70,-4,37,27,27,29,24,43,119,133,43
151285,2682,12287,-6645,8130,3755,3148,-189,-46,-38,107,27,27,29,24,43,119,133,43
159463,2682,12287,-6645,8130,3755,3148,-189,-46,-38,107,37,30,32,31,65,237,145,68
160252,2682,12287,-6645,8130,3755,3148,-189,-46,-38,107,37,30,32,31,65,237,145,68
161063,2682,12287,-6645,8130,3755,3148,-189,-46,-38,107,37,30,32,31,65,237,145,68
161885,2682,12287,-6645,8130,3755,3148,-189,-46,-38,107,37,30,32,31,65,237,145,68
166835,2682,12287,-6645,8130,3755,3148,-189,-46,-38,107,37,30,32,31,65,237,145,68
167635,2682,12287,-6645,8130,3755,3148,-189,-46,-38,107,37,30,32,31,65,237,145,68
168459,2682,12287,-6645,8130,3755,3148,-189,-46,-38,107,37,30,32,31,65,237,145,68
169259,2682,12287,-6645,8130,3755,3148,-189,-46,-38,107,37,30,32,31,65,237,145,68
174393,2682,12287,-6645,8130,3755,3148,-189,-46,-38,107,37,30,32,31,65,237,145,68
175337,2639,12264,-6703,8131,3687,2958,-142,-97,-122,245,37,30,32,31,65,237,145,68
176131,2639,12264,-6703,8131,3687,2958,-142,-97,-122,245,41,34,42,67,86,394,178,71
176926,2639,12264,-6703,8131,3687,2958,-142,-97,-122,245,41,34,42,67,86,394,178,71
181956,2639,12264,-6703,8131,3687,2958,-142,-97,-122,245,41,34,42,67,86,394,178,71
182747,2639,12264,-6703,8131,3687,2958,-142,-97,-122,245,41,34,42,67,86,394,178,71
183537,2639,12264,-6703,8131,3687,2958,-142,-97,-122,245,41,34,42,67,86,394,178,71
184361,2639,12264,-6703,8131,3687,2958,-142,-97,-122,245,41,34,42,67,86,394,178,71
189310,2639,12264,-6703,8131,3687,2958,-142,-97,-122,245,41,34,42,67,86,394,178,71
190113,2639,12264,-6703,8131,3687,2958,-142,-97,-122,245,41,34,42,67,86,394,178,71
190941,2639,12264,-6703,8131,3687,2958,-142,-97,-122,245,41,34,42,67,86,394,178,71
191735,2639,12264,-6703,8131,3687,2958,-142,-97,-122,245,41,34,42,67,86,394,178,71
196912,2639,12264,-6703,8131,3687,2958,-142,-97,-122,245,41,34,42,67,86,394,178,71
197865,2543,12237,-6807,8116,3676,2821,-157,-67,-347,542,41,34,42,67,86,394,178,71
198660,2543,12237,-6807,8116,3676,2821,-157,-67,-347,542,61,58,61,79,100,475,205,143
199451,2543,12237,-6807,8116,3676,2821,-157,-67,-347,542,61,58,61,79,100,475,205,143
204459,2543,12237,-6807,8116,3676,2821,-157,-67,-347,542,61,58,61,79,100,475,205,143
205313,2543,12237,-6807,8116,3676,2821,-157,-67,-347,542,61,58,61,79,100,475,205,143
206114,2543,12237,-6807,8116,3676,2821,-157,-67,-347,542,61,58,61,79,100,475,205,143
206940,2543,12237,-6807,8116,3676,2821,-157,-67,-347,542,61,58,61,79,100,475,205,143
211860,2543,12237,-6807,8116,3676,2821,-157,-67,-347,542,61,58,61,79,100,475,205,143
212715,2543,12237,-6807,8116,3676,2821,-157,-67,-347,542,61,58,61,79,100,475,205,143
213488,2543,12237,-6807,8116,3676,2821,-157,-67,-347,542,61,58,61,79,100,475,205,143
214319,2543,12237,-6807,8116,3676,2821,-157,-67,-347,542,61,58,61,79,100,475,205,143
219388,2543,12237,-6807,8116,3676,2821,-157,-67,-347,542,61,58,61,79,100,475,205,143
220322,2326,12194,-7009,8074,3722,2797,-162,117,-838,1365,61,58,61,79,100,475,205,143
221116,2326,12194,-7009,8074,3722,2797,-162,117,-838,1365,113,78,116,120,162,600,332,247
221977,2326,12194,-7009,8074,3722,2797,-162,117,-838,1365,113,78,116,120,162,600,332,247
226960,2326,12194,-7009,8074,3722,2797,-162,117,-838,1365,113,78,116,120,162,600,332,247
227787,2326,12194,-7009,8074,3722,2797,-162,117,-838,1365,113,78,116,120,162,600,332,247
228585,2326,12194,-7009,8074,3722,2797,-162,117,-838,1365,113,78,116,120,162,600,332,247
229384,2326,12194,-7009,8074,3722,2797,-162,117,-838,1365,113,78,116,120,162,600,332,247
234334,2326,12194,-7009,8074,3722,2797,-162,117,-838,1365,113,78,116,120,162,600,332,247
235191,2326,12194,-7009,8074,3722,2797,-162,117,-838,1365,113,78,116,120,162,600,332,247
235983,2326,12194,-7009,8074,3722,2797,-162,117,-838,1365,113,78,116,120,162,600,332,247
236797,2326,12194,-7009,8074,3722,2797,-162,117,-838,1365,113,78,116,120,162,600,332,247
241861,2326,12194,-7009,8074,3722,2797,-162,117,-838,1365,113,78,116,120,162,600,332,247
242828,1931,12150,-7300,7986,3768,2259,-323,553,-1453,2273,113,78,116,120,162,600,332,247
243611,1931,12150,-7300,7986,3768,2259,-323,553,-1453,2273,120,85,125,125,165,708,404,263
244451,1931,12150,-7300,7986,3768,2259,-323,553,-1453,2273,120,85,125,125,165,708,404,263
249435,1931,12150,-7300,7986,3768,2259,-323,553,-1453,2273,120,85,125,125,165,708,404,263
250300,1931,12150,-7300,7986,3768,2259,-323,553,-1453,2273,120,85,125,125,165,708,404,263
251063,1931,12150,-7300,7986,3768,2259,-323,553,-1453,2273,120,85,125,125,165,708,404,263
251868,1931,12150,-7300,7986,3768,2259,-323,553,-1453,2273,120,85,125,125,165,708,404,263
256835,1931,12150,-7300,7986,3768,2259,-323,553,-1453,2273,120,85,125,125,165,708,404,263
257713,1931,12150,-7300,7986,3768,2259,-323,553,-1453,2273,120,85,125,125,165,708,404,263
258465,1931,12150,-7300,7986,3768,2259,-323,553,-1453,2273,120,85,125,125,165,708,404,263
259271,1931,12150,-7300,7986,3768,2259,-323,553,-1453,2273,120,85,125,125,165,708,404,263
264383,1931,12150,-7300,7986,3768,2259,-323,553,-1453,2273,120,85,125,125,165,708,404,263
265379,1316,12088,-7647,7880,4026,2072,-277,1255,-2107,3178,120,85,125,125,165,708,404,263
266163,1316,12088,-7647,7880,4026,2072,-277,1255,-2107,3178,129,113,127,127,170,786,610,321
266969,1316,12088,-7647,7880,4026,2072,-277,1255,-2107,3178,129,113,127,127,170,786,610,321
271966,1316,12088,-7647,7880,4026,2072,-277,1255,-2107,3178,129,113,127,127,170,786,610,321
272796,1316,12088,-7647,7880,4026,2072,-277,1255,-2107,3178,129,113,127,127,170,786,610,321
273587,1316,12088,-7647,7880,4026,2072,-277,1255,-2107,3178,129,113,127,127,170,786,610,321
274408,1316,12088,-7647,7880,4026,2072,-277,1255,-2107,3178,129,113,127,127,170,786,610,321
279355,1316,12088,-7647,7880,4026,2072,-277,1255,-2107,3178,129,113,127,127,170,786,610,321
280185,1316,12088,-7647,7880,4026,2072,-277,1255,-2107,3178,129,113,127,127,170,786,610,321
280987,1316,12088,-7647,7880,4026,2072,-277,1255,-2107,3178,129,113,127,127,170,786,610,321
281851,1316,12088,-7647,7880,4026,2072,-277,1255,-2107,3178,129,113,127,127,170,786,610,321
286883,1316,12088,-7647,7880,4026,2072,-277,1255,-2107,3178,129,113,127,127,170,786,610,321
287839,621,11909,-8179,7702,4617,2352,-826,893,-2313,4467,129,113,127,127,170,786,610,321
288611,621,11909,-8179,7702,4617,2352,-826,893,-2313,4467,144,131,147,131,246,803,624,342
289462,621,11909,-8179,7702,4617,2352,-826,893,-2313,4467,144,131,147,131,246,803,624,342
294439,621,11909,-8179,7702,4617,2352,-826,893,-2313,4467,144,131,147,131,246,803,624,342
295261,621,11909,-8179,7702,4617,2352,-826,893,-2313,4467,144,131,147,131,246,803,624,342
296063,621,11909,-8179,7702,4617,2352,-826,893,-2313,4467,144,131,147,131,246,803,624,342
296927,621,11909,-8179,7702,4617,2352,-826,893,-2313,4467,144,131,147,131,246,803,624,342
301845,621,11909,-8179,7702,4617,2352,-826,893,-2313,4467,144,131,147,131,246,803,624,342
302667,621,11909,-8179,7702,4617,2352,-826,893,-2313,4467,144,131,147,131,246,803,624,342
303461,621,11909,-8179,7702,4617,2352,-826,893,-2313,4467,144,131,147,131,246,803,624,342
304288,621,11909,-8179,7702,4617,2352,-826,893,-2313,4467,144,131,147,131,246,803,624,342
309339,621,11909,-8179,7702,4617,2352,-826,893,-2313,4467,144,131,147,131,246,803,624,342
310291,59,11573,-8918,7413,4292,2049,-1035,-538,-2024,5367,144,131,147,131,246,803,624,342
311093,59,11573,-8918,7413,4292,2049,-1035,-538,-2024,5367,151,195,144,128,274,780,624,334
311919,59,11573,-8918,7413,4292,2049,-1035,-538,-2024,5367,151,195,144,128,274,780,624,334
316908,59,11573,-8918,7413,4292,2049,-1035,-538,-2024,5367,151,195,144,128,274,780,624,334
317762,59,11573,-8918,7413,4292,2049,-1035,-538,-2024,5367,151,195,144,128,274,780,624,334
318560,59,11573,-8918,7413,4292,2049,-1035,-538,-2024,5367,151,195,144,128,274,780,624,334
319402,59,11573,-8918,7413,4292,2049,-1035,-538,-2024,5367,151,195,144,128,274,780,624,334
324363,59,11573,-8918,7413,4292,2049,-1035,-538,-2024,5367,151,195,144,128,274,780,624,334
325290,59,11573,-8918,7413,4292,2049,-1035,-538,-2024,5367,151,195,144,128,274,780,624,334
325941,59,11573,-8918,7413,4292,2049,-1035,-538,-2024,5367,151,195,144,128,274,780,624,334
326812,59,11573,-8918,7413,4292,2049,-1035,-538,-2024,5367,151,195,144,128,274,780,624,334
331886,59,11573,-8918,7413,4292,2049,-1035,-538,-2024,5367,151,195,144,128,274,780,624,334
332854,-382,11132,-9766,7000,2819,2003,-1052,-1645,-1914,5874,151,195,144,128,274,780,624,334
333635,-382,11132,-9766,7000,2819,2003,-1052,-1645,-1914,5874,159,228,202,233,271,701,565,280
334501,-382,11132,-9766,7000,2819,2003,-1052,-1645,-1914,5874,151,195,144,128,274,780,624,334
339462,-382,11132,-9766,7000,2819,2003,-1052,-1645,-1914,5874,159,228,202,233,271,701,565,280
340263,-382,11132,-9766,7000,2819,2003,-1052,-1645,-1914,5874,159,228,202,233,271,701,565,280
341090,-382,11132,-9766,7000,2819,2003,-1052,-1645,-1914,5874,159,228,202,233,271,701,565,280
341901,-382,11132,-9766,7000,2819,2003,-1052,-1645,-1914,5874,159,228,202,233,271,701,565,280
346836,-382,11132,-9766,7000,2819,2003,-1052,-1645,-1914,5874,159,228,202,233,271,701,565,280
347635,-382,11132,-9766,7000,2819,2003,-1052,-1645,-1914,5874,159,228,202,233,271,701,565,280
348459,-382,11132,-9766,7000,2819,2003,-1052,-1645,-1914,5874,159,228,202,233,271,701,565,280
349260,-382,11132,-9766,7000,2819,2003,-1052,-1645,-1914,5874,159,228,202,233,271,701,565,280
354354,-382,11132,-9766,7000,2819,2003,-1052,-1645,-1914,5874,159,228,202,233,271,701,565,280
355278,-851,10617,-10650,6447,1800,2161,-1122,-2063,-2322,6323,159,228,202,233,271,701,565,280
356090,-851,10617,-10650,6447,1800,2161,-1122,-2063,-2322,6323,168,234,223,252,278,603,513,275
356951,-851,10617,-10650,6447,1800,2161,-1122,-2063,-2322,6323,168,234,223,252,278,603,513,275
361936,-851,10617,-10650,6447,1800,2161,-1122,-2063,-2322,6323,168,234,223,252,278,603,513,275
362801,-851,10617,-10650,6447,1800,2161,-1122,-2063,-2322,6323,168,234,223,252,278,603,513,275
363561,-851,10617,-10650,6447,1800,2161,-1122,-2063,-2322,6323,168,234,223,252,278,603,513,275
364377,-851,10617,-10650,6447,1800,2161,-1122,-2063,-2322,6323,168,234,223,252,278,603,513,275
369311,-851,10617,-10650,6447,1800,2161,-1122,-2063,-2322,6323,168,234,223,252,278,603,513,275
370113,-851,10617,-10650,6447,1800,2161,-1122,-2063,-2322,6323,168,234,223,252,278,603,513,275
370941,-851,10617,-10650,6447,1800,2161,-1122,-2063,-2322,6323,168,234,223,252,278,603,513,275
371747,-851,10617,-10650,6447,1800,2161,-1122,-2063,-2322,6323,168,234,223,252,278,603,513,275
376864,-851,10617,-10650,6447,1800,2161,-1122,-2063,-2322,6323,168,234,223,252,278,603,513,275
377838,-1325,10106,-11434,5814,1205,2558,-1045,-2091,-2670,5982,168,234,223,252,278,603,513,275
378698,-1325,10106,-11434,5814,1205,2558,-1045,-2091,-2670,5982,165,234,246,275,281,457,240,207
379463,-1325,10106,-11434,5814,1205,2558,-1045,-2091,-2670,5982,165,234,246,275,281,457,240,207
384488,-1325,10106,-11434,5814,1205,2558,-1045,-2091,-2670,5982,165,234,246,275,281,457,240,207
385286,-1325,10106,-11434,5814,1205,2558,-1045,-2091,-2670,5982,165,234,246,275,281,457,240,207
386128,-1325,10106,-11434,5814,1205,2558,-1045,-2091,-2670,5982,165,234,246,275,281,457,240,207
386911,-1325,10106,-11434,5814,1205,2558,-1045,-2091,-2670,5982,165,234,246,275,281,457,240,207
391901,-1325,10106,-11434,5814,1205,2558,-1045,-2091,-2670,5982,165,234,246,275,281,457,240,207
392686,-1325,10106,-11434,5814,1205,2558,-1045,-2091,-2670,5982,165,234,246,275,281,457,240,207
393526,-1325,10106,-11434,5814,1205,2558,-1045,-2091,-2670,5982,165,234,246,275,281,457,240,207
394338,-1325,10106,-11434,5814,1205,2558,-1045,-2091,-2670,5982,165,234,246,275,281,457,240,207
399416,-1325,10106,-11434,5814,1205,2558,-1045,-2091,-2670,5982,165,234,246,275,281,457,240,207
400336,-1784,9597,-12105,5160,702,2696,-1184,-1985,-2726,5546,165,234,246,275,281,457,240,207
401144,-1784,9597,-12105,5160,702,2696,-1184,-1985,-2726,5546,153,228,257,272,212,293,181,173
401941,-1784,9597,-12105,5160,702,2696,-1184,-1985,-2726,5546,153,228,257,272,212,293,181,173
406953,-1784,9597,-12105,5160,702,2696,-1184,-1985,-2726,5546,153,228,257,272,212,293,181,173
407768,-1784,9597,-12105,5160,702,2696,-1184,-1985,-2726,5546,153,228,257,272,212,293,181,173
408586,-1784,9597,-12105,5160,702,2696,-1184,-1985,-2726,5546,153,228,257,272,212,293,181,173
409383,-1784,9597,-12105,5160,702,2696,-1184,-1985,-2726,5546,153,228,257,272,212,293,181,173
414335,-1784,9597,-12105,5160,702,2696,-1184,-1985,-2726,5546,153,228,257,272,212,293,181,173
415184,-1784,9597,-12105,5160,702,2696,-1184,-1985,-2726,5546,153,228,257,272,212,293,181,173
415959,-1784,9597,-12105,5160,702,2696,-1184,-1985,-2726,5546,153,228,257,272,212,293,181,173
416808,-1784,9597,-12105,5160,702,2696,-1184,-1985,-2726,5546,153,228,257,272,212,293,181,173
421859,-1784,9597,-12105,5160,702,2696,-1184,-1985,-2726,5546,153,228,257,272,212,293,181,173
422828,-2262,9132,-12671,4402,1047,2746,-1183,-2198,-3381,5167,153,228,257,272,212,293,181,173
423610,-2262,9132,-12671,4402,1047,2746,-1183,-2198,-3381,5167,140,177,280,317,171,225,156,145
424451,-2262,9132,-12671,4402,1047,2746,-1183,-2198,-3381,5167,140,177,280,317,171,225,156,145
429460,-2262,9132,-12671,4402,1047,2746,-1183,-2198,-3381,5167,140,177,280,317,171,225,156,145
430272,-2262,9132,-12671,4402,1047,2746,-1183,-2198,-3381,5167,140,177,280,317,171,225,156,145
431064,-2262,9132,-12671,4402,1047,2746,-1183,-2198,-3381,5167,140,177,280,317,171,225,156,145
431901,-2262,9132,-12671,4402,1047,2746,-1183,-2198,-3381,5167,140,177,280,317,171,225,156,145
436832,-2262,9132,-12671,4402,1047,2746,-1183,-2198,-3381,5167,140,177,280,317,171,225,156,145
437664,-2262,9132,-12671,4402,1047,2746,-1183,-2198,-3381,5167,140,177,280,317,171,225,156,145
438460,-2262,9132,-12671,4402,1047,2746,-1183,-2198,-3381,5167,140,177,280,317,171,225,156,145
439271,-2262,9132,-12671,4402,1047,2746,-1183,-2198,-3381,5167,140,177,280,317,171,225,156,145
444400,-2262,9132,-12671,4402,1047,2746,-1183,-2198,-3381,5167,140,177,280,317,171,225,156,145
445337,-2744,8847,-12968,3806,1502,2410,-588,-1312,-3467,3466,140,177,280,317,171,225,156,145
446167,-2744,8847,-12968,3806,1502,2410,-588,-1312,-3467,3466,94,125,235,314,139,176,155,117
446967,-2744,8847,-12968,3806,1502,2410,-588,-1312,-3467,3466,94,125,235,314,139,176,155,117
451972,-2744,8847,-12968,3806,1502,2410,-588,-1312,-3467,3466,94,125,235,314,139,176,155,117
452786,-2744,8847,-12968,3806,1502,2410,-588,-1312,-3467,3466,94,125,235,314,139,176,155,117
453613,-2744,8847,-12968,3806,1502,2410,-588,-1312,-3467,3466,94,125,235,314,139,176,155,117
454411,-2744,8847,-12968,3806,1502,2410,-588,-1312,-3467,3466,94,125,235,314,139,176,155,117
459345,-2744,8847,-12968,3806,1502,2410,-588,-1312,-3467,3466,94,125,235,314,139,176,155,117
460187,-2744,8847,-12968,3806,1502,2410,-588,-1312,-3467,3466,94,125,235,314,139,176,155,117
460986,-2744,8847,-12968,3806,1502,2410,-588,-1312,-3467,3466,94,125,235,314,139,176,155,117
461852,-2744,8847,-12968,3806,1502,2410,-588,-1312,-3467,3466,94,125,235,314,139,176,155,117
466864,-2744,8847,-12968,3806,1502,2410,-588,-1312,-3467,3466,94,125,235,314,139,176,155,117
467827,-3143,8746,-13043,3457,1266,2232,-463,-389,-2790,1633,94,125,235,314,139,176,155,117
468620,-3143,8746,-13043,3457,1266,2232,-463,-389,-2790,1633,63,109,236,345,124,114,125,90
469433,-3143,8746,-13043,3457,1266,2232,-463,-389,-2790,1633,63,109,236,345,124,114,125,90
474459,-3143,8746,-13043,3457,1266,2232,-463,-389,-2790,1633,63,109,236,345,124,114,125,90
475270,-3143,8746,-13043,3457,1266,2232,-463,-389,-2790,1633,63,109,236,345,124,114,125,90
476057,-3143,8746,-13043,3457,1266,2232,-463,-389,-2790,1633,63,109,236,345,124,114,125,90
476885,-3143,8746,-13043,3457,1266,2232,-463,-389,-2790,1633,63,109,236,345,124,114,125,90
481853,-3143,8746,-13043,3457,1266,2232,-463,-389,-2790,1633,63,109,236,345,124,114,125,90
482654,-3143,8746,-13043,3457,1266,2232,-463,-389,-2790,1633,63,109,236,345,124,114,125,90
483459,-3143,8746,-13043,3457,1266,2232,-463,-389,-2790,1633,63,109,236,345,124,114,125,90
484316,-3143,8746,-13043,3457,1266,2232,-463,-389,-2790,1633,63,109,236,345,124,114,125,90
489363,-3143,8746,-13043,3457,1266,2232,-463,-389,-2790,1633,63,109,236,345,124,114,125,90
490301,-3182,8823,-12964,3522,1816,2631,217,234,-1045,-3,63,109,236,345,124,114,125,90
491119,-3182,8823,-12964,3522,1816,2631,217,234,-1045,-3,50,80,536,381,106,96,101,70
491969,-3182,8823,-12964,3522,1816,2631,217,234,-1045,-3,50,80,536,381,106,96,101,70
496958,-3182,8823,-12964,3522,1816,2631,217,234,-1045,-3,50,80,536,381,106,96,101,70
497761,-3182,8823,-12964,3522,1816,2631,217,234,-1045,-3,50,80,536,381,106,96,101,70
498563,-3182,8823,-12964,3522,1816,2631,217,234,-1045,-3,50,80,536,381,106,96,101,70
499361,-3182,8823,-12964,3522,1816,2631,217,234,-1045,-3,50,80,536,381,106,96,101,70
504402,-3182,8823,-12964,3522,1816,2631,217,234,-1045,-3,50,80,536,381,106,96,101,70
505262,-3182,8823,-12964,3522,1816,2631,217,234,-1045,-3,50,80,536,381,106,96,101,70
505953,-3182,8823,-12964,3522,1816,2631,217,234,-1045,-3,50,80,536,381,106,96,101,70
506811,-3182,8823,-12964,3522,1816,2631,217,234,-1045,-3,50,80,536,381,106,96,101,70
511926,-3182,8823,-12964,3522,1816,2631,217,234,-1045,-3,50,80,536,381,106,96,101,70
512813,-2997,9036,-12758,3878,2241,2285,35,767,372,-1456,50,80,536,381,106,96,101,70
513660,-2997,9036,-12758,3878,2241,2285,35,767,372,-1456,58,99,816,386,120,99,218,85
514435,-2997,9036,-12758,3878,2241,2285,35,767,372,-1456,58,99,816,386,120,99,218,85
519488,-2997,9036,-12758,3878,2241,2285,35,767,372,-1456,58,99,816,386,120,99,218,85
520260,-2997,9036,-12758,3878,2241,2285,35,767,372,-1456,58,99,816,386,120,99,218,85
521130,-2997,9036,-12758,3878,2241,2285,35,767,372,-1456,58,99,816,386,120,99,218,85
521911,-2997,9036,-12758,3878,2241,2285,35,767,372,-1456,58,99,816,386,120,99,218,85
526848,-2997,9036,-12758,3878,2241,2285,35,767,372,-1456,58,99,816,386,120,99,218,85
527660,-2997,9036,-12758,3878,2241,2285,35,767,372,-1456,58,99,816,386,120,99,218,85
528514,-2997,9036,-12758,3878,2241,2285,35,767,372,-1456,58,99,816,386,120,99,218,85
529308,-2997,9036,-12758,3878,2241,2285,35,767,372,-1456,58,99,816,386,120,99,218,85
534389,-2997,9036,-12758,3878,2241,2285,35,767,372,-1456,58,99,816,386,120,99,218,85
535288,-3022,9341,-12420,4217,2310,1207,-905,1595,-63,-2508,58,99,816,386,120,99,218,85
536144,-3022,9341,-12420,4217,2310,1207,-905,1595,-63,-2508,86,106,994,371,179,465,648,175
536938,-3022,9341,-12420,4217,2310,1207,-905,1595,-63,-2508,86,106,994,371,179,465,648,175
541962,-3022,9341,-12420,4217,2310,1207,-905,1595,-63,-2508,86,106,994,371,179,465,648,175
542736,-3022,9341,-12420,4217,2310,1207,-905,1595,-63,-2508,86,106,994,371,179,465,648,175
543552,-3022,9341,-12420,4217,2310,1207,-905,1595,-63,-2508,86,106,994,371,179,465,648,175
544360,-3022,9341,-12420,4217,2310,1207,-905,1595,-63,-2508,86,106,994,371,179,465,648,175
549310,-3022,9341,-12420,4217,2310,1207,-905,1595,-63,-2508,86,106,994,371,179,465,648,175
550112,-3022,9341,-12420,4217,2310,1207,-905,1595,-63,-2508,86,106,994,371,179,465,648,175
550940,-3022,9341,-12420,4217,2310,1207,-905,1595,-63,-2508,86,106,994,371,179,465,648,175
551735,-3022,9341,-12420,4217,2310,1207,-905,1595,-63,-2508,86,106,994,371,179,465,648,175
556842,-3022,9341,-12420,4217,2310,1207,-905,1595,-63,-2508,86,106,994,371,179,465,648,175
557763,-3286,9541,-11988,4785,2788,937,-1183,3670,-39,-2438,86,106,994,371,179,465,648,175
558625,-3286,9541,-11988,4785,2788,937,-1183,3670,-39,-2438,100,121,1006,314,217,695,886,217
559432,-3286,9541,-11988,4785,2788,937,-1183,3670,-39,-2438,100,121,1006,314,217,695,886,217
564424,-3286,9541,-11988,4785,2788,937,-1183,3670,-39,-2438,100,121,1006,314,217,695,886,217
565265,-3286,9541,-11988,4785,2788,937,-1183,3670,-39,-2438,100,121,1006,314,217,695,886,217
566036,-3286,9541,-11988,4785,2788,937,-1183,3670,-39,-2438,100,121,1006,314,217,695,886,217
566858,-3286,9541,-11988,4785,2788,937,-1183,3670,-39,-2438,100,121,1006,314,217,695,886,217
571868,-3286,9541,-11988,4785,2788,937,-1183,3670,-39,-2438,100,121,1006,314,217,695,886,217
572673,-3286,9541,-11988,4785,2788,937,-1183,3670,-39,-2438,100,121,1006,314,217,695,886,217
573462,-3286,9541,-11988,4785,2788,937,-1183,3670,-39,-2438,100,121,1006,314,217,695,886,217
574285,-3286,9541,-11988,4785,2788,937,-1183,3670,-39,-2438,100,121,1006,314,217,695,886,217
579371,-3286,9541,-11988,4785,2788,937,-1183,3670,-39,-2438,100,121,1006,314,217,695,886,217
580314,-3720,9590,-11449,5619,2746,1434,-2617,5663,254,-2187,100,121,1006,314,217,695,886,217
581139,-3720,9590,-11449,5619,2746,1434,-2617,5663,254,-2187,112,132,1012,275,273,811,933,251
581963,-3720,9590,-11449,5619,2746,1434,-2617,5663,254,-2187,112,132,1012,275,273,811,933,251
586952,-3720,9590,-11449,5619,2746,1434,-2617,5663,254,-2187,112,132,1012,275,273,811,933,251
587761,-3720,9590,-11449,5619,2746,1434,-2617,5663,254,-2187,112,132,1012,275,273,811,933,251
588626,-3720,9590,-11449,5619,2746,1434,-2617,5663,254,-2187,112,132,1012,275,273,811,933,251
589385,-3720,9590,-11449,5619,2746,1434,-2617,5663,254,-2187,112,132,1012,275,273,811,933,251
594375,-3720,9590,-11449,5619,2746,1434,-2617,5663,254,-2187,112,132,1012,275,273,811,933,251
595185,-3720,9590,-11449,5619,2746,1434,-2617,5663,254,-2187,112,132,1012,275,273,811,933,251
595988,-3720,9590,-11449,5619,2746,1434,-2617,5663,254,-2187,112,132,1012,275,273,811,933,251
596786,-3720,9590,-11449,5619,2746,1434,-2617,5663,254,-2187,112,132,1012,275,273,811,933,251
601900,-3720,9590,-11449,5619,2746,1434,-2617,5663,254,-2187,112,132,1012,275,273,811,933,251
602788,-4566,9364,-10938,6345,2304,1504,-3402,6895,-1148,-89,112,132,1012,275,273,811,933,251
603638,-4566,9364,-10938,6345,2304,1504,-3402,6895,-1148,-89,122,137,884,202,284,858,984,262
604411,-4566,9364,-10938,6345,2304,1504,-3402,6895,-1148,-89,112,132,1012,275,273,811,933,251
609475,-4566,9364,-10938,6345,2304,1504,-3402,6895,-1148,-89,122,137,884,202,284,858,984,262
610259,-4566,9364,-10938,6345,2304,1504,-3402,6895,-1148,-89,122,137,884,202,284,858,984,262
611086,-4566,9364,-10938,6345,2304,1504,-3402,6895,-1148,-89,122,137,884,202,284,858,984,262
611861,-4566,9364,-10938,6345,2304,1504,-3402,6895,-1148,-89,122,137,884,202,284,858,984,262
616830,-4566,9364,-10938,6345,2304,1504,-3402,6895,-1148,-89,122,137,884,202,284,858,984,262
617638,-4566,9364,-10938,6345,2304,1504,-3402,6895,-1148,-89,122,137,884,202,284,858,984,262
618477,-4566,9364,-10938,6345,2304,1504,-3402,6895,-1148,-89,122,137,884,202,284,858,984,262
619260,-4566,9364,-10938,6345,2304,1504,-3402,6895,-1148,-89,122,137,884,202,284,858,984,262
624425,-4566,9364,-10938,6345,2304,1504,-3402,6895,-1148,-89,122,137,884,202,284,858,984,262
625338,-5829,8913,-10644,6460,253,2617,-2543,5835,-3844,3313,122,137,884,202,284,858,984,262
626182,-5829,8913,-10644,6460,253,2617,-2543,5835,-3844,3313,121,130,731,188,343,864,978,264
626967,-5829,8913,-10644,6460,253,2617,-2543,5835,-3844,3313,121,130,731,188,343,864,978,264
631924,-5829,8913,-10644,6460,253,2617,-2543,5835,-3844,3313,121,130,731,188,343,864,978,264
632711,-5829,8913,-10644,6460,253,2617,-2543,5835,-3844,3313,121,130,731,188,343,864,978,264
633537,-5829,8913,-10644,6460,253,2617,-2543,5835,-3844,3313,121,130,731,188,343,864,978,264
634338,-5829,8913,-10644,6460,253,2617,-2543,5835,-3844,3313,121,130,731,188,343,864,978,264
639386,-5829,8913,-10644,6460,253,2617,-2543,5835,-3844,3313,121,130,731,188,343,864,978,264
640163,-5829,8913,-10644,6460,253,2617,-2543,5835,-3844,3313,121,130,731,188,343,864,978,264
640976,-5829,8913,-10644,6460,253,2617,-2543,5835,-3844,3313,121,130,731,188,343,864,978,264
641785,-5829,8913,-10644,6460,253,2617,-2543,5835,-3844,3313,121,130,731,188,343,864,978,264
646862,-5829,8913,-10644,6460,253,2617,-2543,5835,-3844,3313,121,130,731,188,343,864,978,264
647841,-6845,8572,-10548,6071,4082,5336,-15,2570,-4327,3973,121,130,731,188,343,864,978,264
648611,-6845,8572,-10548,6071,4082,5336,-15,2570,-4327,3973,105,136,731,593,684,742,770,216
649476,-6845,8572,-10548,6071,4082,5336,-15,2570,-4327,3973,105,136,731,593,684,742,770,216
654436,-6845,8572,-10548,6071,4082,5336,-15,2570,-4327,3973,105,136,731,593,684,742,770,216
655286,-6845,8572,-10548,6071,4082,5336,-15,2570,-4327,3973,105,136,731,593,684,742,770,216
656063,-6845,8572,-10548,6071,4082,5336,-15,2570,-4327,3973,105,136,731,593,684,742,770,216
656884,-6845,8572,-10548,6071,4082,5336,-15,2570,-4327,3973,105,136,731,593,684,742,770,216
661834,-6845,8572,-10548,6071,4082,5336,-15,2570,-4327,3973,105,136,731,593,684,742,770,216
662675,-6845,8572,-10548,6071,4082,5336,-15,2570,-4327,3973,105,136,731,593,684,742,770,216
663460,-6845,8572,-10548,6071,4082,5336,-15,2570,-4327,3973,105,136,731,593,684,742,770,216
664327,-6845,8572,-10548,6071,4082,5336,-15,2570,-4327,3973,105,136,731,593,684,742,770,216
669362,-6845,8572,-10548,6071,4082,5336,-15,2570,-4327,3973,105,136,731,593,684,742,770,216
670316,-6751,8265,-11061,5676,3509,4125,566,-2046,1015,3336,105,136,731,593,684,742,770,216
671094,-6751,8265,-11061,5676,3509,4125,566,-2046,1015,3336,95,133,1084,912,920,545,489,175
671949,-6751,8265,-11061,5676,3509,4125,566,-2046,1015,3336,95,133,1084,912,920,545,489,175
676920,-6751,8265,-11061,5676,3509,4125,566,-2046,1015,3336,95,133,1084,912,920,545,489,175
677743,-6751,8265,-11061,5676,3509,4125,566,-2046,1015,3336,95,133,1084,912,920,545,489,175
678520,-6751,8265,-11061,5676,3509,4125,566,-2046,1015,3336,95,133,1084,912,920,545,489,175
679396,-6751,8265,-11061,5676,3509,4125,566,-2046,1015,3336,95,133,1084,912,920,545,489,175
684317,-6751,8265,-11061,5676,3509,4125,566,-2046,1015,3336,95,133,1084,912,920,545,489,175
685136,-6751,8265,-11061,5676,3509,4125,566,-2046,1015,3336,95,133,1084,912,920,545,489,175
685949,-6751,8265,-11061,5676,3509,4125,566,-2046,1015,3336,95,133,1084,912,920,545,489,175
686782,-6751,8265,-11061,5676,3509,4125,566,-2046,1015,3336,95,133,1084,912,920,545,489,175
691885,-6751,8265,-11061,5676,3509,4125,566,-2046,1015,3336,95,133,1084,912,920,545,489,175
692826,-6371,7945,-11658,5369,2874,2921,522,-2652,2571,2871,95,133,1084,912,920,545,489,175
693637,-6371,7945,-11658,5369,2874,2921,522,-2652,2571,2871,115,208,1093,947,920,352,397,128
694438,-6371,7945,-11658,5369,2874,2921,522,-2652,2571,2871,115,208,1093,947,920,352,397,128
699463,-6371,7945,-11658,5369,2874,2921,522,-2652,2571,2871,115,208,1093,947,920,352,397,128
700258,-6371,7945,-11658,5369,2874,2921,522,-2652,2571,2871,115,208,1093,947,920,352,397,128
701089,-6371,7945,-11658,5369,2874,2921,522,-2652,2571,2871,115,208,1093,947,920,352,397,128
701899,-6371,7945,-11658,5369,2874,2921,522,-2652,2571,2871,115,208,1093,947,920,352,397,128
706835,-6371,7945,-11658,5369,2874,2921,522,-2652,2571,2871,115,208,1093,947,920,352,397,128
707700,-6371,7945,-11658,5369,2874,2921,522,-2652,2571,2871,115,208,1093,947,920,352,397,128
708486,-6371,7945,-11658,5369,2874,2921,522,-2652,2571,2871,115,208,1093,947,920,352,397,128
709301,-6371,7945,-11658,5369,2874,2921,522,-2652,2571,2871,115,208,1093,947,920,352,397,128
714377,-6371,7945,-11658,5369,2874,2921,522,-2652,2571,2871,115,208,1093,947,920,352,397,128
715315,-5946,7453,-12165,5437,1214,3369,-315,-557,3739,2554,115,208,1093,947,920,352,397,128
716115,-5946,7453,-12165,5437,1214,3369,-315,-557,3739,2554,107,209,1115,959,933,220,251,108
716958,-5946,7453,-12165,5437,1214,3369,-315,-557,3739,2554,107,209,1115,959,933,220,251,108
721939,-5946,7453,-12165,5437,1214,3369,-315,-557,3739,2554,107,209,1115,959,933,220,251,108
722756,-5946,7453,-12165,5437,1214,3369,-315,-557,3739,2554,107,209,1115,959,933,220,251,108
723560,-5946,7453,-12165,5437,1214,3369,-315,-557,3739,2554,107,209,1115,959,933,220,251,108
724407,-5946,7453,-12165,5437,1214,3369,-315,-557,3739,2554,107,209,1115,959,933,220,251,108
729336,-5946,7453,-12165,5437,1214,3369,-315,-557,3739,2554,107,209,1115,959,933,220,251,108
730138,-5946,7453,-12165,5437,1214,3369,-315,-557,3739,2554,107,209,1115,959,933,220,251,108
730942,-5946,7453,-12165,5437,1214,3369,-315,-557,3739,2554,107,209,1115,959,933,220,251,108
731800,-5946,7453,-12165,5437,1214,3369,-315,-557,3739,2554,107,209,1115,959,933,220,251,108
736836,-5946,7453,-12165,5437,1214,3369,-315,-557,3739,2554,107,209,1115,959,933,220,251,108
737804,-5562,7154,-12636,5163,513,3552,-758,-2154,2295,2355,107,209,1115,959,933,220,251,108
738586,-5562,7154,-12636,5163,513,3552,-758,-2154,2295,2355,103,221,1063,962,914,193,186,87
739437,-5562,7154,-12636,5163,513,3552,-758,-2154,2295,2355,103,221,1063,962,914,193,186,87
744410,-5562,7154,-12636,5163,513,3552,-758,-2154,2295,2355,103,221,1063,962,914,193,186,87
745288,-5562,7154,-12636,5163,513,3552,-758,-2154,2295,2355,103,221,1063,962,914,193,186,87
746038,-5562,7154,-12636,5163,513,3552,-758,-2154,2295,2355,103,221,1063,962,914,193,186,87
746902,-5562,7154,-12636,5163,513,3552,-758,-2154,2295,2355,103,221,1063,962,914,193,186,87
751883,-5562,7154,-12636,5163,513,3552,-758,-2154,2295,2355,103,221,1063,962,914,193,186,87
752697,-5562,7154,-12636,5163,513,3552,-758,-2154,2295,2355,103,221,1063,962,914,193,186,87
753485,-5562,7154,-12636,5163,513,3552,-758,-2154,2295,2355,103,221,1063,962,914,193,186,87
754337,-5562,7154,-12636,5163,513,3552,-758,-2154,2295,2355,103,221,1063,962,914,193,186,87
759359,-5562,7154,-12636,5163,513,3552,-758,-2154,2295,2355,103,221,1063,962,914,193,186,87
760339,-5193,7242,-12884,4799,869,3648,-1112,-2827,862,366,103,221,1063,962,914,193,186,87
761115,-5193,7242,-12884,4799,869,3648,-1112,-2827,862,366,114,250,907,778,684,157,160,81
761983,-5193,7242,-12884,4799,869,3648,-1112,-2827,862,366,114,250,907,778,684,157,160,81
766937,-5193,7242,-12884,4799,869,3648,-1112,-2827,862,366,114,250,907,778,684,157,160,81
767759,-5193,7242,-12884,4799,869,3648,-1112,-2827,862,366,114,250,907,778,684,157,160,81
768583,-5193,7242,-12884,4799,869,3648,-1112,-2827,862,366,114,250,907,778,684,157,160,81
769426,-5193,7242,-12884,4799,869,3648,-1112,-2827,862,366,114,250,907,778,684,157,160,81
774339,-5193,7242,-12884,4799,869,3648,-1112,-2827,862,366,114,250,907,778,684,157,160,81
775182,-5193,7242,-12884,4799,869,3648,-1112,-2827,862,366,114,250,907,778,684,157,160,81
775978,-5193,7242,-12884,4799,869,3648,-1112,-2827,862,366,114,250,907,778,684,157,160,81
776785,-5193,7242,-12884,4799,869,3648,-1112,-2827,862,366,114,250,907,778,684,157,160,81
781903,-5193,7242,-12884,4799,869,3648,-1112,-2827,862,366,114,250,907,778,684,157,160,81
782789,-4727,7669,-12954,4412,612,3295,-1074,-3537,385,-1703,114,250,907,778,684,157,160,81
783614,-4727,7669,-12954,4412,612,3295,-1074,-3537,385,-1703,131,247,421,846,264,105,116,75
784411,-4727,7669,-12954,4412,612,3295,-1074,-3537,385,-1703,131,247,421,846,264,105,116,75
789412,-4727,7669,-12954,4412,612,3295,-1074,-3537,385,-1703,131,247,421,846,264,105,116,75
790270,-4727,7669,-12954,4412,612,3295,-1074,-3537,385,-1703,131,247,421,846,264,105,116,75
791063,-4727,7669,-12954,4412,612,3295,-1074,-3537,385,-1703,131,247,421,846,264,105,116,75
791902,-4727,7669,-12954,4412,612,3295,-1074,-3537,385,-1703,131,247,421,846,264,105,116,75
796835,-4727,7669,-12954,4412,612,3295,-1074,-3537,385,-1703,131,247,421,846,264,105,116,75
797676,-4727,7669,-12954,4412,612,3295,-1074,-3537,385,-1703,131,247,421,846,264,105,116,75
798458,-4727,7669,-12954,4412,612,3295,-1074,-3537,385,-1703,131,247,421,846,264,105,116,75
799272,-4727,7669,-12954,4412,612,3295,-1074,-3537,385,-1703,131,247,421,846,264,105,116,75
804336,-4727,7669,-12954,4412,612,3295,-1074,-3537,385,-1703,131,247,421,846,264,105,116,75
805287,-4315,8266,-12820,4141,495,3002,-621,-2939,-107,-3112,131,247,421,846,264,105,116,75
806091,-4315,8266,-12820,4141,495,3002,-621,-2939,-107,-3112,106,185,459,1072,206,166,113,73
806876,-4315,8266,-12820,4141,495,3002,-621,-2939,-107,-3112,106,185,459,1072,206,166,113,73
811891,-4315,8266,-12820,4141,495,3002,-621,-2939,-107,-3112,106,185,459,1072,206,166,113,73
812685,-4315,8266,-12820,4141,495,3002,-621,-2939,-107,-3112,106,185,459,1072,206,166,113,73
813510,-4315,8266,-12820,4141,495,3002,-621,-2939,-107,-3112,106,185,459,1072,206,166,113,73
814310,-4315,8266,-12820,4141,495,3002,-621,-2939,-107,-3112,106,185,459,1072,206,166,113,73
819353,-4315,8266,-12820,4141,495,3002,-621,-2939,-107,-3112,106,185,459,1072,206,166,113,73
820153,-4315,8266,-12820,4141,495,3002,-621,-2939,-107,-3112,106,185,459,1072,206,166,113,73
820959,-4315,8266,-12820,4141,495,3002,-621,-2939,-107,-3112,106,185,459,1072,206,166,113,73
821760,-4315,8266,-12820,4141,495,3002,-621,-2939,-107,-3112,106,185,459,1072,206,166,113,73
826853,-4315,8266,-12820,4141,495,3002,-621,-2939,-107,-3112,106,185,459,1072,206,166,113,73
827802,-3965,8640,-12667,4198,2428,1062,88,-1072,939,-2648,106,185,459,1072,206,166,113,73
828584,-3965,8640,-12667,4198,2428,1062,88,-1072,939,-2648,136,224,436,1309,159,361,412,202
829409,-3965,8640,-12667,4198,2428,1062,88,-1072,939,-2648,136,224,436,1309,159,361,412,202
834417,-3965,8640,-12667,4198,2428,1062,88,-1072,939,-2648,136,224,436,1309,159,361,412,202
835300,-3965,8640,-12667,4198,2428,1062,88,-1072,939,-2648,136,224,436,1309,159,361,412,202
836085,-3965,8640,-12667,4198,2428,1062,88,-1072,939,-2648,136,224,436,1309,159,361,412,202
836913,-3965,8640,-12667,4198,2428,1062,88,-1072,939,-2648,136,224,436,1309,159,361,412,202
841840,-3965,8640,-12667,4198,2428,1062,88,-1072,939,-2648,136,224,436,1309,159,361,412,202
842632,-3965,8640,-12667,4198,2428,1062,88,-1072,939,-2648,136,224,436,1309,159,361,412,202
843435,-3965,8640,-12667,4198,2428,1062,88,-1072,939,-2648,136,224,436,1309,159,361,412,202
844260,-3965,8640,-12667,4198,2428,1062,88,-1072,939,-2648,136,224,436,1309,159,361,412,202
849337,-3965,8640,-12667,4198,2428,1062,88,-1072,939,-2648,136,224,436,1309,159,361,412,202
850316,-3682,8920,-12478,4428,2626,1318,114,51,1245,-2486,136,224,436,1309,159,361,412,202
851112,-3682,8920,-12478,4428,2626,1318,114,51,1245,-2486,149,231,422,1392,205,600,660,320
851951,-3682,8920,-12478,4428,2626,1318,114,51,1245,-2486,149,231,422,1392,205,600,660,320
856910,-3682,8920,-12478,4428,2626,1318,114,51,1245,-2486,149,231,422,1392,205,600,660,320
857765,-3682,8920,-12478,4428,2626,1318,114,51,1245,-2486,149,231,422,1392,205,600,660,320
858535,-3682,8920,-12478,4428,2626,1318,114,51,1245,-2486,149,231,422,1392,205,600,660,320
859401,-3682,8920,-12478,4428,2626,1318,114,51,1245,-2486,149,231,422,1392,205,600,660,320
864310,-3682,8920,-12478,4428,2626,1318,114,51,1245,-2486,149,231,422,1392,205,600,660,320
865141,-3682,8920,-12478,4428,2626,1318,114,51,1245,-2486,149,231,422,1392,205,600,660,320
865940,-3682,8920,-12478,4428,2626,1318,114,51,1245,-2486,149,231,422,1392,205,600,660,320
866800,-3682,8920,-12478,4428,2626,1318,114,51,1245,-2486,149,231,422,1392,205,600,660,320
871899,-3682,8920,-12478,4428,2626,1318,114,51,1245,-2486,149,231,422,1392,205,600,660,320
872839,-3527,9125,-12134,5050,2268,853,-730,2442,1813,-2945,149,231,422,1392,205,600,660,320
873637,-3527,9125,-12134,5050,2268,853,-730,2442,1813,-2945,162,198,401,1409,282,925,919,489
874437,-3527,9125,-12134,5050,2268,853,-730,2442,1813,-2945,162,198,401,1409,282,925,919,489
879454,-3527,9125,-12134,5050,2268,853,-730,2442,1813,-2945,162,198,401,1409,282,925,919,489
880261,-3527,9125,-12134,5050,2268,853,-730,2442,1813,-2945,162,198,401,1409,282,925,919,489
881129,-3527,9125,-12134,5050,2268,853,-730,2442,1813,-2945,162,198,401,1409,282,925,919,489
881886,-3527,9125,-12134,5050,2268,853,-730,2442,1813,-2945,162,198,401,1409,282,925,919,489
886845,-3527,9125,-12134,5050,2268,853,-730,2442,1813,-2945,162,198,401,1409,282,925,919,489
887684,-3527,9125,-12134,5050,2268,853,-730,2442,1813,-2945,162,198,401,1409,282,925,919,489
888487,-3527,9125,-12134,5050,2268,853,-730,2442,1813,-2945,162,198,401,1409,282,925,919,489
889312,-3527,9125,-12134,5050,2268,853,-730,2442,1813,-2945,162,198,401,1409,282,925,919,489
894360,-3527,9125,-12134,5050,2268,853,-730,2442,1813,-2945,162,198,401,1409,282,925,919,489
895286,-3731,9113,-11688,5903,1578,1231,-2458,4961,1304,-2020,162,198,401,1409,282,925,919,489
896115,-3731,9113,-11688,5903,1578,1231,-2458,4961,1304,-2020,168,199,436,1223,327,1019,984,540
896953,-3731,9113,-11688,5903,1578,1231,-2458,4961,1304,-2020,168,199,436,1223,327,1019,984,540
901936,-3731,9113,-11688,5903,1578,1231,-2458,4961,1304,-2020,168,199,436,1223,327,1019,984,540
902765,-3731,9113,-11688,5903,1578,1231,-2458,4961,1304,-2020,168,199,436,1223,327,1019,984,540
903560,-3731,9113,-11688,5903,1578,1231,-2458,4961,1304,-2020,168,199,436,1223,327,1019,984,540
904412,-3731,9113,-11688,5903,1578,1231,-2458,4961,1304,-2020,168,199,436,1223,327,1019,984,540
909310,-3731,9113,-11688,5903,1578,1231,-2458,4961,1304,-2020,168,199,436,1223,327,1019,984,540
910165,-3731,9113,-11688,5903,1578,1231,-2458,4961,1304,-2020,168,199,436,1223,327,1019,984,540
910941,-3731,9113,-11688,5903,1578,1231,-2458,4961,1304,-2020,168,199,436,1223,327,1019,984,540
911800,-3731,9113,-11688,5903,1578,1231,-2458,4961,1304,-2020,168,199,436,1223,327,1019,984,540
916836,-3731,9113,-11688,5903,1578,1231,-2458,4961,1304,-2020,168,199,436,1223,327,1019,984,540
917770,-4395,8980,-11229,6510,150,976,-3118,5594,-1082,-333,168,199,436,1223,327,1019,984,540
918581,-4395,8980,-11229,6510,150,976,-3118,5594,-1082,-333,168,199,365,1009,336,1030,985,544
919680,-4395,8980,-11229,6510,150,976,-3118,5594,-1082,-333,168,199,365,1009,336,1030,985,544
924439,-4395,8980,-11229,6510,150,976,-3118,5594,-1082,-333,168,199,365,1009,336,1030,985,544
925271,-4395,8980,-11229,6510,150,976,-3118,5594,-1082,-333,168,199,365,1009,336,1030,985,544
926083,-4395,8980,-11229,6510,150,976,-3118,5594,-1082,-333,168,199,365,1009,336,1030,985,544
926903,-4395,8980,-11229,6510,150,976,-3118,5594,-1082,-333,168,199,365,1009,336,1030,985,544
931878,-4395,8980,-11229,6510,150,976,-3118,5594,-1082,-333,168,199,365,1009,336,1030,985,544
932617,-4395,8980,-11229,6510,150,976,-3118,5594,-1082,-333,168,199,365,1009,336,1030,985,544
933430,-4395,8980,-11229,6510,150,976,-3118,5594,-1082,-333,168,199,365,1009,336,1030,985,544
934298,-4395,8980,-11229,6510,150,976,-3118,5594,-1082,-333,168,199,365,1009,336,1030,985,544
939371,-4395,8980,-11229,6510,150,976,-3118,5594,-1082,-333,168,199,365,1009,336,1030,985,544
940325,-5428,8868,-10842,6541,-937,2759,-906,4566,-4144,1400,168,199,365,1009,336,1030,985,544
941157,-5428,8868,-10842,6541,-937,2759,-906,4566,-4144,1400,144,160,572,687,482,993,915,511
941942,-5428,8868,-10842,6541,-937,2759,-906,4566,-4144,1400,144,160,572,687,482,993,915,511
946915,-5428,8868,-10842,6541,-937,2759,-906,4566,-4144,1400,144,160,572,687,482,993,915,511
947769,-5428,8868,-10842,6541,-937,2759,-906,4566,-4144,1400,144,160,572,687,482,993,915,511
948607,-5428,8868,-10842,6541,-937,2759,-906,4566,-4144,1400,144,160,572,687,482,993,915,511
949427,-5428,8868,-10842,6541,-937,2759,-906,4566,-4144,1400,144,160,572,687,482,993,915,511
954337,-5428,8868,-10842,6541,-937,2759,-906,4566,-4144,1400,144,160,572,687,482,993,915,511
955182,-5428,8868,-10842,6541,-937,2759,-906,4566,-4144,1400,144,160,572,687,482,993,915,511
955980,-5428,8868,-10842,6541,-937,2759,-906,4566,-4144,1400,144,160,572,687,482,993,915,511
956826,-5428,8868,-10842,6541,-937,2759,-906,4566,-4144,1400,144,160,572,687,482,993,915,511
961837,-5428,8868,-10842,6541,-937,2759,-906,4566,-4144,1400,144,160,572,687,482,993,915,511
962790,-5997,8649,-10911,6214,4966,4801,859,765,-2485,2898,144,160,572,687,482,993,915,511
963612,-5997,8649,-10911,6214,4966,4801,859,765,-2485,2898,137,155,816,839,879,874,759,448
964421,-5997,8649,-10911,6214,4966,4801,859,765,-2485,2898,137,155,816,839,879,874,759,448
969408,-5997,8649,-10911,6214,4966,4801,859,765,-2485,2898,137,155,816,839,879,874,759,448
970292,-5997,8649,-10911,6214,4966,4801,859,765,-2485,2898,137,155,816,839,879,874,759,448
971044,-5997,8649,-10911,6214,4966,4801,859,765,-2485,2898,137,155,816,839,879,874,759,448
971859,-5997,8649,-10911,6214,4966,4801,859,765,-2485,2898,137,155,816,839,879,874,759,448
976842,-5997,8649,-10911,6214,4966,4801,859,765,-2485,2898,137,155,816,839,879,874,759,448
977637,-5997,8649,-10911,6214,4966,4801,859,765,-2485,2898,137,155,816,839,879,874,759,448
978422,-5997,8649,-10911,6214,4966,4801,859,765,-2485,2898,137,155,816,839,879,874,759,448
979262,-5997,8649,-10911,6214,4966,4801,859,765,-2485,2898,137,155,816,839,879,874,759,448
984342,-5997,8649,-10911,6214,4966,4801,859,765,-2485,2898,137,155,816,839,879,874,759,448
985261,-5557,8383,-11413,6085,1692,3565,503,-2184,2737,2003,137,155,816,839,879,874,759,448
986078,-5557,8383,-11413,6085,1692,3565,503,-2184,2737,2003,123,179,981,1038,1047,535,413,259
986886,-5557,8383,-11413,6085,1692,3565,503,-2184,2737,2003,123,179,981,1038,1047,535,413,259
991927,-5557,8383,-11413,6085,1692,3565,503,-2184,2737,2003,123,179,981,1038,1047,535,413,259
992711,-5557,8383,-11413,6085,1692,3565,503,-2184,2737,2003,123,179,981,1038,1047,535,413,259
993575,-5557,8383,-11413,6085,1692,3565,503,-2184,2737,2003,123,179,981,1038,1047,535,413,259
994336,-5557,8383,-11413,6085,1692,3565,503,-2184,2737,2003,123,179,981,1038,1047,535,413,259
999402,-5557,8383,-11413,6085,1692,3565,503,-2184,2737,2003,123,179,981,1038,1047,535,413,259
1000166,-5557,8383,-11413,6085,1692,3565,503,-2184,2737,2003,123,179,981,1038,1047,535,413,259
1000988,-5557,8383,-11413,6085,1692,3565,503,-2184,2737,2003,123,179,981,1038,1047,535,413,259
1001791,-5557,8383,-11413,6085,1692,3565,503,-2184,2737,2003,123,179,981,1038,1047,535,413,259
1006853,-5557,8383,-11413,6085,1692,3565,503,-2184,2737,2003,123,179,981,1038,1047,535,413,259
1007809,-4810,8289,-11950,5814,2187,3213,56,-4008,3181,1123,123,179,981,1038,1047,535,413,259
1008607,-4810,8289,-11950,5814,2187,3213,56,-4008,3181,1123,156,214,993,1030,1100,338,236,139
1009462,-4810,8289,-11950,5814,2187,3213,56,-4008,3181,1123,156,214,993,1030,1100,338,236,139
1014429,-4810,8289,-11950,5814,2187,3213,56,-4008,3181,1123,156,214,993,1030,1100,338,236,139
1015291,-4810,8289,-11950,5814,2187,3213,56,-4008,3181,1123,156,214,993,1030,1100,338,236,139
1016084,-4810,8289,-11950,5814,2187,3213,56,-4008,3181,1123,156,214,993,1030,1100,338,236,139
1016918,-4810,8289,-11950,5814,2187,3213,56,-4008,3181,1123,156,214,993,1030,1100,338,236,139
1021860,-4810,8289,-11950,5814,2187,3213,56,-4008,3181,1123,156,214,993,1030,1100,338,236,139
1022678,-4810,8289,-11950,5814,2187,3213,56,-4008,3181,1123,156,214,993,1030,1100,338,236,139
1023461,-4810,8289,-11950,5814,2187,3213,56,-4008,3181,1123,156,214,993,1030,1100,338,236,139
1024272,-4810,8289,-11950,5814,2187,3213,56,-4008,3181,1123,156,214,993,1030,1100,338,236,139
1029336,-4810,8289,-11950,5814,2187,3213,56,-4008,3181,1123,156,214,993,1030,1100,338,236,139
1030314,-4094,8052,-12458,5625,272,2811,-616,-3284,3663,1323,156,214,993,1030,1100,338,236,139
1031091,-4094,8052,-12458,5625,272,2811,-616,-3284,3663,1323,171,232,991,1026,1117,273,228,118
1031902,-4094,8052,-12458,5625,272,2811,-616,-3284,3663,1323,171,232,991,1026,1117,273,228,118
1036887,-4094,8052,-12458,5625,272,2811,-616,-3284,3663,1323,171,232,991,1026,1117,273,228,118
1037721,-4094,8052,-12458,5625,272,2811,-616,-3284,3663,1323,171,232,991,1026,1117,273,228,118
1038526,-4094,8052,-12458,5625,272,2811,-616,-3284,3663,1323,171,232,991,1026,1117,273,228,118
1039351,-4094,8052,-12458,5625,272,2811,-616,-3284,3663,1323,171,232,991,1026,1117,273,228,118
1044285,-4094,8052,-12458,5625,272,2811,-616,-3284,3663,1323,171,232,991,1026,1117,273,228,118
1045093,-4094,8052,-12458,5625,272,2811,-616,-3284,3663,1323,171,232,991,1026,1117,273,228,118
1045910,-4094,8052,-12458,5625,272,2811,-616,-3284,3663,1323,171,232,991,1026,1117,273,228,118
1046735,-4094,8052,-12458,5625,272,2811,-616,-3284,3663,1323,171,232,991,1026,1117,273,228,118
1051827,-4094,8052,-12458,5625,272,2811,-616,-3284,3663,1323,171,232,991,1026,1117,273,228,118
1052763,-3526,8036,-12865,5092,164,2675,-687,-4502,1529,867,171,232,991,1026,1117,273,228,118
1053558,-3526,8036,-12865,5092,164,2675,-687,-4502,1529,867,174,225,885,1015,1057,215,162,111
1054383,-3526,8036,-12865,5092,164,2675,-687,-4502,1529,867,174,225,885,1015,1057,215,162,111
1059462,-3526,8036,-12865,5092,164,2675,-687,-4502,1529,867,174,225,885,1015,1057,215,162,111
1060260,-3526,8036,-12865,5092,164,2675,-687,-4502,1529,867,174,225,885,1015,1057,215,162,111
1061086,-3526,8036,-12865,5092,164,2675,-687,-4502,1529,867,174,225,885,1015,1057,215,162,111
1061884,-3526,8036,-12865,5092,164,2675,-687,-4502,1529,867,174,225,885,1015,1057,215,162,111
1066845,-3526,8036,-12865,5092,164,2675,-687,-4502,1529,867,174,225,885,1015,1057,215,162,111
1067658,-3526,8036,-12865,5092,164,2675,-687,-4502,1529,867,174,225,885,1015,1057,215,162,111
1068437,-3526,8036,-12865,5092,164,2675,-687,-4502,1529,867,174,225,885,1015,1057,215,162,111
1069261,-3526,8036,-12865,5092,164,2675,-687,-4502,1529,867,174,225,885,1015,1057,215,162,111
1074359,-3526,8036,-12865,5092,164,2675,-687,-4502,1529,867,174,225,885,1015,1057,215,162,111
1075297,-2987,8456,-12925,4578,829,2225,-1335,-4282,212,-1928,174,225,885,1015,1057,215,162,111
1076118,-2987,8456,-12925,4578,829,2225,-1335,-4282,212,-1928,171,210,683,962,745,193,145,102
1076907,-2987,8456,-12925,4578,829,2225,-1335,-4282,212,-1928,171,210,683,962,745,193,145,102
1081953,-2987,8456,-12925,4578,829,2225,-1335,-4282,212,-1928,171,210,683,962,745,193,145,102
1082735,-2987,8456,-12925,4578,829,2225,-1335,-4282,212,-1928,171,210,683,962,745,193,145,102
1083587,-2987,8456,-12925,4578,829,2225,-1335,-4282,212,-1928,171,210,683,962,745,193,145,102
1084360,-2987,8456,-12925,4578,829,2225,-1335,-4282,212,-1928,171,210,683,962,745,193,145,102
1089314,-2987,8456,-12925,4578,829,2225,-1335,-4282,212,-1928,171,210,683,962,745,193,145,102
1090137,-2987,8456,-12925,4578,829,2225,-1335,-4282,212,-1928,171,210,683,962,745,193,145,102
1090970,-2987,8456,-12925,4578,829,2225,-1335,-4282,212,-1928,171,210,683,962,745,193,145,102
1091762,-2987,8456,-12925,4578,829,2225,-1335,-4282,212,-1928,171,210,683,962,745,193,145,102
1096865,-2987,8456,-12925,4578,829,2225,-1335,-4282,212,-1928,171,210,683,962,745,193,145,102
1097763,-2475,9057,-12735,4255,740,1955,-818,-3258,133,-3636,171,210,683,962,745,193,145,102
1098631,-2475,9057,-12735,4255,740,1955,-818,-3258,133,-3636,169,185,432,823,446,141,137,171
1099461,-2475,9057,-12735,4255,740,1955,-818,-3258,133,-3636,169,185,432,823,446,141,137,171
1104456,-2475,9057,-12735,4255,740,1955,-818,-3258,133,-3636,169,185,432,823,446,141,137,171
1105300,-2475,9057,-12735,4255,740,1955,-818,-3258,133,-3636,169,185,432,823,446,141,137,171
1106038,-2475,9057,-12735,4255,740,1955,-818,-3258,133,-3636,169,185,432,823,446,141,137,171
1106900,-2475,9057,-12735,4255,740,1955,-818,-3258,133,-3636,169,185,432,823,446,141,137,171
1111808,-2475,9057,-12735,4255,740,1955,-818,-3258,133,-3636,169,185,432,823,446,141,137,171
1112637,-2475,9057,-12735,4255,740,1955,-818,-3258,133,-3636,169,185,432,823,446,141,137,171
1113435,-2475,9057,-12735,4255,740,1955,-818,-3258,133,-3636,169,185,432,823,446,141,137,171
1114287,-2475,9057,-12735,4255,740,1955,-818,-3258,133,-3636,169,185,432,823,446,141,137,171
1119360,-2475,9057,-12735,4255,740,1955,-818,-3258,133,-3636,169,185,432,823,446,141,137,171
1120355,-2181,9701,-12268,4368,1082,992,-251,-478,220,-4739,169,185,432,823,446,141,137,171
1121117,-2181,9701,-12268,4368,1082,992,-251,-478,220,-4739,120,150,376,1151,255,124,239,225
1121983,-2181,9701,-12268,4368,1082,992,-251,-478,220,-4739,120,150,376,1151,255,124,239,225
1126936,-2181,9701,-12268,4368,1082,992,-251,-478,220,-4739,120,150,376,1151,255,124,239,225
1127801,-2181,9701,-12268,4368,1082,992,-251,-478,220,-4739,120,150,376,1151,255,124,239,225
1128560,-2181,9701,-12268,4368,1082,992,-251,-478,220,-4739,120,150,376,1151,255,124,239,225
1129426,-2181,9701,-12268,4368,1082,992,-251,-478,220,-4739,120,150,376,1151,255,124,239,225
1134356,-2181,9701,-12268,4368,1082,992,-251,-478,220,-4739,120,150,376,1151,255,124,239,225
1135168,-2181,9701,-12268,4368,1082,992,-251,-478,220,-4739,120,150,376,1151,255,124,239,225
1136006,-2181,9701,-12268,4368,1082,992,-251,-478,220,-4739,120,150,376,1151,255,124,239,225
1136777,-2181,9701,-12268,4368,1082,992,-251,-478,220,-4739,120,150,376,1151,255,124,239,225
