Timestamp, Orientation x, Orientation y, Orientation z, Orientation w, Acceleration x, Acceleration y, Acceleration z, Rotation x, Rotation y, Rotation z, EMG 0, EMG 1, EMG 2, EMG 3, EMG 4, EMG 5, EMG 6, EMG 7
167481167, 2302, 13507, -8913, -1118, 181, 1019, -2496, 27, -40, 30, 0, 0, 0, 0, 0, 0, 0, 0
167488662, 2321, 13501, -8917, -1123, 203, 1037, -2495, 13, -24, 32, 0, 0, 0, 0, 0, 0, 0, 0
167511204, 2339, 13494, -8922, -1130, 185, 1016, -2499, -5, -20, 37, 0, 0, 0, 0, 0, 0, 0, 0
167526226, 2353, 13487, -8928, -1134, 177, 990, -2502, 6, -19, 40, 0, 0, 0, 0, 0, 0, 0, 0
167550020, 2367, 13481, -8932, -1143, 159, 1024, -2490, 14, -30, 30, 0, 0, 0, 0, 0, 0, 0, 0
167550792, 2367, 13481, -8932, -1143, 159, 1024, -2490, 14, -30, 30, 27, 86, 56, 93, 53, 28, 33, 41
167551651, 2367, 13481, -8932, -1143, 159, 1024, -2490, 14, -30, 30, 27, 86, 56, 93, 53, 28, 33, 41
167572547, 2386, 13474, -8936, -1156, 175, 1037, -2497, -26, -45, 32, 27, 86, 56, 93, 53, 28, 33, 41
167573340, 2386, 13474, -8936, -1156, 175, 1037, -2497, -26, -45, 32, 26, 98, 59, 102, 55, 30, 32, 35
167574136, 2386, 13474, -8936, -1156, 175, 1037, -2497, -26, -45, 32, 26, 98, 59, 102, 55, 30, 32, 35
167586219, 2404, 13467, -8940, -1170, 163, 1033, -2483, -28, -43, 31, 26, 98, 59, 102, 55, 30, 32, 35
167594301, 2404, 13467, -8940, -1170, 163, 1033, -2483, -28, -43, 31, 28, 97, 56, 103, 55, 27, 30, 35
167595159, 2404, 13467, -8940, -1170, 163, 1033, -2483, -28, -43, 31, 28, 97, 56, 103, 55, 27, 30, 35
167610025, 2420, 13461, -8944, -1179, 174, 1027, -2495, -8, -32, 30, 28, 97, 56, 103, 55, 27, 30, 35
167610800, 2420, 13461, -8944, -1179, 174, 1027, -2495, -8, -32, 30, 27, 102, 53, 115, 56, 28, 29, 29
167611637, 2420, 13461, -8944, -1179, 174, 1027, -2495, -8, -32, 30, 27, 102, 53, 115, 56, 28, 29, 29
167632479, 2433, 13456, -8947, -1185, 182, 1020, -2482, 8, -23, 20, 27, 102, 53, 115, 56, 28, 29, 29
167633285, 2433, 13456, -8947, -1185, 182, 1020, -2482, 8, -23, 20, 29, 98, 52, 116, 51, 28, 28, 25
167634140, 2433, 13456, -8947, -1185, 182, 1020, -2482, 8, -23, 20, 29, 98, 52, 116, 51, 28, 28, 25
167646139, 2449, 13450, -8949, -1199, 167, 1025, -2482, -28, -51, 13, 29, 98, 52, 116, 51, 28, 28, 25
167654341, 2449, 13450, -8949, -1199, 167, 1025, -2482, -28, -51, 13, 28, 100, 54, 140, 79, 31, 26, 27
167655135, 2449, 13450, -8949, -1199, 167, 1025, -2482, -28, -51, 13, 28, 100, 54, 140, 79, 31, 26, 27
167670010, 2469, 13444, -8951, -1217, 172, 1042, -2466, -59, -59, 18, 28, 100, 54, 140, 79, 31, 26, 27
167670828, 2469, 13444, -8951, -1217, 172, 1042, -2466, -59, -59, 18, 30, 106, 51, 326, 130, 36, 29, 33
167671634, 2469, 13444, -8951, -1217, 172, 1042, -2466, -59, -59, 18, 30, 106, 51, 326, 130, 36, 29, 33
167692511, 2496, 13436, -8952, -1244, 178, 1030, -2454, -125, -80, 5, 30, 106, 51, 326, 130, 36, 29, 33
167693271, 2496, 13436, -8952, -1244, 178, 1030, -2454, -125, -80, 5, 35, 107, 50, 562, 203, 57, 37, 38
167694111, 2496, 13436, -8952, -1244, 178, 1030, -2454, -125, -80, 5, 35, 107, 50, 562, 203, 57, 37, 38
167706137, 2527, 13426, -8952, -1281, 148, 1018, -2450, -194, -103, 6, 35, 107, 50, 562, 203, 57, 37, 38
167714332, 2527, 13426, -8952, -1281, 148, 1018, -2450, -194, -103, 6, 42, 179, 56, 772, 214, 65, 43, 40
167715198, 2527, 13426, -8952, -1281, 148, 1018, -2450, -194, -103, 6, 42, 179, 56, 772, 214, 65, 43, 40
167730021, 2562, 13417, -8950, -1324, 155, 1015, -2400, -231, -120, -11, 42, 179, 56, 772, 214, 65, 43, 40
167730871, 2562, 13417, -8950, -1324, 155, 1015, -2400, -231, -120, -11, 81, 285, 85, 932, 514, 197, 111, 88
167731650, 2562, 13417, -8950, -1324, 155, 1015, -2400, -231, -120, -11, 81, 285, 85, 932, 514, 197, 111, 88
167752911, 2612, 13403, -8947, -1386, 169, 1014, -2392, -375, -180, -15, 81, 285, 85, 932, 514, 197, 111, 88
167753722, 2612, 13403, -8947, -1386, 169, 1014, -2392, -375, -180, -15, 118, 367, 104, 1113, 773, 244, 150, 121
167758650, 2612, 13403, -8947, -1386, 169, 1014, -2392, -375, -180, -15, 118, 367, 104, 1113, 773, 244, 150, 121
167776361, 2684, 13382, -8938, -1505, 124, 960, -2341, -698, -355, -62, 118, 367, 104, 1113, 773, 244, 150, 121
167777188, 2684, 13382, -8938, -1505, 124, 960, -2341, -698, -355, -62, 118, 367, 104, 1113, 773, 244, 150, 121
167777992, 2684, 13382, -8938, -1505, 124, 960, -2341, -698, -355, -62, 147, 456, 154, 1223, 863, 297, 188, 166
167778817, 2684, 13382, -8938, -1505, 124, 960, -2341, -698, -355, -62, 147, 456, 154, 1223, 863, 297, 188, 166
167783986, 2302, 13507, -8913, -1118, 181, 1019, -2496, 27, -40, 30, 147, 456, 154, 1223, 863, 297, 188, 166
167784807, 2321, 13501, -8917, -1123, 203, 1037, -2495, 13, -24, 32, 147, 456, 154, 1223, 863, 297, 188, 166
167785686, 2339, 13494, -8922, -1130, 185, 1016, -2499, -5, -20, 37, 147, 456, 154, 1223, 863, 297, 188, 166
167786498, 2353, 13487, -8928, -1134, 177, 990, -2502, 6, -19, 40, 147, 456, 154, 1223, 863, 297, 188, 166
167791303, 2353, 13487, -8928, -1134, 177, 990, -2502, 6, -19, 40, 27, 86, 56, 93, 53, 28, 33, 41
167792176, 2353, 13487, -8928, -1134, 177, 990, -2502, 6, -19, 40, 27, 86, 56, 93, 53, 28, 33, 41
167792813, 2353, 13487, -8928, -1134, 177, 990, -2502, 6, -19, 40, 27, 86, 56, 93, 53, 28, 33, 41
167793699, 2353, 13487, -8928, -1134, 177, 990, -2502, 6, -19, 40, 27, 86, 56, 93, 53, 28, 33, 41
167798830, 2353, 13487, -8928, -1134, 177, 990, -2502, 6, -19, 40, 27, 86, 56, 93, 53, 28, 33, 41
167799791, 2386, 13474, -8936, -1156, 175, 1037, -2497, -26, -45, 32, 27, 86, 56, 93, 53, 28, 33, 41
167800559, 2386, 13474, -8936, -1156, 175, 1037, -2497, -26, -45, 32, 26, 98, 59, 102, 55, 30, 32, 35
167801415, 2386, 13474, -8936, -1156, 175, 1037, -2497, -26, -45, 32, 26, 98, 59, 102, 55, 30, 32, 35
167806386, 2386, 13474, -8936, -1156, 175, 1037, -2497, -26, -45, 32, 26, 98, 59, 102, 55, 30, 32, 35
167807235, 2386, 13474, -8936, -1156, 175, 1037, -2497, -26, -45, 32, 26, 98, 59, 102, 55, 30, 32, 35
167808012, 2386, 13474, -8936, -1156, 175, 1037, -2497, -26, -45, 32, 26, 98, 59, 102, 55, 30, 32, 35
167808837, 2386, 13474, -8936, -1156, 175, 1037, -2497, -26, -45, 32, 26, 98, 59, 102, 55, 30, 32, 35
167813782, 2386, 13474, -8936, -1156, 175, 1037, -2497, -26, -45, 32, 26, 98, 59, 102, 55, 30, 32, 35
167814650, 2386, 13474, -8936, -1156, 175, 1037, -2497, -26, -45, 32, 26, 98, 59, 102, 55, 30, 32, 35
167815411, 2386, 13474, -8936, -1156, 175, 1037, -2497, -26, -45, 32, 26, 98, 59, 102, 55, 30, 32, 35
167816249, 2386, 13474, -8936, -1156, 175, 1037, -2497, -26, -45, 32, 26, 98, 59, 102, 55, 30, 32, 35
167821312, 2386, 13474, -8936, -1156, 175, 1037, -2497, -26, -45, 32, 26, 98, 59, 102, 55, 30, 32, 35
167822240, 2404, 13467, -8940, -1170, 163, 1033, -2483, -28, -43, 31, 26, 98, 59, 102, 55, 30, 32, 35
167823041, 2404, 13467, -8940, -1170, 163, 1033, -2483, -28, -43, 31, 28, 97, 56, 103, 55, 27, 30, 35
167823870, 2404, 13467, -8940, -1170, 163, 1033, -2483, -28, -43, 31, 28, 97, 56, 103, 55, 27, 30, 35
167828886, 2404, 13467, -8940, -1170, 163, 1033, -2483, -28, -43, 31, 28, 97, 56, 103, 55, 27, 30, 35
167829682, 2404, 13467, -8940, -1170, 163, 1033, -2483, -28, -43, 31, 28, 97, 56, 103, 55, 27, 30, 35
167830499, 2404, 13467, -8940, -1170, 163, 1033, -2483, -28, -43, 31, 28, 97, 56, 103, 55, 27, 30, 35
167831306, 2404, 13467, -8940, -1170, 163, 1033, -2483, -28, -43, 31, 28, 97, 56, 103, 55, 27, 30, 35
167836290, 2404, 13467, -8940, -1170, 163, 1033, -2483, -28, -43, 31, 28, 97, 56, 103, 55, 27, 30, 35
167837146, 2404, 13467, -8940, -1170, 163, 1033, -2483, -28, -43, 31, 28, 97, 56, 103, 55, 27, 30, 35
167837885, 2404, 13467, -8940, -1170, 163, 1033, -2483, -28, -43, 31, 28, 97, 56, 103, 55, 27, 30, 35
167838708, 2404, 13467, -8940, -1170, 163, 1033, -2483, -28, -43, 31, 28, 97, 56, 103, 55, 27, 30, 35
167843811, 2404, 13467, -8940, -1170, 163, 1033, -2483, -28, -43, 31, 28, 97, 56, 103, 55, 27, 30, 35
167844712, 2420, 13461, -8944, -1179, 174, 1027, -2495, -8, -32, 30, 28, 97, 56, 103, 55, 27, 30, 35
167845529, 2420, 13461, -8944, -1179, 174, 1027, -2495, -8, -32, 30, 27, 102, 53, 115, 56, 28, 29, 29
167846332, 2420, 13461, -8944, -1179, 174, 1027, -2495, -8, -32, 30, 27, 102, 53, 115, 56, 28, 29, 29
167851379, 2420, 13461, -8944, -1179, 174, 1027, -2495, -8, -32, 30, 27, 102, 53, 115, 56, 28, 29, 29
167852145, 2420, 13461, -8944, -1179, 174, 1027, -2495, -8, -32, 30, 27, 102, 53, 115, 56, 28, 29, 29
167852965, 2420, 13461, -8944, -1179, 174, 1027, -2495, -8, -32, 30, 27, 102, 53, 115, 56, 28, 29, 29
167853760, 2420, 13461, -8944, -1179, 174, 1027, -2495, -8, -32, 30, 27, 102, 53, 115, 56, 28, 29, 29
167858736, 2420, 13461, -8944, -1179, 174, 1027, -2495, -8, -32, 30, 27, 102, 53, 115, 56, 28, 29, 29
167859589, 2420, 13461, -8944, -1179, 174, 1027, -2495, -8, -32, 30, 27, 102, 53, 115, 56, 28, 29, 29
167860385, 2420, 13461, -8944, -1179, 174, 1027, -2495, -8, -32, 30, 27, 102, 53, 115, 56, 28, 29, 29
167861208, 2420, 13461, -8944, -1179, 174, 1027, -2495, -8, -32, 30, 27, 102, 53, 115, 56, 28, 29, 29
167866310, 2420, 13461, -8944, -1179, 174, 1027, -2495, -8, -32, 30, 27, 102, 53, 115, 56, 28, 29, 29
167867303, 2433, 13456, -8947, -1185, 182, 1020, -2482, 8, -23, 20, 27, 102, 53, 115, 56, 28, 29, 29
167868135, 2433, 13456, -8947, -1185, 182, 1020, -2482, 8, -23, 20, 29, 98, 52, 116, 51, 28, 28, 25
167868851, 2433, 13456, -8947, -1185, 182, 1020, -2482, 8, -23, 20, 29, 98, 52, 116, 51, 28, 28, 25
167873884, 2433, 13456, -8947, -1185, 182, 1020, -2482, 8, -23, 20, 29, 98, 52, 116, 51, 28, 28, 25
167874737, 2433, 13456, -8947, -1185, 182, 1020, -2482, 8, -23, 20, 29, 98, 52, 116, 51, 28, 28, 25
167875532, 2433, 13456, -8947, -1185, 182, 1020, -2482, 8, -23, 20, 29, 98, 52, 116, 51, 28, 28, 25
167876363, 2433, 13456, -8947, -1185, 182, 1020, -2482, 8, -23, 20, 29, 98, 52, 116, 51, 28, 28, 25
167881285, 2433, 13456, -8947, -1185, 182, 1020, -2482, 8, -23, 20, 29, 98, 52, 116, 51, 28, 28, 25
167882160, 2433, 13456, -8947, -1185, 182, 1020, -2482, 8, -23, 20, 29, 98, 52, 116, 51, 28, 28, 25
167882915, 2433, 13456, -8947, -1185, 182, 1020, -2482, 8, -23, 20, 29, 98, 52, 116, 51, 28, 28, 25
167883773, 2433, 13456, -8947, -1185, 182, 1020, -2482, 8, -23, 20, 29, 98, 52, 116, 51, 28, 28, 25
167888798, 2433, 13456, -8947, -1185, 182, 1020, -2482, 8, -23, 20, 29, 98, 52, 116, 51, 28, 28, 25
167889718, 2449, 13450, -8949, -1199, 167, 1025, -2482, -28, -51, 13, 29, 98, 52, 116, 51, 28, 28, 25
167890537, 2449, 13450, -8949, -1199, 167, 1025, -2482, -28, -51, 13, 28, 100, 54, 140, 79, 31, 26, 27
167891389, 2449, 13450, -8949, -1199, 167, 1025, -2482, -28, -51, 13, 28, 100, 54, 140, 79, 31, 26, 27
167896359, 2449, 13450, -8949, -1199, 167, 1025, -2482, -28, -51, 13, 28, 100, 54, 140, 79, 31, 26, 27
167897224, 2449, 13450, -8949, -1199, 167, 1025, -2482, -28, -51, 13, 28, 100, 54, 140, 79, 31, 26, 27
167897989, 2449, 13450, -8949, -1199, 167, 1025, -2482, -28, -51, 13, 28, 100, 54, 140, 79, 31, 26, 27
167898818, 2449, 13450, -8949, -1199, 167, 1025, -2482, -28, -51, 13, 28, 100, 54, 140, 79, 31, 26, 27
167903762, 2449, 13450, -8949, -1199, 167, 1025, -2482, -28, -51, 13, 28, 100, 54, 140, 79, 31, 26, 27
167904600, 2449, 13450, -8949, -1199, 167, 1025, -2482, -28, -51, 13, 28, 100, 54, 140, 79, 31, 26, 27
167905403, 2449, 13450, -8949, -1199, 167, 1025, -2482, -28, -51, 13, 28, 100, 54, 140, 79, 31, 26, 27
167906210, 2449, 13450, -8949, -1199, 167, 1025, -2482, -28, -51, 13, 28, 100, 54, 140, 79, 31, 26, 27
167911286, 2449, 13450, -8949, -1199, 167, 1025, -2482, -28, -51, 13, 28, 100, 54, 140, 79, 31, 26, 27
167912212, 2469, 13444, -8951, -1217, 172, 1042, -2466, -59, -59, 18, 28, 100, 54, 140, 79, 31, 26, 27
167913005, 2469, 13444, -8951, -1217, 172, 1042, -2466, -59, -59, 18, 30, 106, 51, 326, 130, 36, 29, 33
167913816, 2469, 13444, -8951, -1217, 172, 1042, -2466, -59, -59, 18, 30, 106, 51, 326, 130, 36, 29, 33
167918834, 2469, 13444, -8951, -1217, 172, 1042, -2466, -59, -59, 18, 30, 106, 51, 326, 130, 36, 29, 33
167919683, 2469, 13444, -8951, -1217, 172, 1042, -2466, -59, -59, 18, 30, 106, 51, 326, 130, 36, 29, 33
167920485, 2469, 13444, -8951, -1217, 172, 1042, -2466, -59, -59, 18, 30, 106, 51, 326, 130, 36, 29, 33
167921298, 2469, 13444, -8951, -1217, 172, 1042, -2466, -59, -59, 18, 30, 106, 51, 326, 130, 36, 29, 33
167926284, 2469, 13444, -8951, -1217, 172, 1042, -2466, -59, -59, 18, 30, 106, 51, 326, 130, 36, 29, 33
167927174, 2469, 13444, -8951, -1217, 172, 1042, -2466, -59, -59, 18, 30, 106, 51, 326, 130, 36, 29, 33
167927939, 2469, 13444, -8951, -1217, 172, 1042, -2466, -59, -59, 18, 30, 106, 51, 326, 130, 36, 29, 33
167928776, 2469, 13444, -8951, -1217, 172, 1042, -2466, -59, -59, 18, 30, 106, 51, 326, 130, 36, 29, 33
167933809, 2469, 13444, -8951, -1217, 172, 1042, -2466, -59, -59, 18, 30, 106, 51, 326, 130, 36, 29, 33
167934778, 2496, 13436, -8952, -1244, 178, 1030, -2454, -125, -80, 5, 30, 106, 51, 326, 130, 36, 29, 33
167935560, 2496, 13436, -8952, -1244, 178, 1030, -2454, -125, -80, 5, 35, 107, 50, 562, 203, 57, 37, 38
167936406, 2496, 13436, -8952, -1244, 178, 1030, -2454, -125, -80, 5, 35, 107, 50, 562, 203, 57, 37, 38
167941391, 2496, 13436, -8952, -1244, 178, 1030, -2454, -125, -80, 5, 35, 107, 50, 562, 203, 57, 37, 38
167942226, 2496, 13436, -8952, -1244, 178, 1030, -2454, -125, -80, 5, 35, 107, 50, 562, 203, 57, 37, 38
167943035, 2496, 13436, -8952, -1244, 178, 1030, -2454, -125, -80, 5, 35, 107, 50, 562, 203, 57, 37, 38
167943856, 2496, 13436, -8952, -1244, 178, 1030, -2454, -125, -80, 5, 35, 107, 50, 562, 203, 57, 37, 38
167948751, 2496, 13436, -8952, -1244, 178, 1030, -2454, -125, -80, 5, 35, 107, 50, 562, 203, 57, 37, 38
167949561, 2496, 13436, -8952, -1244, 178, 1030, -2454, -125, -80, 5, 35, 107, 50, 562, 203, 57, 37, 38
167950384, 2496, 13436, -8952, -1244, 178, 1030, -2454, -125, -80, 5, 35, 107, 50, 562, 203, 57, 37, 38
167951184, 2496, 13436, -8952, -1244, 178, 1030, -2454, -125, -80, 5, 35, 107, 50, 562, 203, 57, 37, 38
167956284, 2496, 13436, -8952, -1244, 178, 1030, -2454, -125, -80, 5, 35, 107, 50, 562, 203, 57, 37, 38
167957246, 2527, 13426, -8952, -1281, 148, 1018, -2450, -194, -103, 6, 35, 107, 50, 562, 203, 57, 37, 38
167958045, 2527, 13426, -8952, -1281, 148, 1018, -2450, -194, -103, 6, 42, 179, 56, 772, 214, 65, 43, 40
167958888, 2527, 13426, -8952, -1281, 148, 1018, -2450, -194, -103, 6, 42, 179, 56, 772, 214, 65, 43, 40
167963882, 2527, 13426, -8952, -1281, 148, 1018, -2450, -194, -103, 6, 42, 179, 56, 772, 214, 65, 43, 40
167964682, 2527, 13426, -8952, -1281, 148, 1018, -2450, -194, -103, 6, 42, 179, 56, 772, 214, 65, 43, 40
167965484, 2527, 13426, -8952, -1281, 148, 1018, -2450, -194, -103, 6, 42, 179, 56, 772, 214, 65, 43, 40
167966336, 2527, 13426, -8952, -1281, 148, 1018, -2450, -194, -103, 6, 42, 179, 56, 772, 214, 65, 43, 40
167971266, 2527, 13426, -8952, -1281, 148, 1018, -2450, -194, -103, 6, 42, 179, 56, 772, 214, 65, 43, 40
167972161, 2527, 13426, -8952, -1281, 148, 1018, -2450, -194, -103, 6, 42, 179, 56, 772, 214, 65, 43, 40
167972812, 2527, 13426, -8952, -1281, 148, 1018, -2450, -194, -103, 6, 42, 179, 56, 772, 214, 65, 43, 40
167973713, 2527, 13426, -8952, -1281, 148, 1018, -2450, -194, -103, 6, 42, 179, 56, 772, 214, 65, 43, 40
167978810, 2527, 13426, -8952, -1281, 148, 1018, -2450, -194, -103, 6, 42, 179, 56, 772, 214, 65, 43, 40
167979760, 2562, 13417, -8950, -1324, 155, 1015, -2400, -231, -120, -11, 42, 179, 56, 772, 214, 65, 43, 40
167980560, 2562, 13417, -8950, -1324, 155, 1015, -2400, -231, -120, -11, 81, 285, 85, 932, 514, 197, 111, 88
167981395, 2562, 13417, -8950, -1324, 155, 1015, -2400, -231, -120, -11, 81, 285, 85, 932, 514, 197, 111, 88
167986334, 2562, 13417, -8950, -1324, 155, 1015, -2400, -231, -120, -11, 81, 285, 85, 932, 514, 197, 111, 88
167987185, 2562, 13417, -8950, -1324, 155, 1015, -2400, -231, -120, -11, 81, 285, 85, 932, 514, 197, 111, 88
167987962, 2562, 13417, -8950, -1324, 155, 1015, -2400, -231, -120, -11, 81, 285, 85, 932, 514, 197, 111, 88
167988825, 2562, 13417, -8950, -1324, 155, 1015, -2400, -231, -120, -11, 81, 285, 85, 932, 514, 197, 111, 88
167993808, 2562, 13417, -8950, -1324, 155, 1015, -2400, -231, -120, -11, 81, 285, 85, 932, 514, 197, 111, 88
167994636, 2562, 13417, -8950, -1324, 155, 1015, -2400, -231, -120, -11, 81, 285, 85, 932, 514, 197, 111, 88
167995410, 2562, 13417, -8950, -1324, 155, 1015, -2400, -231, -120, -11, 81, 285, 85, 932, 514, 197, 111, 88
167996275, 2562, 13417, -8950, -1324, 155, 1015, -2400, -231, -120, -11, 81, 285, 85, 932, 514, 197, 111, 88
168001309, 2562, 13417, -8950, -1324, 155, 1015, -2400, -231, -120, -11, 81, 285, 85, 932, 514, 197, 111, 88
168002263, 2612, 13403, -8947, -1386, 169, 1014, -2392, -375, -180, -15, 81, 285, 85, 932, 514, 197, 111, 88
168003039, 2612, 13403, -8947, -1386, 169, 1014, -2392, -375, -180, -15, 118, 367, 104, 1113, 773, 244, 150, 121
168003857, 2612, 13403, -8947, -1386, 169, 1014, -2392, -375, -180, -15, 118, 367, 104, 1113, 773, 244, 150, 121
168008635, 2612, 13403, -8947, -1386, 169, 1014, -2392, -375, -180, -15, 118, 367, 104, 1113, 773, 244, 150, 121
168009486, 2612, 13403, -8947, -1386, 169, 1014, -2392, -375, -180, -15, 118, 367, 104, 1113, 773, 244, 150, 121
168010260, 2612, 13403, -8947, -1386, 169, 1014, -2392, -375, -180, -15, 118, 367, 104, 1113, 773, 244, 150, 121
168011162, 2612, 13403, -8947, -1386, 169, 1014, -2392, -375, -180, -15, 118, 367, 104, 1113, 773, 244, 150, 121
168016267, 2612, 13403, -8947, -1386, 169, 1014, -2392, -375, -180, -15, 118, 367, 104, 1113, 773, 244, 150, 121
168017172, 2612, 13403, -8947, -1386, 169, 1014, -2392, -375, -180, -15, 118, 367, 104, 1113, 773, 244, 150, 121
168017910, 2612, 13403, -8947, -1386, 169, 1014, -2392, -375, -180, -15, 118, 367, 104, 1113, 773, 244, 150, 121
168018737, 2612, 13403, -8947, -1386, 169, 1014, -2392, -375, -180, -15, 118, 367, 104, 1113, 773, 244, 150, 121
168023782, 2612, 13403, -8947, -1386, 169, 1014, -2392, -375, -180, -15, 118, 367, 104, 1113, 773, 244, 150, 121
168024708, 2684, 13382, -8938, -1505, 124, 960, -2341, -698, -355, -62, 118, 367, 104, 1113, 773, 244, 150, 121
168025535, 2684, 13382, -8938, -1505, 124, 960, -2341, -698, -355, -62, 147, 456, 154, 1223, 863, 297, 188, 166
168026374, 2684, 13382, -8938, -1505, 124, 960, -2341, -698, -355, -62, 147, 456, 154, 1223, 863, 297, 188, 166
168031372, 2684, 13382, -8938, -1505, 124, 960, -2341, -698, -355, -62, 147, 456, 154, 1223, 863, 297, 188, 166
168032200, 2684, 13382, -8938, -1505, 124, 960, -2341, -698, -355, -62, 147, 456, 154, 1223, 863, 297, 188, 166
168032990, 2684, 13382, -8938, -1505, 124, 960, -2341, -698, -355, -62, 147, 456, 154, 1223, 863, 297, 188, 166
168033781, 2684, 13382, -8938, -1505, 124, 960, -2341, -698, -355, -62, 147, 456, 154, 1223, 863, 297, 188, 166
168038735, 2684, 13382, -8938, -1505, 124, 960, -2341, -698, -355, -62, 147, 456, 154, 1223, 863, 297, 188, 166
168039585, 2684, 13382, -8938, -1505, 124, 960, -2341, -698, -355, -62, 147, 456, 154, 1223, 863, 297, 188, 166
168040359, 2684, 13382, -8938, -1505, 124, 960, -2341, -698, -355, -62, 147, 456, 154, 1223, 863, 297, 188, 166
168041181, 2684, 13382, -8938, -1505, 124, 960, -2341, -698, -355, -62, 147, 456, 154, 1223, 863, 297, 188, 166
168046309, 2684, 13382, -8938, -1505, 124, 960, -2341, -698, -355, -62, 147, 456, 154, 1223, 863, 297, 188, 166
168047312, 2808, 13357, -8915, -1627, 187, 1016, -2348, -959, -233, -101, 147, 456, 154, 1223, 863, 297, 188, 166
168048134, 2808, 13357, -8915, -1627, 187, 1016, -2348, -959, -233, -101, 210, 482, 260, 1331, 1036, 567, 234, 218
168048804, 2808, 13357, -8915, -1627, 187, 1016, -2348, -959, -233, -101, 210, 482, 260, 1331, 1036, 567, 234, 218
168053859, 2808, 13357, -8915, -1627, 187, 1016, -2348, -959, -233, -101, 210, 482, 260, 1331, 1036, 567, 234, 218
168054684, 2808, 13357, -8915, -1627, 187, 1016, -2348, -959, -233, -101, 210, 482, 260, 1331, 1036, 567, 234, 218
168055485, 2808, 13357, -8915, -1627, 187, 1016, -2348, -959, -233, -101, 210, 482, 260, 1331, 1036, 567, 234, 218
168056309, 2808, 13357, -8915, -1627, 187, 1016, -2348, -959, -233, -101, 210, 482, 260, 1331, 1036, 567, 234, 218
168061287, 2808, 13357, -8915, -1627, 187, 1016, -2348, -959, -233, -101, 210, 482, 260, 1331, 1036, 567, 234, 218
168062164, 2808, 13357, -8915, -1627, 187, 1016, -2348, -959, -233, -101, 210, 482, 260, 1331, 1036, 567, 234, 218
168062912, 2808, 13357, -8915, -1627, 187, 1016, -2348, -959, -233, -101, 210, 482, 260, 1331, 1036, 567, 234, 218
168063749, 2808, 13357, -8915, -1627, 187, 1016, -2348, -959, -233, -101, 210, 482, 260, 1331, 1036, 567, 234, 218
168068784, 2808, 13357, -8915, -1627, 187, 1016, -2348, -959, -233, -101, 210, 482, 260, 1331, 1036, 567, 234, 218
168069766, 2958, 13338, -8866, -1781, 93, 1075, -2447, -1218, -235, -241, 210, 482, 260, 1331, 1036, 567, 234, 218
168070536, 2958, 13338, -8866, -1781, 93, 1075, -2447, -1218, -235, -241, 517, 516, 342, 1369, 1161, 644, 278, 277
168071361, 2958, 13338, -8866, -1781, 93, 1075, -2447, -1218, -235, -241, 517, 516, 342, 1369, 1161, 644, 278, 277
168076361, 2958, 13338, -8866, -1781, 93, 1075, -2447, -1218, -235, -241, 517, 516, 342, 1369, 1161, 644, 278, 277
168077186, 2958, 13338, -8866, -1781, 93, 1075, -2447, -1218, -235, -241, 517, 516, 342, 1369, 1161, 644, 278, 277
168077978, 2958, 13338, -8866, -1781, 93, 1075, -2447, -1218, -235, -241, 517, 516, 342, 1369, 1161, 644, 278, 277
168078785, 2958, 13338, -8866, -1781, 93, 1075, -2447, -1218, -235, -241, 517, 516, 342, 1369, 1161, 644, 278, 277
168083763, 2958, 13338, -8866, -1781, 93, 1075, -2447, -1218, -235, -241, 517, 516, 342, 1369, 1161, 644, 278, 277
168084546, 2958, 13338, -8866, -1781, 93, 1075, -2447, -1218, -235, -241, 517, 516, 342, 1369, 1161, 644, 278, 277
168085366, 2958, 13338, -8866, -1781, 93, 1075, -2447, -1218, -235, -241, 517, 516, 342, 1369, 1161, 644, 278, 277
168086185, 2958, 13338, -8866, -1781, 93, 1075, -2447, -1218, -235, -241, 517, 516, 342, 1369, 1161, 644, 278, 277
168091258, 2958, 13338, -8866, -1781, 93, 1075, -2447, -1218, -235, -241, 517, 516, 342, 1369, 1161, 644, 278, 277
168092225, 3107, 13331, -8771, -2031, -145, 1166, -2240, -1468, -519, -538, 517, 516, 342, 1369, 1161, 644, 278, 277
168093014, 3107, 13331, -8771, -2031, -145, 1166, -2240, -1468, -519, -538, 711, 592, 359, 1377, 1117, 703, 307, 326
168093881, 3107, 13331, -8771, -2031, -145, 1166, -2240, -1468, -519, -538, 711, 592, 359, 1377, 1117, 703, 307, 326
168098835, 3107, 13331, -8771, -2031, -145, 1166, -2240, -1468, -519, -538, 711, 592, 359, 1377, 1117, 703, 307, 326
168099686, 3107, 13331, -8771, -2031, -145, 1166, -2240, -1468, -519, -538, 711, 592, 359, 1377, 1117, 703, 307, 326
168100459, 3107, 13331, -8771, -2031, -145, 1166, -2240, -1468, -519, -538, 711, 592, 359, 1377, 1117, 703, 307, 326
168101282, 3107, 13331, -8771, -2031, -145, 1166, -2240, -1468, -519, -538, 711, 592, 359, 1377, 1117, 703, 307, 326
168106233, 3107, 13331, -8771, -2031, -145, 1166, -2240, -1468, -519, -538, 711, 592, 359, 1377, 1117, 703, 307, 326
168107066, 3107, 13331, -8771, -2031, -145, 1166, -2240, -1468, -519, -538, 711, 592, 359, 1377, 1117, 703, 307, 326
168107859, 3107, 13331, -8771, -2031, -145, 1166, -2240, -1468, -519, -538, 711, 592, 359, 1377, 1117, 703, 307, 326
168108712, 3107, 13331, -8771, -2031, -145, 1166, -2240, -1468, -519, -538, 711, 592, 359, 1377, 1117, 703, 307, 326
168113810, 3107, 13331, -8771, -2031, -145, 1166, -2240, -1468, -519, -538, 711, 592, 359, 1377, 1117, 703, 307, 326
168114778, 3328, 13244, -8776, -2220, 49, 1798, -2411, -1602, -272, 227, 711, 592, 359, 1377, 1117, 703, 307, 326
168115563, 3328, 13244, -8776, -2220, 49, 1798, -2411, -1602, -272, 227, 758, 666, 398, 1320, 1077, 813, 388, 321
168116383, 3328, 13244, -8776, -2220, 49, 1798, -2411, -1602, -272, 227, 758, 666, 398, 1320, 1077, 813, 388, 321
168121384, 3328, 13244, -8776, -2220, 49, 1798, -2411, -1602, -272, 227, 758, 666, 398, 1320, 1077, 813, 388, 321
168122224, 3328, 13244, -8776, -2220, 49, 1798, -2411, -1602, -272, 227, 758, 666, 398, 1320, 1077, 813, 388, 321
168123012, 3328, 13244, -8776, -2220, 49, 1798, -2411, -1602, -272, 227, 758, 666, 398, 1320, 1077, 813, 388, 321
168123856, 3328, 13244, -8776, -2220, 49, 1798, -2411, -1602, -272, 227, 758, 666, 398, 1320, 1077, 813, 388, 321
168128759, 3328, 13244, -8776, -2220, 49, 1798, -2411, -1602, -272, 227, 758, 666, 398, 1320, 1077, 813, 388, 321
168129626, 3328, 13244, -8776, -2220, 49, 1798, -2411, -1602, -272, 227, 758, 666, 398, 1320, 1077, 813, 388, 321
168130409, 3328, 13244, -8776, -2220, 49, 1798, -2411, -1602, -272, 227, 758, 666, 398, 1320, 1077, 813, 388, 321
168131237, 3328, 13244, -8776, -2220, 49, 1798, -2411, -1602, -272, 227, 758, 666, 398, 1320, 1077, 813, 388, 321
168136284, 3328, 13244, -8776, -2220, 49, 1798, -2411, -1602, -272, 227, 758, 666, 398, 1320, 1077, 813, 388, 321
168137210, 3377, 13231, -8768, -2256, 869, 161, -1980, -794, -442, -229, 758, 666, 398, 1320, 1077, 813, 388, 321
168138038, 3377, 13231, -8768, -2256, 869, 161, -1980, -794, -442, -229, 812, 799, 472, 1271, 1104, 882, 574, 400
168138888, 3377, 13231, -8768, -2256, 869, 161, -1980, -794, -442, -229, 812, 799, 472, 1271, 1104, 882, 574, 400
168143866, 3377, 13231, -8768, -2256, 869, 161, -1980, -794, -442, -229, 812, 799, 472, 1271, 1104, 882, 574, 400
168144660, 3377, 13231, -8768, -2256, 869, 161, -1980, -794, -442, -229, 812, 799, 472, 1271, 1104, 882, 574, 400
168145494, 3377, 13231, -8768, -2256, 869, 161, -1980, -794, -442, -229, 812, 799, 472, 1271, 1104, 882, 574, 400
168146311, 3377, 13231, -8768, -2256, 869, 161, -1980, -794, -442, -229, 812, 799, 472, 1271, 1104, 882, 574, 400
168151257, 3377, 13231, -8768, -2256, 869, 161, -1980, -794, -442, -229, 812, 799, 472, 1271, 1104, 882, 574, 400
168152132, 3377, 13231, -8768, -2256, 869, 161, -1980, -794, -442, -229, 812, 799, 472, 1271, 1104, 882, 574, 400
168152852, 3377, 13231, -8768, -2256, 869, 161, -1980, -794, -442, -229, 812, 799, 472, 1271, 1104, 882, 574, 400
168153685, 3377, 13231, -8768, -2256, 869, 161, -1980, -794, -442, -229, 812, 799, 472, 1271, 1104, 882, 574, 400
168158787, 3377, 13231, -8768, -2256, 869, 161, -1980, -794, -442, -229, 812, 799, 472, 1271, 1104, 882, 574, 400
168159712, 3300, 13267, -8751, -2220, -8, 1336, -2439, 501, -18, -200, 812, 799, 472, 1271, 1104, 882, 574, 400
168160550, 3300, 13267, -8751, -2220, -8, 1336, -2439, 501, -18, -200, 898, 874, 466, 1228, 1000, 827, 576, 438
168161357, 3300, 13267, -8751, -2220, -8, 1336, -2439, 501, -18, -200, 898, 874, 466, 1228, 1000, 827, 576, 438
168166358, 3300, 13267, -8751, -2220, -8, 1336, -2439, 501, -18, -200, 898, 874, 466, 1228, 1000, 827, 576, 438
168167159, 3300, 13267, -8751, -2220, -8, 1336, -2439, 501, -18, -200, 898, 874, 466, 1228, 1000, 827, 576, 438
168167990, 3300, 13267, -8751, -2220, -8, 1336, -2439, 501, -18, -200, 898, 874, 466, 1228, 1000, 827, 576, 438
168168785, 3300, 13267, -8751, -2220, -8, 1336, -2439, 501, -18, -200, 898, 874, 466, 1228, 1000, 827, 576, 438
168173800, 3300, 13267, -8751, -2220, -8, 1336, -2439, 501, -18, -200, 898, 874, 466, 1228, 1000, 827, 576, 438
168174612, 3300, 13267, -8751, -2220, -8, 1336, -2439, 501, -18, -200, 898, 874, 466, 1228, 1000, 827, 576, 438
168175401, 3300, 13267, -8751, -2220, -8, 1336, -2439, 501, -18, -200, 898, 874, 466, 1228, 1000, 827, 576, 438
168176209, 3300, 13267, -8751, -2220, -8, 1336, -2439, 501, -18, -200, 898, 874, 466, 1228, 1000, 827, 576, 438
168181318, 3300, 13267, -8751, -2220, -8, 1336, -2439, 501, -18, -200, 898, 874, 466, 1228, 1000, 827, 576, 438
168182228, 3359, 13234, -8754, -2317, -70, 609, -2190, -880, -272, 61, 898, 874, 466, 1228, 1000, 827, 576, 438
168183037, 3359, 13234, -8754, -2317, -70, 609, -2190, -880, -272, 61, 805, 896, 437, 1177, 983, 920, 593, 424
168183887, 3359, 13234, -8754, -2317, -70, 609, -2190, -880, -272, 61, 805, 896, 437, 1177, 983, 920, 593, 424
168188859, 3359, 13234, -8754, -2317, -70, 609, -2190, -880, -272, 61, 805, 896, 437, 1177, 983, 920, 593, 424
168189700, 3359, 13234, -8754, -2317, -70, 609, -2190, -880, -272, 61, 805, 896, 437, 1177, 983, 920, 593, 424
168190536, 3359, 13234, -8754, -2317, -70, 609, -2190, -880, -272, 61, 805, 896, 437, 1177, 983, 920, 593, 424
168191308, 3359, 13234, -8754, -2317, -70, 609, -2190, -880, -272, 61, 805, 896, 437, 1177, 983, 920, 593, 424
168196301, 3359, 13234, -8754, -2317, -70, 609, -2190, -880, -272, 61, 805, 896, 437, 1177, 983, 920, 593, 424
168197134, 3359, 13234, -8754, -2317, -70, 609, -2190, -880, -272, 61, 805, 896, 437, 1177, 983, 920, 593, 424
168197933, 3359, 13234, -8754, -2317, -70, 609, -2190, -880, -272, 61, 805, 896, 437, 1177, 983, 920, 593, 424
168198709, 3359, 13234, -8754, -2317, -70, 609, -2190, -880, -272, 61, 805, 896, 437, 1177, 983, 920, 593, 424
168203824, 3359, 13234, -8754, -2317, -70, 609, -2190, -880, -272, 61, 805, 896, 437, 1177, 983, 920, 593, 424
168204712, 3303, 13245, -8765, -2293, 163, 498, -2106, 36, -153, -50, 805, 896, 437, 1177, 983, 920, 593, 424
168205576, 3303, 13245, -8765, -2293, 163, 498, -2106, 36, -153, -50, 658, 834, 457, 1204, 1027, 958, 592, 406
168206335, 3303, 13245, -8765, -2293, 163, 498, -2106, 36, -153, -50, 658, 834, 457, 1204, 1027, 958, 592, 406
168211370, 3303, 13245, -8765, -2293, 163, 498, -2106, 36, -153, -50, 658, 834, 457, 1204, 1027, 958, 592, 406
168212159, 3303, 13245, -8765, -2293, 163, 498, -2106, 36, -153, -50, 658, 834, 457, 1204, 1027, 958, 592, 406
168213028, 3303, 13245, -8765, -2293, 163, 498, -2106, 36, -153, -50, 658, 834, 457, 1204, 1027, 958, 592, 406
168213797, 3303, 13245, -8765, -2293, 163, 498, -2106, 36, -153, -50, 658, 834, 457, 1204, 1027, 958, 592, 406
168218725, 3303, 13245, -8765, -2293, 163, 498, -2106, 36, -153, -50, 658, 834, 457, 1204, 1027, 958, 592, 406
168219535, 3303, 13245, -8765, -2293, 163, 498, -2106, 36, -153, -50, 658, 834, 457, 1204, 1027, 958, 592, 406
168220334, 3303, 13245, -8765, -2293, 163, 498, -2106, 36, -153, -50, 658, 834, 457, 1204, 1027, 958, 592, 406
168221159, 3303, 13245, -8765, -2293, 163, 498, -2106, 36, -153, -50, 658, 834, 457, 1204, 1027, 958, 592, 406
168226312, 3303, 13245, -8765, -2293, 163, 498, -2106, 36, -153, -50, 658, 834, 457, 1204, 1027, 958, 592, 406
168227287, 3173, 13262, -8820, -2167, 235, 1315, -2333, 1082, 7, 175, 658, 834, 457, 1204, 1027, 958, 592, 406
168228134, 3173, 13262, -8820, -2167, 235, 1315, -2333, 1082, 7, 175, 666, 764, 434, 1193, 961, 944, 547, 416
168228854, 3173, 13262, -8820, -2167, 235, 1315, -2333, 1082, 7, 175, 666, 764, 434, 1193, 961, 944, 547, 416
168233884, 3173, 13262, -8820, -2167, 235, 1315, -2333, 1082, 7, 175, 666, 764, 434, 1193, 961, 944, 547, 416
168234751, 3173, 13262, -8820, -2167, 235, 1315, -2333, 1082, 7, 175, 666, 764, 434, 1193, 961, 944, 547, 416
168235509, 3173, 13262, -8820, -2167, 235, 1315, -2333, 1082, 7, 175, 666, 764, 434, 1193, 961, 944, 547, 416
168236364, 3173, 13262, -8820, -2167, 235, 1315, -2333, 1082, 7, 175, 666, 764, 434, 1193, 961, 944, 547, 416
168241303, 3173, 13262, -8820, -2167, 235, 1315, -2333, 1082, 7, 175, 666, 764, 434, 1193, 961, 944, 547, 416
168242135, 3173, 13262, -8820, -2167, 235, 1315, -2333, 1082, 7, 175, 666, 764, 434, 1193, 961, 944, 547, 416
168242925, 3173, 13262, -8820, -2167, 235, 1315, -2333, 1082, 7, 175, 666, 764, 434, 1193, 961, 944, 547, 416
168243734, 3173, 13262, -8820, -2167, 235, 1315, -2333, 1082, 7, 175, 666, 764, 434, 1193, 961, 944, 547, 416
168248812, 3173, 13262, -8820, -2167, 235, 1315, -2333, 1082, 7, 175, 666, 764, 434, 1193, 961, 944, 547, 416
168249736, 3144, 13268, -8825, -2155, 48, 1529, -2290, 363, -65, -23, 666, 764, 434, 1193, 961, 944, 547, 416
168250574, 3144, 13268, -8825, -2155, 48, 1529, -2290, 363, -65, -23, 610, 604, 380, 1232, 976, 910, 371, 334
168251381, 3144, 13268, -8825, -2155, 48, 1529, -2290, 363, -65, -23, 610, 604, 380, 1232, 976, 910, 371, 334
168256386, 3144, 13268, -8825, -2155, 48, 1529, -2290, 363, -65, -23, 610, 604, 380, 1232, 976, 910, 371, 334
168257185, 3144, 13268, -8825, -2155, 48, 1529, -2290, 363, -65, -23, 610, 604, 380, 1232, 976, 910, 371, 334
168258015, 3144, 13268, -8825, -2155, 48, 1529, -2290, 363, -65, -23, 610, 604, 380, 1232, 976, 910, 371, 334
168258815, 3144, 13268, -8825, -2155, 48, 1529, -2290, 363, -65, -23, 610, 604, 380, 1232, 976, 910, 371, 334
168263782, 3144, 13268, -8825, -2155, 48, 1529, -2290, 363, -65, -23, 610, 604, 380, 1232, 976, 910, 371, 334
168264559, 3144, 13268, -8825, -2155, 48, 1529, -2290, 363, -65, -23, 610, 604, 380, 1232, 976, 910, 371, 334
168265425, 3144, 13268, -8825, -2155, 48, 1529, -2290, 363, -65, -23, 610, 604, 380, 1232, 976, 910, 371, 334
168266210, 3144, 13268, -8825, -2155, 48, 1529, -2290, 363, -65, -23, 610, 604, 380, 1232, 976, 910, 371, 334
168271264, 3144, 13268, -8825, -2155, 48, 1529, -2290, 363, -65, -23, 610, 604, 380, 1232, 976, 910, 371, 334
168272229, 3202, 13255, -8810, -2207, 112, 1221, -2240, -416, -121, -78, 610, 604, 380, 1232, 976, 910, 371, 334
168273014, 3202, 13255, -8810, -2207, 112, 1221, -2240, -416, -121, -78, 507, 503, 367, 1302, 1058, 855, 370, 258
168273869, 3202, 13255, -8810, -2207, 112, 1221, -2240, -416, -121, -78, 507, 503, 367, 1302, 1058, 855, 370, 258
168278834, 3202, 13255, -8810, -2207, 112, 1221, -2240, -416, -121, -78, 507, 503, 367, 1302, 1058, 855, 370, 258
168279688, 3202, 13255, -8810, -2207, 112, 1221, -2240, -416, -121, -78, 507, 503, 367, 1302, 1058, 855, 370, 258
168280459, 3202, 13255, -8810, -2207, 112, 1221, -2240, -416, -121, -78, 507, 503, 367, 1302, 1058, 855, 370, 258
168281306, 3202, 13255, -8810, -2207, 112, 1221, -2240, -416, -121, -78, 507, 503, 367, 1302, 1058, 855, 370, 258
168286222, 3202, 13255, -8810, -2207, 112, 1221, -2240, -416, -121, -78, 507, 503, 367, 1302, 1058, 855, 370, 258
168287039, 3202, 13255, -8810, -2207, 112, 1221, -2240, -416, -121, -78, 507, 503, 367, 1302, 1058, 855, 370, 258
168287861, 3202, 13255, -8810, -2207, 112, 1221, -2240, -416, -121, -78, 507, 503, 367, 1302, 1058, 855, 370, 258
168288683, 3202, 13255, -8810, -2207, 112, 1221, -2240, -416, -121, -78, 507, 503, 367, 1302, 1058, 855, 370, 258
168293809, 3202, 13255, -8810, -2207, 112, 1221, -2240, -416, -121, -78, 507, 503, 367, 1302, 1058, 855, 370, 258
168294765, 3233, 13258, -8789, -2225, 109, 778, -2235, -404, -28, -132, 507, 503, 367, 1302, 1058, 855, 370, 258
168295577, 3233, 13258, -8789, -2225, 109, 778, -2235, -404, -28, -132, 485, 448, 356, 1264, 1054, 796, 348, 239
168296358, 3233, 13258, -8789, -2225, 109, 778, -2235, -404, -28, -132, 485, 448, 356, 1264, 1054, 796, 348, 239
168308907, 3233, 13258, -8789, -2225, 109, 778, -2235, -404, -28, -132, 485, 448, 356, 1264, 1054, 796, 348, 239
168309685, 3233, 13258, -8789, -2225, 109, 778, -2235, -404, -28, -132, 485, 448, 356, 1264, 1054, 796, 348, 239
168310501, 3233, 13258, -8789, -2225, 109, 778, -2235, -404, -28, -132, 485, 448, 356, 1264, 1054, 796, 348, 239
168311285, 3233, 13258, -8789, -2225, 109, 778, -2235, -404, -28, -132, 485, 448, 356, 1264, 1054, 796, 348, 239
168316234, 3233, 13258, -8789, -2225, 109, 778, -2235, -404, -28, -132, 485, 448, 356, 1264, 1054, 796, 348, 239
168317109, 3233, 13258, -8789, -2225, 109, 778, -2235, -404, -28, -132, 485, 448, 356, 1264, 1054, 796, 348, 239
168317861, 3233, 13258, -8789, -2225, 109, 778, -2235, -404, -28, -132, 485, 448, 356, 1264, 1054, 796, 348, 239
168318683, 3233, 13258, -8789, -2225, 109, 778, -2235, -404, -28, -132, 485, 448, 356, 1264, 1054, 796, 348, 239
168323911, 3202, 13266, -8795, -2199, 123, 844, -2260, 70, -42, -28, 485, 448, 356, 1264, 1054, 796, 348, 239
168324730, 3202, 13266, -8795, -2199, 123, 844, -2260, 70, -42, -28, 467, 443, 350, 1210, 1002, 735, 319, 196
168325534, 3202, 13266, -8795, -2199, 123, 844, -2260, 70, -42, -28, 467, 443, 350, 1210, 1002, 735, 319, 196
168326375, 3202, 13266, -8795, -2199, 123, 844, -2260, 70, -42, -28, 467, 443, 350, 1210, 1002, 735, 319, 196
168331060, 3202, 13266, -8795, -2199, 123, 844, -2260, 70, -42, -28, 467, 443, 350, 1210, 1002, 735, 319, 196
168331849, 3202, 13266, -8795, -2199, 123, 844, -2260, 70, -42, -28, 467, 443, 350, 1210, 1002, 735, 319, 196
168332659, 3202, 13266, -8795, -2199, 123, 844, -2260, 70, -42, -28, 467, 443, 350, 1210, 1002, 735, 319, 196
168333484, 3202, 13266, -8795, -2199, 123, 844, -2260, 70, -42, -28, 467, 443, 350, 1210, 1002, 735, 319, 196
168338824, 3202, 13266, -8795, -2199, 123, 844, -2260, 70, -42, -28, 467, 443, 350, 1210, 1002, 735, 319, 196
168339748, 3165, 13271, -8811, -2158, 164, 1102, -2244, 287, -29, 31, 467, 443, 350, 1210, 1002, 735, 319, 196
168340559, 3165, 13271, -8811, -2158, 164, 1102, -2244, 287, -29, 31, 456, 442, 359, 1219, 1099, 657, 314, 191
168341394, 3165, 13271, -8811, -2158, 164, 1102, -2244, 287, -29, 31, 456, 442, 359, 1219, 1099, 657, 314, 191
168346407, 3165, 13271, -8811, -2158, 164, 1102, -2244, 287, -29, 31, 456, 442, 359, 1219, 1099, 657, 314, 191
168347192, 3165, 13271, -8811, -2158, 164, 1102, -2244, 287, -29, 31, 456, 442, 359, 1219, 1099, 657, 314, 191
168348021, 3165, 13271, -8811, -2158, 164, 1102, -2244, 287, -29, 31, 456, 442, 359, 1219, 1099, 657, 314, 191
168348815, 3165, 13271, -8811, -2158, 164, 1102, -2244, 287, -29, 31, 456, 442, 359, 1219, 1099, 657, 314, 191
168353800, 3165, 13271, -8811, -2158, 164, 1102, -2244, 287, -29, 31, 456, 442, 359, 1219, 1099, 657, 314, 191
168354585, 3165, 13271, -8811, -2158, 164, 1102, -2244, 287, -29, 31, 456, 442, 359, 1219, 1099, 657, 314, 191
168355451, 3165, 13271, -8811, -2158, 164, 1102, -2244, 287, -29, 31, 456, 442, 359, 1219, 1099, 657, 314, 191
168356210, 3165, 13271, -8811, -2158, 164, 1102, -2244, 287, -29, 31, 456, 442, 359, 1219, 1099, 657, 314, 191
168361299, 3165, 13271, -8811, -2158, 164, 1102, -2244, 287, -29, 31, 456, 442, 359, 1219, 1099, 657, 314, 191
168362211, 3154, 13270, -8823, -2134, 140, 1189, -2222, 161, -13, 38, 456, 442, 359, 1219, 1099, 657, 314, 191
168363030, 3154, 13270, -8823, -2134, 140, 1189, -2222, 161, -13, 38, 451, 398, 326, 1171, 1068, 679, 275, 176
168363875, 3154, 13270, -8823, -2134, 140, 1189, -2222, 161, -13, 38, 451, 398, 326, 1171, 1068, 679, 275, 176
168368858, 3154, 13270, -8823, -2134, 140, 1189, -2222, 161, -13, 38, 451, 398, 326, 1171, 1068, 679, 275, 176
168369699, 3154, 13270, -8823, -2134, 140, 1189, -2222, 161, -13, 38, 451, 398, 326, 1171, 1068, 679, 275, 176
168370484, 3154, 13270, -8823, -2134, 140, 1189, -2222, 161, -13, 38, 451, 398, 326, 1171, 1068, 679, 275, 176
168371351, 3154, 13270, -8823, -2134, 140, 1189, -2222, 161, -13, 38, 451, 398, 326, 1171, 1068, 679, 275, 176
168374934, 3154, 13270, -8823, -2134, 140, 1189, -2222, 161, -13, 38, 451, 398, 326, 1171, 1068, 679, 275, 176
168375772, 3154, 13270, -8823, -2134, 140, 1189, -2222, 161, -13, 38, 451, 398, 326, 1171, 1068, 679, 275, 176
168376560, 3154, 13270, -8823, -2134, 140, 1189, -2222, 161, -13, 38, 451, 398, 326, 1171, 1068, 679, 275, 176
168388623, 2506, 13346, -9098, -1121, 90, 894, -2379, 725, 94, 164, 451, 398, 326, 1171, 1068, 679, 275, 176
168396794, 2506, 13346, -9098, -1121, 90, 894, -2379, 725, 94, 164, 179, 629, 146, 573, 307, 261, 208, 105
168397636, 2506, 13346, -9098, -1121, 90, 894, -2379, 725, 94, 164, 179, 629, 146, 573, 307, 261, 208, 105
168412487, 2448, 13341, -9127, -1064, 128, 1083, -2418, 592, 64, 187, 179, 629, 146, 573, 307, 261, 208, 105
168413349, 2448, 13341, -9127, -1064, 128, 1083, -2418, 592, 64, 187, 158, 549, 135, 581, 255, 218, 162, 92
168414149, 2448, 13341, -9127, -1064, 128, 1083, -2418, 592, 64, 187, 158, 549, 135, 581, 255, 218, 162, 92
168426187, 2412, 13336, -9148, -1034, 175, 1077, -2410, 416, -5, 130, 158, 549, 135, 581, 255, 218, 162, 92
168434273, 2412, 13336, -9148, -1034, 175, 1077, -2410, 416, -5, 130, 143, 501, 107, 470, 212, 187, 136, 82
168435163, 2412, 13336, -9148, -1034, 175, 1077, -2410, 416, -5, 130, 143, 501, 107, 470, 212, 187, 136, 82
168448662, 2398, 13331, -9162, -1018, 198, 1067, -2408, 266, -5, 88, 143, 501, 107, 470, 212, 187, 136, 82
168456763, 2398, 13331, -9162, -1018, 198, 1067, -2408, 266, -5, 88, 136, 461, 102, 387, 217, 161, 206, 66
168457540, 2398, 13331, -9162, -1018, 198, 1067, -2408, 266, -5, 88, 136, 461, 102, 387, 217, 161, 206, 66
168471147, 2372, 13336, -9164, -989, 166, 989, -2402, 329, 46, 15, 136, 461, 102, 387, 217, 161, 206, 66
168479247, 2372, 13336, -9164, -989, 166, 989, -2402, 329, 46, 15, 67, 349, 93, 285, 217, 118, 230, 43
168480176, 2372, 13336, -9164, -989, 166, 989, -2402, 329, 46, 15, 67, 349, 93, 285, 217, 118, 230, 43
168486215, 2348, 13335, -9173, -972, 140, 1081, -2407, 333, 6, 63, 67, 349, 93, 285, 217, 118, 230, 43
168494302, 2348, 13335, -9173, -972, 140, 1081, -2407, 333, 6, 63, 53, 271, 82, 233, 219, 108, 241, 47
168495135, 2348, 13335, -9173, -972, 140, 1081, -2407, 333, 6, 63, 53, 271, 82, 233, 219, 108, 241, 47
168508663, 2348, 13330, -9180, -985, 154, 1093, -2424, 132, -64, 49, 53, 271, 82, 233, 219, 108, 241, 47
168516721, 2348, 13330, -9180, -985, 154, 1093, -2424, 132, -64, 49, 52, 224, 77, 194, 169, 86, 240, 72
168517536, 2348, 13330, -9180, -985, 154, 1093, -2424, 132, -64, 49, 52, 224, 77, 194, 169, 86, 240, 72
168531139, 2365, 13326, -9176, -1021, 140, 1074, -2429, -40, -104, -17, 52, 224, 77, 194, 169, 86, 240, 72
168539263, 2365, 13326, -9176, -1021, 140, 1074, -2429, -40, -104, -17, 51, 211, 74, 182, 146, 77, 238, 97
168540156, 2365, 13326, -9176, -1021, 140, 1074, -2429, -40, -104, -17, 51, 211, 74, 182, 146, 77, 238, 97
168546274, 2383, 13324, -9173, -1041, 169, 1006, -2398, -25, -47, -14, 51, 211, 74, 182, 146, 77, 238, 97
168554235, 2383, 13324, -9173, -1041, 169, 1006, -2398, -25, -47, -14, 51, 222, 76, 168, 166, 67, 156, 96
168555161, 2383, 13324, -9173, -1041, 169, 1006, -2398, -25, -47, -14, 51, 222, 76, 168, 166, 67, 156, 96
168578058, 2389, 13321, -9174, -1047, 169, 991, -2422, 59, -16, 17, 51, 222, 76, 168, 166, 67, 156, 96
168578844, 2389, 13321, -9174, -1047, 169, 991, -2422, 59, -16, 17, 50, 212, 71, 134, 194, 72, 91, 95
168579647, 2389, 13321, -9174, -1047, 169, 991, -2422, 59, -16, 17, 50, 212, 71, 134, 194, 72, 91, 95
168591161, 2396, 13316, -9180, -1050, 189, 1043, -2435, 87, -18, 41, 50, 212, 71, 134, 194, 72, 91, 95
168599964, 2396, 13316, -9180, -1050, 189, 1043, -2435, 87, -18, 41, 55, 223, 78, 133, 199, 69, 69, 94
168600759, 2396, 13316, -9180, -1050, 189, 1043, -2435, 87, -18, 41, 55, 223, 78, 133, 199, 69, 69, 94
168606249, 2407, 13313, -9181, -1055, 162, 1052, -2467, 60, 4, 24, 55, 223, 78, 133, 199, 69, 69, 94
168614257, 2407, 13313, -9181, -1055, 162, 1052, -2467, 60, 4, 24, 53, 199, 79, 116, 202, 70, 67, 77
168615151, 2407, 13313, -9181, -1055, 162, 1052, -2467, 60, 4, 24, 53, 199, 79, 116, 202, 70, 67, 77
168628712, 2420, 13310, -9181, -1057, 171, 1081, -2460, 74, 23, 15, 53, 199, 79, 116, 202, 70, 67, 77
168636788, 2420, 13310, -9181, -1057, 171, 1081, -2460, 74, 23, 15, 49, 186, 76, 226, 203, 70, 119, 38
168637585, 2420, 13310, -9181, -1057, 171, 1081, -2460, 74, 23, 15, 49, 186, 76, 226, 203, 70, 119, 38
168659990, 2437, 13309, -9179, -1058, 174, 1078, -2444, 59, 43, 7, 49, 186, 76, 226, 203, 70, 119, 38
168660760, 2437, 13309, -9179, -1058, 174, 1078, -2444, 59, 43, 7, 45, 146, 67, 285, 180, 60, 135, 48
168661616, 2437, 13309, -9179, -1058, 174, 1078, -2444, 59, 43, 7, 45, 146, 67, 285, 180, 60, 135, 48
168666212, 2449, 13307, -9178, -1059, 160, 1051, -2433, 65, 34, 13, 45, 146, 67, 285, 180, 60, 135, 48
168681784, 2449, 13307, -9178, -1059, 160, 1051, -2433, 65, 34, 13, 46, 139, 72, 310, 110, 44, 138, 53
168682622, 2449, 13307, -9178, -1059, 160, 1051, -2433, 65, 34, 13, 46, 139, 72, 310, 110, 44, 138, 53
168688745, 2457, 13303, -9181, -1061, 174, 1046, -2453, 77, 3, 30, 46, 139, 72, 310, 110, 44, 138, 53
168696751, 2457, 13303, -9181, -1061, 174, 1046, -2453, 77, 3, 30, 40, 137, 64, 312, 94, 39, 133, 48
168697564, 2457, 13303, -9181, -1061, 174, 1046, -2453, 77, 3, 30, 40, 137, 64, 312, 94, 39, 133, 48
168711139, 2467, 13298, -9185, -1062, 180, 1055, -2454, 71, 14, 44, 40, 137, 64, 312, 94, 39, 133, 48
168719233, 2467, 13298, -9185, -1062, 180, 1055, -2454, 71, 14, 44, 41, 139, 65, 312, 81, 35, 131, 49
168720035, 2467, 13298, -9185, -1062, 180, 1055, -2454, 71, 14, 44, 41, 139, 65, 312, 81, 35, 131, 49
168726289, 2478, 13294, -9189, -1064, 154, 1046, -2449, 57, 27, 42, 41, 139, 65, 312, 81, 35, 131, 49
168741784, 2478, 13294, -9189, -1064, 154, 1046, -2449, 57, 27, 42, 39, 141, 65, 275, 96, 40, 81, 50
168742625, 2478, 13294, -9189, -1064, 154, 1046, -2449, 57, 27, 42, 39, 141, 65, 275, 96, 40, 81, 50
168748740, 2494, 13289, -9188, -1095, 147, 1026, -2435, -75, -86, 2, 39, 141, 65, 275, 96, 40, 81, 50
168756762, 2494, 13289, -9188, -1095, 147, 1026, -2435, -75, -86, 2, 39, 146, 70, 299, 139, 48, 46, 45
168757535, 2494, 13289, -9188, -1095, 147, 1026, -2435, -75, -86, 2, 39, 146, 70, 299, 139, 48, 46, 45
168771169, 2527, 13279, -9189, -1136, 162, 1058, -2403, -167, -92, 17, 39, 146, 70, 299, 139, 48, 46, 45
168779285, 2527, 13279, -9189, -1136, 162, 1058, -2403, -167, -92, 17, 51, 200, 77, 488, 216, 64, 42, 49
168780162, 2527, 13279, -9189, -1136, 162, 1058, -2403, -167, -92, 17, 51, 200, 77, 488, 216, 64, 42, 49
168786241, 2567, 13266, -9188, -1203, 122, 1041, -2368, -303, -174, 4, 51, 200, 77, 488, 216, 64, 42, 49
168801775, 2567, 13266, -9188, -1203, 122, 1041, -2368, -303, -174, 4, 75, 223, 80, 679, 383, 108, 77, 69
168802584, 2567, 13266, -9188, -1203, 122, 1041, -2368, -303, -174, 4, 75, 223, 80, 679, 383, 108, 77, 69
168808764, 2624, 13249, -9183, -1294, 147, 963, -2332, -509, -245, -27, 75, 223, 80, 679, 383, 108, 77, 69
168816826, 2624, 13249, -9183, -1294, 147, 963, -2332, -509, -245, -27, 141, 344, 97, 892, 588, 171, 101, 104
168817595, 2624, 13249, -9183, -1294, 147, 963, -2332, -509, -245, -27, 141, 344, 97, 892, 588, 171, 101, 104
168831191, 2689, 13230, -9174, -1415, 80, 837, -2328, -732, -332, -58, 141, 344, 97, 892, 588, 171, 101, 104
168839285, 2689, 13230, -9174, -1415, 80, 837, -2328, -732, -332, -58, 183, 387, 135, 1075, 705, 394, 161, 145
168840127, 2689, 13230, -9174, -1415, 80, 837, -2328, -732, -332, -58, 183, 387, 135, 1075, 705, 394, 161, 145
168856360, 2809, 13203, -9155, -1557, 116, 953, -2316, -1022, -270, -78, 183, 387, 135, 1075, 705, 394, 161, 145
168857154, 2809, 13203, -9155, -1557, 116, 953, -2316, -1022, -270, -78, 183, 387, 135, 1075, 705, 394, 161, 145
168857991, 2809, 13203, -9155, -1557, 116, 953, -2316, -1022, -270, -78, 51, 222, 76, 168, 166, 67, 156, 96
168858802, 2809, 13203, -9155, -1557, 116, 953, -2316, -1022, -270, -78, 51, 222, 76, 168, 166, 67, 156, 96
168871415, 2389, 13321, -9174, -1047, 169, 991, -2422, 59, -16, 17, 51, 222, 76, 168, 166, 67, 156, 96
168872212, 2389, 13321, -9174, -1047, 169, 991, -2422, 59, -16, 17, 50, 212, 71, 134, 194, 72, 91, 95
168873012, 2389, 13321, -9174, -1047, 169, 991, -2422, 59, -16, 17, 50, 212, 71, 134, 194, 72, 91, 95
168873856, 2389, 13321, -9174, -1047, 169, 991, -2422, 59, -16, 17, 50, 212, 71, 134, 194, 72, 91, 95
168878719, 2389, 13321, -9174, -1047, 169, 991, -2422, 59, -16, 17, 50, 212, 71, 134, 194, 72, 91, 95
168879527, 2389, 13321, -9174, -1047, 169, 991, -2422, 59, -16, 17, 50, 212, 71, 134, 194, 72, 91, 95
168880331, 2389, 13321, -9174, -1047, 169, 991, -2422, 59, -16, 17, 50, 212, 71, 134, 194, 72, 91, 95
168881151, 2389, 13321, -9174, -1047, 169, 991, -2422, 59, -16, 17, 50, 212, 71, 134, 194, 72, 91, 95
168886340, 2389, 13321, -9174, -1047, 169, 991, -2422, 59, -16, 17, 55, 223, 78, 133, 199, 69, 69, 94
168887126, 2389, 13321, -9174, -1047, 169, 991, -2422, 59, -16, 17, 55, 223, 78, 133, 199, 69, 69, 94
168887960, 2389, 13321, -9174, -1047, 169, 991, -2422, 59, -16, 17, 55, 223, 78, 133, 199, 69, 69, 94
168888759, 2389, 13321, -9174, -1047, 169, 991, -2422, 59, -16, 17, 55, 223, 78, 133, 199, 69, 69, 94
168893814, 2389, 13321, -9174, -1047, 169, 991, -2422, 59, -16, 17, 55, 223, 78, 133, 199, 69, 69, 94
168894585, 2389, 13321, -9174, -1047, 169, 991, -2422, 59, -16, 17, 55, 223, 78, 133, 199, 69, 69, 94
168895438, 2389, 13321, -9174, -1047, 169, 991, -2422, 59, -16, 17, 55, 223, 78, 133, 199, 69, 69, 94
168896258, 2389, 13321, -9174, -1047, 169, 991, -2422, 59, -16, 17, 55, 223, 78, 133, 199, 69, 69, 94
168901383, 2407, 13313, -9181, -1055, 162, 1052, -2467, 60, 4, 24, 55, 223, 78, 133, 199, 69, 69, 94
168902170, 2407, 13313, -9181, -1055, 162, 1052, -2467, 60, 4, 24, 53, 199, 79, 116, 202, 70, 67, 77
168902979, 2407, 13313, -9181, -1055, 162, 1052, -2467, 60, 4, 24, 53, 199, 79, 116, 202, 70, 67, 77
168903781, 2407, 13313, -9181, -1055, 162, 1052, -2467, 60, 4, 24, 53, 199, 79, 116, 202, 70, 67, 77
168908733, 2407, 13313, -9181, -1055, 162, 1052, -2467, 60, 4, 24, 53, 199, 79, 116, 202, 70, 67, 77
168909570, 2407, 13313, -9181, -1055, 162, 1052, -2467, 60, 4, 24, 53, 199, 79, 116, 202, 70, 67, 77
168910384, 2407, 13313, -9181, -1055, 162, 1052, -2467, 60, 4, 24, 53, 199, 79, 116, 202, 70, 67, 77
168911226, 2407, 13313, -9181, -1055, 162, 1052, -2467, 60, 4, 24, 53, 199, 79, 116, 202, 70, 67, 77
168916261, 2407, 13313, -9181, -1055, 162, 1052, -2467, 60, 4, 24, 53, 199, 79, 116, 202, 70, 67, 77
168917221, 2420, 13310, -9181, -1057, 171, 1081, -2460, 74, 23, 15, 53, 199, 79, 116, 202, 70, 67, 77
168918033, 2420, 13310, -9181, -1057, 171, 1081, -2460, 74, 23, 15, 49, 186, 76, 226, 203, 70, 119, 38
168918843, 2420, 13310, -9181, -1057, 171, 1081, -2460, 74, 23, 15, 49, 186, 76, 226, 203, 70, 119, 38
168923859, 2420, 13310, -9181, -1057, 171, 1081, -2460, 74, 23, 15, 49, 186, 76, 226, 203, 70, 119, 38
168924646, 2420, 13310, -9181, -1057, 171, 1081, -2460, 74, 23, 15, 49, 186, 76, 226, 203, 70, 119, 38
168925459, 2420, 13310, -9181, -1057, 171, 1081, -2460, 74, 23, 15, 49, 186, 76, 226, 203, 70, 119, 38
168926325, 2420, 13310, -9181, -1057, 171, 1081, -2460, 74, 23, 15, 49, 186, 76, 226, 203, 70, 119, 38
168931248, 2420, 13310, -9181, -1057, 171, 1081, -2460, 74, 23, 15, 49, 186, 76, 226, 203, 70, 119, 38
168932049, 2420, 13310, -9181, -1057, 171, 1081, -2460, 74, 23, 15, 49, 186, 76, 226, 203, 70, 119, 38
168932860, 2420, 13310, -9181, -1057, 171, 1081, -2460, 74, 23, 15, 49, 186, 76, 226, 203, 70, 119, 38
168933701, 2420, 13310, -9181, -1057, 171, 1081, -2460, 74, 23, 15, 49, 186, 76, 226, 203, 70, 119, 38
168938734, 2420, 13310, -9181, -1057, 171, 1081, -2460, 74, 23, 15, 49, 186, 76, 226, 203, 70, 119, 38
168939712, 2437, 13309, -9179, -1058, 174, 1078, -2444, 59, 43, 7, 49, 186, 76, 226, 203, 70, 119, 38
168940485, 2437, 13309, -9179, -1058, 174, 1078, -2444, 59, 43, 7, 45, 146, 67, 285, 180, 60, 135, 48
168941308, 2437, 13309, -9179, -1058, 174, 1078, -2444, 59, 43, 7, 45, 146, 67, 285, 180, 60, 135, 48
168946310, 2437, 13309, -9179, -1058, 174, 1078, -2444, 59, 43, 7, 45, 146, 67, 285, 180, 60, 135, 48
168947174, 2437, 13309, -9179, -1058, 174, 1078, -2444, 59, 43, 7, 45, 146, 67, 285, 180, 60, 135, 48
168948016, 2437, 13309, -9179, -1058, 174, 1078, -2444, 59, 43, 7, 45, 146, 67, 285, 180, 60, 135, 48
168948768, 2437, 13309, -9179, -1058, 174, 1078, -2444, 59, 43, 7, 45, 146, 67, 285, 180, 60, 135, 48
168953800, 2437, 13309, -9179, -1058, 174, 1078, -2444, 59, 43, 7, 45, 146, 67, 285, 180, 60, 135, 48
168954584, 2437, 13309, -9179, -1058, 174, 1078, -2444, 59, 43, 7, 45, 146, 67, 285, 180, 60, 135, 48
168955424, 2437, 13309, -9179, -1058, 174, 1078, -2444, 59, 43, 7, 45, 146, 67, 285, 180, 60, 135, 48
168956210, 2437, 13309, -9179, -1058, 174, 1078, -2444, 59, 43, 7, 45, 146, 67, 285, 180, 60, 135, 48
168961312, 2437, 13309, -9179, -1058, 174, 1078, -2444, 59, 43, 7, 45, 146, 67, 285, 180, 60, 135, 48
168962212, 2449, 13307, -9178, -1059, 160, 1051, -2433, 65, 34, 13, 45, 146, 67, 285, 180, 60, 135, 48
168963056, 2449, 13307, -9178, -1059, 160, 1051, -2433, 65, 34, 13, 46, 139, 72, 310, 110, 44, 138, 53
168963840, 2449, 13307, -9178, -1059, 160, 1051, -2433, 65, 34, 13, 46, 139, 72, 310, 110, 44, 138, 53
168968860, 2449, 13307, -9178, -1059, 160, 1051, -2433, 65, 34, 13, 46, 139, 72, 310, 110, 44, 138, 53
168969659, 2449, 13307, -9178, -1059, 160, 1051, -2433, 65, 34, 13, 46, 139, 72, 310, 110, 44, 138, 53
168970476, 2449, 13307, -9178, -1059, 160, 1051, -2433, 65, 34, 13, 46, 139, 72, 310, 110, 44, 138, 53
168971259, 2449, 13307, -9178, -1059, 160, 1051, -2433, 65, 34, 13, 46, 139, 72, 310, 110, 44, 138, 53
168976236, 2449, 13307, -9178, -1059, 160, 1051, -2433, 65, 34, 13, 46, 139, 72, 310, 110, 44, 138, 53
168977174, 2449, 13307, -9178, -1059, 160, 1051, -2433, 65, 34, 13, 46, 139, 72, 310, 110, 44, 138, 53
168977812, 2449, 13307, -9178, -1059, 160, 1051, -2433, 65, 34, 13, 46, 139, 72, 310, 110, 44, 138, 53
168978725, 2449, 13307, -9178, -1059, 160, 1051, -2433, 65, 34, 13, 46, 139, 72, 310, 110, 44, 138, 53
168983765, 2449, 13307, -9178, -1059, 160, 1051, -2433, 65, 34, 13, 46, 139, 72, 310, 110, 44, 138, 53
168984724, 2457, 13303, -9181, -1061, 174, 1046, -2453, 77, 3, 30, 46, 139, 72, 310, 110, 44, 138, 53
168985513, 2457, 13303, -9181, -1061, 174, 1046, -2453, 77, 3, 30, 40, 137, 64, 312, 94, 39, 133, 48
168986337, 2457, 13303, -9181, -1061, 174, 1046, -2453, 77, 3, 30, 40, 137, 64, 312, 94, 39, 133, 48
168991379, 2457, 13303, -9181, -1061, 174, 1046, -2453, 77, 3, 30, 40, 137, 64, 312, 94, 39, 133, 48
168992163, 2457, 13303, -9181, -1061, 174, 1046, -2453, 77, 3, 30, 40, 137, 64, 312, 94, 39, 133, 48
168992963, 2457, 13303, -9181, -1061, 174, 1046, -2453, 77, 3, 30, 40, 137, 64, 312, 94, 39, 133, 48
168993781, 2457, 13303, -9181, -1061, 174, 1046, -2453, 77, 3, 30, 40, 137, 64, 312, 94, 39, 133, 48
168998709, 2457, 13303, -9181, -1061, 174, 1046, -2453, 77, 3, 30, 40, 137, 64, 312, 94, 39, 133, 48
168999533, 2457, 13303, -9181, -1061, 174, 1046, -2453, 77, 3, 30, 40, 137, 64, 312, 94, 39, 133, 48
169000335, 2457, 13303, -9181, -1061, 174, 1046, -2453, 77, 3, 30, 40, 137, 64, 312, 94, 39, 133, 48
169001201, 2457, 13303, -9181, -1061, 174, 1046, -2453, 77, 3, 30, 40, 137, 64, 312, 94, 39, 133, 48
169006234, 2457, 13303, -9181, -1061, 174, 1046, -2453, 77, 3, 30, 40, 137, 64, 312, 94, 39, 133, 48
169007202, 2467, 13298, -9185, -1062, 180, 1055, -2454, 71, 14, 44, 40, 137, 64, 312, 94, 39, 133, 48
169008011, 2467, 13298, -9185, -1062, 180, 1055, -2454, 71, 14, 44, 41, 139, 65, 312, 81, 35, 131, 49
169008818, 2467, 13298, -9185, -1062, 180, 1055, -2454, 71, 14, 44, 41, 139, 65, 312, 81, 35, 131, 49
169013809, 2467, 13298, -9185, -1062, 180, 1055, -2454, 71, 14, 44, 41, 139, 65, 312, 81, 35, 131, 49
169014650, 2467, 13298, -9185, -1062, 180, 1055, -2454, 71, 14, 44, 41, 139, 65, 312, 81, 35, 131, 49
169015457, 2467, 13298, -9185, -1062, 180, 1055, -2454, 71, 14, 44, 41, 139, 65, 312, 81, 35, 131, 49
169016287, 2467, 13298, -9185, -1062, 180, 1055, -2454, 71, 14, 44, 41, 139, 65, 312, 81, 35, 131, 49
169021259, 2467, 13298, -9185, -1062, 180, 1055, -2454, 71, 14, 44, 41, 139, 65, 312, 81, 35, 131, 49
169022163, 2467, 13298, -9185, -1062, 180, 1055, -2454, 71, 14, 44, 41, 139, 65, 312, 81, 35, 131, 49
169022838, 2467, 13298, -9185, -1062, 180, 1055, -2454, 71, 14, 44, 41, 139, 65, 312, 81, 35, 131, 49
169023749, 2467, 13298, -9185, -1062, 180, 1055, -2454, 71, 14, 44, 41, 139, 65, 312, 81, 35, 131, 49
169028909, 2478, 13294, -9189, -1064, 154, 1046, -2449, 57, 27, 42, 41, 139, 65, 312, 81, 35, 131, 49
169029738, 2478, 13294, -9189, -1064, 154, 1046, -2449, 57, 27, 42, 39, 141, 65, 275, 96, 40, 81, 50
169030508, 2478, 13294, -9189, -1064, 154, 1046, -2449, 57, 27, 42, 39, 141, 65, 275, 96, 40, 81, 50
169031375, 2478, 13294, -9189, -1064, 154, 1046, -2449, 57, 27, 42, 39, 141, 65, 275, 96, 40, 81, 50
169036213, 2478, 13294, -9189, -1064, 154, 1046, -2449, 57, 27, 42, 39, 141, 65, 275, 96, 40, 81, 50
169037040, 2478, 13294, -9189, -1064, 154, 1046, -2449, 57, 27, 42, 39, 141, 65, 275, 96, 40, 81, 50
169037864, 2478, 13294, -9189, -1064, 154, 1046, -2449, 57, 27, 42, 39, 141, 65, 275, 96, 40, 81, 50
169038658, 2478, 13294, -9189, -1064, 154, 1046, -2449, 57, 27, 42, 39, 141, 65, 275, 96, 40, 81, 50
169043734, 2478, 13294, -9189, -1064, 154, 1046, -2449, 57, 27, 42, 39, 141, 65, 275, 96, 40, 81, 50
169044702, 2494, 13289, -9188, -1095, 147, 1026, -2435, -75, -86, 2, 39, 141, 65, 275, 96, 40, 81, 50
169045490, 2494, 13289, -9188, -1095, 147, 1026, -2435, -75, -86, 2, 39, 146, 70, 299, 139, 48, 46, 45
169046349, 2494, 13289, -9188, -1095, 147, 1026, -2435, -75, -86, 2, 39, 146, 70, 299, 139, 48, 46, 45
169051309, 2494, 13289, -9188, -1095, 147, 1026, -2435, -75, -86, 2, 39, 146, 70, 299, 139, 48, 46, 45
169052155, 2494, 13289, -9188, -1095, 147, 1026, -2435, -75, -86, 2, 39, 146, 70, 299, 139, 48, 46, 45
169052937, 2494, 13289, -9188, -1095, 147, 1026, -2435, -75, -86, 2, 39, 146, 70, 299, 139, 48, 46, 45
169053799, 2494, 13289, -9188, -1095, 147, 1026, -2435, -75, -86, 2, 39, 146, 70, 299, 139, 48, 46, 45
169058759, 2494, 13289, -9188, -1095, 147, 1026, -2435, -75, -86, 2, 39, 146, 70, 299, 139, 48, 46, 45
169059626, 2494, 13289, -9188, -1095, 147, 1026, -2435, -75, -86, 2, 39, 146, 70, 299, 139, 48, 46, 45
169060406, 2494, 13289, -9188, -1095, 147, 1026, -2435, -75, -86, 2, 39, 146, 70, 299, 139, 48, 46, 45
169061232, 2494, 13289, -9188, -1095, 147, 1026, -2435, -75, -86, 2, 39, 146, 70, 299, 139, 48, 46, 45
169066259, 2494, 13289, -9188, -1095, 147, 1026, -2435, -75, -86, 2, 39, 146, 70, 299, 139, 48, 46, 45
169067210, 2527, 13279, -9189, -1136, 162, 1058, -2403, -167, -92, 17, 39, 146, 70, 299, 139, 48, 46, 45
169068013, 2527, 13279, -9189, -1136, 162, 1058, -2403, -167, -92, 17, 51, 200, 77, 488, 216, 64, 42, 49
169068880, 2527, 13279, -9189, -1136, 162, 1058, -2403, -167, -92, 17, 51, 200, 77, 488, 216, 64, 42, 49
169073834, 2527, 13279, -9189, -1136, 162, 1058, -2403, -167, -92, 17, 51, 200, 77, 488, 216, 64, 42, 49
169074699, 2527, 13279, -9189, -1136, 162, 1058, -2403, -167, -92, 17, 51, 200, 77, 488, 216, 64, 42, 49
169075481, 2527, 13279, -9189, -1136, 162, 1058, -2403, -167, -92, 17, 51, 200, 77, 488, 216, 64, 42, 49
169076296, 2527, 13279, -9189, -1136, 162, 1058, -2403, -167, -92, 17, 51, 200, 77, 488, 216, 64, 42, 49
169079934, 2527, 13279, -9189, -1136, 162, 1058, -2403, -167, -92, 17, 51, 200, 77, 488, 216, 64, 42, 49
169080762, 2527, 13279, -9189, -1136, 162, 1058, -2403, -167, -92, 17, 51, 200, 77, 488, 216, 64, 42, 49
169081564, 2527, 13279, -9189, -1136, 162, 1058, -2403, -167, -92, 17, 51, 200, 77, 488, 216, 64, 42, 49
169093652, 3379, 13161, -8908, -2111, 205, 972, -2201, 412, -24, 31, 51, 200, 77, 488, 216, 64, 42, 49
169101784, 3379, 13161, -8908, -2111, 205, 972, -2201, 412, -24, 31, 514, 472, 469, 1227, 1030, 965, 415, 223
169102584, 3379, 13161, -8908, -2111, 205, 972, -2201, 412, -24, 31, 514, 472, 469, 1227, 1030, 965, 415, 223
169108765, 3336, 13168, -8922, -2075, 142, 1334, -2233, 400, -26, 29, 514, 472, 469, 1227, 1030, 965, 415, 223
169116722, 3336, 13168, -8922, -2075, 142, 1334, -2233, 400, -26, 29, 456, 421, 449, 1246, 1043, 889, 347, 205
169117575, 3336, 13168, -8922, -2075, 142, 1334, -2233, 400, -26, 29, 456, 421, 449, 1246, 1043, 889, 347, 205
169131137, 3353, 13161, -8923, -2083, 142, 1223, -2150, -69, -38, 3, 456, 421, 449, 1246, 1043, 889, 347, 205
169139286, 3353, 13161, -8923, -2083, 142, 1223, -2150, -69, -38, 3, 415, 409, 429, 1239, 1002, 855, 324, 182
169140135, 3353, 13161, -8923, -2083, 142, 1223, -2150, -69, -38, 3, 415, 409, 429, 1239, 1002, 855, 324, 182
169153614, 3368, 13158, -8922, -2086, 82, 1038, -2126, -124, 14, 4, 415, 409, 429, 1239, 1002, 855, 324, 182
169161766, 3368, 13158, -8922, -2086, 82, 1038, -2126, -124, 14, 4, 393, 392, 414, 1211, 1003, 785, 311, 176
169162620, 3368, 13158, -8922, -2086, 82, 1038, -2126, -124, 14, 4, 393, 392, 414, 1211, 1003, 785, 311, 176
169183642, 3366, 13159, -8926, -2064, 101, 1061, -2160, 43, 63, 21, 393, 392, 414, 1211, 1003, 785, 311, 176
169191766, 3366, 13159, -8926, -2064, 101, 1061, -2160, 43, 63, 21, 384, 346, 349, 1166, 900, 694, 292, 154
169192535, 3366, 13159, -8926, -2064, 101, 1061, -2160, 43, 63, 21, 384, 346, 349, 1166, 900, 694, 292, 154
169206148, 3364, 13158, -8934, -2041, 115, 1103, -2194, 56, 61, 46, 384, 346, 349, 1166, 900, 694, 292, 154
169214210, 3364, 13158, -8934, -2041, 115, 1103, -2194, 56, 61, 46, 397, 284, 314, 1214, 912, 711, 249, 133
169215067, 3364, 13158, -8934, -2041, 115, 1103, -2194, 56, 61, 46, 397, 284, 314, 1214, 912, 711, 249, 133
169221187, 3367, 13153, -8945, -2020, 137, 1120, -2201, 37, 50, 74, 397, 284, 314, 1214, 912, 711, 249, 133
169229276, 3367, 13153, -8945, -2020, 137, 1120, -2201, 37, 50, 74, 379, 317, 317, 1130, 819, 707, 269, 130
169230038, 3367, 13153, -8945, -2020, 137, 1120, -2201, 37, 50, 74, 379, 317, 317, 1130, 819, 707, 269, 130
169236210, 3389, 13143, -8957, -1998, 182, 1128, -2215, -53, 92, 98, 379, 317, 317, 1130, 819, 707, 269, 130
169244241, 3389, 13143, -8957, -1998, 182, 1128, -2215, -53, 92, 98, 334, 277, 352, 1186, 908, 714, 296, 135
169245176, 3389, 13143, -8957, -1998, 182, 1128, -2215, -53, 92, 98, 334, 277, 352, 1186, 908, 714, 296, 135
169251212, 3333, 13149, -8965, -2012, -213, 1145, -2645, 103, -97, 31, 334, 277, 352, 1186, 908, 714, 296, 135
169259300, 3333, 13149, -8965, -2012, -213, 1145, -2645, 103, -97, 31, 356, 254, 317, 1157, 941, 765, 300, 159
169260157, 3333, 13149, -8965, -2012, -213, 1145, -2645, 103, -97, 31, 356, 254, 317, 1157, 941, 765, 300, 159
169273610, 3311, 13138, -8987, -2023, 171, 1325, -2576, 66, -202, 81, 356, 254, 317, 1157, 941, 765, 300, 159
169281734, 3311, 13138, -8987, -2023, 171, 1325, -2576, 66, -202, 81, 334, 285, 340, 1101, 978, 767, 285, 167
169282571, 3311, 13138, -8987, -2023, 171, 1325, -2576, 66, -202, 81, 334, 285, 340, 1101, 978, 767, 285, 167
169288724, 3397, 13120, -8991, -1981, 369, 821, -1332, -214, 283, 101, 334, 285, 340, 1101, 978, 767, 285, 167
169296750, 3397, 13120, -8991, -1981, 369, 821, -1332, -214, 283, 101, 337, 284, 340, 1019, 984, 796, 288, 164
169297587, 3397, 13120, -8991, -1981, 369, 821, -1332, -214, 283, 101, 337, 284, 340, 1019, 984, 796, 288, 164
169311137, 3333, 13145, -8988, -1936, -214, 983, -3186, 127, 191, -8, 337, 284, 340, 1019, 984, 796, 288, 164
169319261, 3333, 13145, -8988, -1936, -214, 983, -3186, 127, 191, -8, 364, 248, 331, 1044, 996, 735, 234, 164
169320134, 3333, 13145, -8988, -1936, -214, 983, -3186, 127, 191, -8, 364, 248, 331, 1044, 996, 735, 234, 164
169333665, 3386, 13111, -9015, -1948, 539, 1166, -1259, -48, -180, 131, 364, 248, 331, 1044, 996, 735, 234, 164
169341778, 3386, 13111, -9015, -1948, 539, 1166, -1259, -48, -180, 131, 341, 433, 497, 1020, 922, 760, 203, 151
169342600, 3386, 13111, -9015, -1948, 539, 1166, -1259, -48, -180, 131, 341, 433, 497, 1020, 922, 760, 203, 151
169348712, 3330, 13132, -9017, -1891, 61, 1135, -3524, 122, 138, -19, 341, 433, 497, 1020, 922, 760, 203, 151
169356774, 3330, 13132, -9017, -1891, 61, 1135, -3524, 122, 138, -19, 298, 583, 641, 910, 854, 716, 209, 116
169357560, 3330, 13132, -9017, -1891, 61, 1135, -3524, 122, 138, -19, 298, 583, 641, 910, 854, 716, 209, 116
169371165, 3307, 13143, -8995, -1957, -939, 651, -1447, -146, 147, 24, 298, 583, 641, 910, 854, 716, 209, 116
169379234, 3307, 13143, -8995, -1957, -939, 651, -1447, -146, 147, 24, 289, 702, 748, 799, 895, 736, 203, 98
169380079, 3307, 13143, -8995, -1957, -939, 651, -1447, -146, 147, 24, 289, 702, 748, 799, 895, 736, 203, 98
169386226, 3417, 13091, -9050, -1865, 1791, 1426, -1406, 110, -184, 165, 289, 702, 748, 799, 895, 736, 203, 98
169401762, 3417, 13091, -9050, -1865, 1791, 1426, -1406, 110, -184, 165, 247, 814, 850, 745, 925, 773, 267, 111
169402535, 3417, 13091, -9050, -1865, 1791, 1426, -1406, 110, -184, 165, 247, 814, 850, 745, 925, 773, 267, 111
169408728, 3355, 13124, -9052, -1731, 809, 1271, -3737, 433, 139, -136, 247, 814, 850, 745, 925, 773, 267, 111
169416742, 3355, 13124, -9052, -1731, 809, 1271, -3737, 433, 139, -136, 194, 873, 904, 652, 974, 864, 341, 117
169417572, 3355, 13124, -9052, -1731, 809, 1271, -3737, 433, 139, -136, 194, 873, 904, 652, 974, 864, 341, 117
169431136, 3111, 13219, -8997, -1755, -2050, 465, -3231, 572, 356, -211, 194, 873, 904, 652, 974, 864, 341, 117
169439211, 3111, 13219, -8997, -1755, -2050, 465, -3231, 572, 356, -211, 223, 894, 834, 460, 975, 900, 437, 141
169440041, 3111, 13219, -8997, -1755, -2050, 465, -3231, 572, 356, -211, 223, 894, 834, 460, 975, 900, 437, 141
169446186, 2989, 13248, -9007, -1690, -791, 790, -1601, 827, 348, 145, 223, 894, 834, 460, 975, 900, 437, 141
169461714, 2989, 13248, -9007, -1690, -791, 790, -1601, 827, 348, 145, 234, 860, 729, 444, 1000, 939, 449, 166
169462527, 2989, 13248, -9007, -1690, -791, 790, -1601, 827, 348, 145, 234, 860, 729, 444, 1000, 939, 449, 166
169468686, 2919, 13256, -9044, -1545, 318, 1210, -2258, 913, 300, 210, 234, 860, 729, 444, 1000, 939, 449, 166
169476732, 2919, 13256, -9044, -1545, 318, 1210, -2258, 913, 300, 210, 253, 859, 605, 438, 905, 911, 454, 169
169477561, 2919, 13256, -9044, -1545, 318, 1210, -2258, 913, 300, 210, 253, 859, 605, 438, 905, 911, 454, 169
169491165, 2870, 13265, -9067, -1423, 229, 1224, -2307, 761, 330, 159, 253, 859, 605, 438, 905, 911, 454, 169
169499240, 2870, 13265, -9067, -1423, 229, 1224, -2307, 761, 330, 159, 276, 804, 438, 397, 804, 810, 430, 165
169500038, 2870, 13265, -9067, -1423, 229, 1224, -2307, 761, 330, 159, 276, 804, 438, 397, 804, 810, 430, 165
169516315, 2795, 13273, -9096, -1304, 254, 885, -2308, 720, 233, 166, 276, 804, 438, 397, 804, 810, 430, 165
169517157, 2795, 13273, -9096, -1304, 254, 885, -2308, 720, 233, 166, 276, 804, 438, 397, 804, 810, 430, 165
169517962, 2795, 13273, -9096, -1304, 254, 885, -2308, 720, 233, 166, 379, 317, 317, 1130, 819, 707, 269, 130
169518760, 2795, 13273, -9096, -1304, 254, 885, -2308, 720, 233, 166, 379, 317, 317, 1130, 819, 707, 269, 130
169523909, 3389, 13143, -8957, -1998, 182, 1128, -2215, -53, 92, 98, 379, 317, 317, 1130, 819, 707, 269, 130
169524685, 3389, 13143, -8957, -1998, 182, 1128, -2215, -53, 92, 98, 334, 277, 352, 1186, 908, 714, 296, 135
169525538, 3389, 13143, -8957, -1998, 182, 1128, -2215, -53, 92, 98, 334, 277, 352, 1186, 908, 714, 296, 135
169526356, 3389, 13143, -8957, -1998, 182, 1128, -2215, -53, 92, 98, 334, 277, 352, 1186, 908, 714, 296, 135
169538696, 3389, 13143, -8957, -1998, 182, 1128, -2215, -53, 92, 98, 334, 277, 352, 1186, 908, 714, 296, 135
169539510, 3389, 13143, -8957, -1998, 182, 1128, -2215, -53, 92, 98, 334, 277, 352, 1186, 908, 714, 296, 135
169540350, 3389, 13143, -8957, -1998, 182, 1128, -2215, -53, 92, 98, 334, 277, 352, 1186, 908, 714, 296, 135
169541156, 3389, 13143, -8957, -1998, 182, 1128, -2215, -53, 92, 98, 334, 277, 352, 1186, 908, 714, 296, 135
169546286, 3389, 13143, -8957, -1998, 182, 1128, -2215, -53, 92, 98, 334, 277, 352, 1186, 908, 714, 296, 135
169547186, 3333, 13149, -8965, -2012, -213, 1145, -2645, 103, -97, 31, 334, 277, 352, 1186, 908, 714, 296, 135
169548023, 3333, 13149, -8965, -2012, -213, 1145, -2645, 103, -97, 31, 356, 254, 317, 1157, 941, 765, 300, 159
169548857, 3333, 13149, -8965, -2012, -213, 1145, -2645, 103, -97, 31, 356, 254, 317, 1157, 941, 765, 300, 159
169553835, 3333, 13149, -8965, -2012, -213, 1145, -2645, 103, -97, 31, 356, 254, 317, 1157, 941, 765, 300, 159
169554687, 3333, 13149, -8965, -2012, -213, 1145, -2645, 103, -97, 31, 356, 254, 317, 1157, 941, 765, 300, 159
169555460, 3333, 13149, -8965, -2012, -213, 1145, -2645, 103, -97, 31, 356, 254, 317, 1157, 941, 765, 300, 159
169556325, 3333, 13149, -8965, -2012, -213, 1145, -2645, 103, -97, 31, 356, 254, 317, 1157, 941, 765, 300, 159
169561237, 3333, 13149, -8965, -2012, -213, 1145, -2645, 103, -97, 31, 356, 254, 317, 1157, 941, 765, 300, 159
169562047, 3333, 13149, -8965, -2012, -213, 1145, -2645, 103, -97, 31, 356, 254, 317, 1157, 941, 765, 300, 159
169562861, 3333, 13149, -8965, -2012, -213, 1145, -2645, 103, -97, 31, 356, 254, 317, 1157, 941, 765, 300, 159
169563682, 3333, 13149, -8965, -2012, -213, 1145, -2645, 103, -97, 31, 356, 254, 317, 1157, 941, 765, 300, 159
169568890, 3311, 13138, -8987, -2023, 171, 1325, -2576, 66, -202, 81, 356, 254, 317, 1157, 941, 765, 300, 159
169569690, 3311, 13138, -8987, -2023, 171, 1325, -2576, 66, -202, 81, 334, 285, 340, 1101, 978, 767, 285, 167
169570487, 3311, 13138, -8987, -2023, 171, 1325, -2576, 66, -202, 81, 334, 285, 340, 1101, 978, 767, 285, 167
169571319, 3311, 13138, -8987, -2023, 171, 1325, -2576, 66, -202, 81, 334, 285, 340, 1101, 978, 767, 285, 167
169576242, 3311, 13138, -8987, -2023, 171, 1325, -2576, 66, -202, 81, 334, 285, 340, 1101, 978, 767, 285, 167
169577040, 3311, 13138, -8987, -2023, 171, 1325, -2576, 66, -202, 81, 334, 285, 340, 1101, 978, 767, 285, 167
169577817, 3311, 13138, -8987, -2023, 171, 1325, -2576, 66, -202, 81, 334, 285, 340, 1101, 978, 767, 285, 167
169578662, 3311, 13138, -8987, -2023, 171, 1325, -2576, 66, -202, 81, 334, 285, 340, 1101, 978, 767, 285, 167
169583784, 3311, 13138, -8987, -2023, 171, 1325, -2576, 66, -202, 81, 334, 285, 340, 1101, 978, 767, 285, 167
169584759, 3397, 13120, -8991, -1981, 369, 821, -1332, -214, 283, 101, 334, 285, 340, 1101, 978, 767, 285, 167
169585519, 3397, 13120, -8991, -1981, 369, 821, -1332, -214, 283, 101, 337, 284, 340, 1019, 984, 796, 288, 164
169586357, 3397, 13120, -8991, -1981, 369, 821, -1332, -214, 283, 101, 337, 284, 340, 1019, 984, 796, 288, 164
169591373, 3397, 13120, -8991, -1981, 369, 821, -1332, -214, 283, 101, 337, 284, 340, 1019, 984, 796, 288, 164
169592185, 3397, 13120, -8991, -1981, 369, 821, -1332, -214, 283, 101, 337, 284, 340, 1019, 984, 796, 288, 164
169592986, 3397, 13120, -8991, -1981, 369, 821, -1332, -214, 283, 101, 337, 284, 340, 1019, 984, 796, 288, 164
169593785, 3397, 13120, -8991, -1981, 369, 821, -1332, -214, 283, 101, 337, 284, 340, 1019, 984, 796, 288, 164
169598770, 3397, 13120, -8991, -1981, 369, 821, -1332, -214, 283, 101, 337, 284, 340, 1019, 984, 796, 288, 164
169599566, 3397, 13120, -8991, -1981, 369, 821, -1332, -214, 283, 101, 337, 284, 340, 1019, 984, 796, 288, 164
169600387, 3397, 13120, -8991, -1981, 369, 821, -1332, -214, 283, 101, 337, 284, 340, 1019, 984, 796, 288, 164
169601188, 3397, 13120, -8991, -1981, 369, 821, -1332, -214, 283, 101, 337, 284, 340, 1019, 984, 796, 288, 164
169606246, 3397, 13120, -8991, -1981, 369, 821, -1332, -214, 283, 101, 337, 284, 340, 1019, 984, 796, 288, 164
169607197, 3333, 13145, -8988, -1936, -214, 983, -3186, 127, 191, -8, 337, 284, 340, 1019, 984, 796, 288, 164
169607993, 3333, 13145, -8988, -1936, -214, 983, -3186, 127, 191, -8, 364, 248, 331, 1044, 996, 735, 234, 164
169608814, 3333, 13145, -8988, -1936, -214, 983, -3186, 127, 191, -8, 364, 248, 331, 1044, 996, 735, 234, 164
169613810, 3333, 13145, -8988, -1936, -214, 983, -3186, 127, 191, -8, 364, 248, 331, 1044, 996, 735, 234, 164
169614664, 3333, 13145, -8988, -1936, -214, 983, -3186, 127, 191, -8, 364, 248, 331, 1044, 996, 735, 234, 164
169615435, 3333, 13145, -8988, -1936, -214, 983, -3186, 127, 191, -8, 364, 248, 331, 1044, 996, 735, 234, 164
169616243, 3333, 13145, -8988, -1936, -214, 983, -3186, 127, 191, -8, 364, 248, 331, 1044, 996, 735, 234, 164
169621216, 3333, 13145, -8988, -1936, -214, 983, -3186, 127, 191, -8, 364, 248, 331, 1044, 996, 735, 234, 164
169622023, 3333, 13145, -8988, -1936, -214, 983, -3186, 127, 191, -8, 364, 248, 331, 1044, 996, 735, 234, 164
169622865, 3333, 13145, -8988, -1936, -214, 983, -3186, 127, 191, -8, 364, 248, 331, 1044, 996, 735, 234, 164
169623672, 3333, 13145, -8988, -1936, -214, 983, -3186, 127, 191, -8, 364, 248, 331, 1044, 996, 735, 234, 164
169628721, 3333, 13145, -8988, -1936, -214, 983, -3186, 127, 191, -8, 364, 248, 331, 1044, 996, 735, 234, 164
169629662, 3386, 13111, -9015, -1948, 539, 1166, -1259, -48, -180, 131, 364, 248, 331, 1044, 996, 735, 234, 164
169630499, 3386, 13111, -9015, -1948, 539, 1166, -1259, -48, -180, 131, 341, 433, 497, 1020, 922, 760, 203, 151
169631307, 3386, 13111, -9015, -1948, 539, 1166, -1259, -48, -180, 131, 341, 433, 497, 1020, 922, 760, 203, 151
169636325, 3386, 13111, -9015, -1948, 539, 1166, -1259, -48, -180, 131, 341, 433, 497, 1020, 922, 760, 203, 151
169637134, 3386, 13111, -9015, -1948, 539, 1166, -1259, -48, -180, 131, 341, 433, 497, 1020, 922, 760, 203, 151
169637954, 3386, 13111, -9015, -1948, 539, 1166, -1259, -48, -180, 131, 341, 433, 497, 1020, 922, 760, 203, 151
169638748, 3386, 13111, -9015, -1948, 539, 1166, -1259, -48, -180, 131, 341, 433, 497, 1020, 922, 760, 203, 151
169651232, 3386, 13111, -9015, -1948, 539, 1166, -1259, -48, -180, 131, 341, 433, 497, 1020, 922, 760, 203, 151
169652038, 3386, 13111, -9015, -1948, 539, 1166, -1259, -48, -180, 131, 341, 433, 497, 1020, 922, 760, 203, 151
169652861, 3386, 13111, -9015, -1948, 539, 1166, -1259, -48, -180, 131, 341, 433, 497, 1020, 922, 760, 203, 151
169653661, 3386, 13111, -9015, -1948, 539, 1166, -1259, -48, -180, 131, 341, 433, 497, 1020, 922, 760, 203, 151
169658853, 3330, 13132, -9017, -1891, 61, 1135, -3524, 122, 138, -19, 341, 433, 497, 1020, 922, 760, 203, 151
169659635, 3330, 13132, -9017, -1891, 61, 1135, -3524, 122, 138, -19, 298, 583, 641, 910, 854, 716, 209, 116
169660459, 3330, 13132, -9017, -1891, 61, 1135, -3524, 122, 138, -19, 298, 583, 641, 910, 854, 716, 209, 116
169661328, 3330, 13132, -9017, -1891, 61, 1135, -3524, 122, 138, -19, 298, 583, 641, 910, 854, 716, 209, 116
169664914, 3330, 13132, -9017, -1891, 61, 1135, -3524, 122, 138, -19, 298, 583, 641, 910, 854, 716, 209, 116
169665685, 3330, 13132, -9017, -1891, 61, 1135, -3524, 122, 138, -19, 298, 583, 641, 910, 854, 716, 209, 116
169666552, 3330, 13132, -9017, -1891, 61, 1135, -3524, 122, 138, -19, 298, 583, 641, 910, 854, 716, 209, 116
169671136, 2472, 13265, -9239, -1004, 169, 1028, -2474, 188, 34, 40, 298, 583, 641, 910, 854, 716, 209, 116
169679663, 2472, 13265, -9239, -1004, 169, 1028, -2474, 188, 34, 40, 106, 351, 102, 174, 336, 121, 147, 51
169686735, 2472, 13265, -9239, -1004, 169, 1028, -2474, 188, 34, 40, 106, 351, 102, 174, 336, 121, 147, 51
169687709, 2469, 13265, -9239, -1011, 176, 1100, -2489, 137, -36, 5, 106, 351, 102, 174, 336, 121, 147, 51
169709988, 2469, 13265, -9239, -1011, 176, 1100, -2489, 137, -36, 5, 102, 321, 89, 161, 356, 99, 75, 48
169710777, 2469, 13265, -9239, -1011, 176, 1100, -2489, 137, -36, 5, 102, 321, 89, 161, 356, 99, 75, 48
169711687, 2480, 13262, -9237, -1031, 180, 1110, -2458, 40, -58, -2, 102, 321, 89, 161, 356, 99, 75, 48
169724871, 2480, 13262, -9237, -1031, 180, 1110, -2458, 40, -58, -2, 84, 285, 86, 153, 341, 95, 62, 46
169725684, 2480, 13262, -9237, -1031, 180, 1110, -2458, 40, -58, -2, 84, 285, 86, 153, 341, 95, 62, 46
169726621, 2480, 13262, -9237, -1031, 180, 1110, -2458, 40, -58, -2, 84, 285, 86, 153, 341, 95, 62, 46
169741362, 2499, 13259, -9235, -1052, 163, 1073, -2452, -29, -31, 0, 84, 285, 86, 153, 341, 95, 62, 46
169742200, 2499, 13259, -9235, -1052, 163, 1073, -2452, -29, -31, 0, 70, 231, 67, 113, 315, 85, 56, 45
169742988, 2499, 13259, -9235, -1052, 163, 1073, -2452, -29, -31, 0, 70, 231, 67, 113, 315, 85, 56, 45
169743832, 2499, 13259, -9235, -1052, 163, 1073, -2452, -29, -31, 0, 70, 231, 67, 113, 315, 85, 56, 45
169748759, 2499, 13259, -9235, -1052, 163, 1073, -2452, -29, -31, 0, 70, 231, 67, 113, 315, 85, 56, 45
169749593, 2499, 13259, -9235, -1052, 163, 1073, -2452, -29, -31, 0, 70, 231, 67, 113, 315, 85, 56, 45
169750385, 2499, 13259, -9235, -1052, 163, 1073, -2452, -29, -31, 0, 70, 231, 67, 113, 315, 85, 56, 45
169751211, 2499, 13259, -9235, -1052, 163, 1073, -2452, -29, -31, 0, 70, 231, 67, 113, 315, 85, 56, 45
169753686, 2507, 13258, -9233, -1057, 164, 1037, -2432, 53, 10, 4, 70, 231, 67, 113, 315, 85, 56, 45
169761767, 2507, 13258, -9233, -1057, 164, 1037, -2432, 53, 10, 4, 68, 230, 67, 106, 237, 65, 50, 42
169762560, 2507, 13258, -9233, -1057, 164, 1037, -2432, 53, 10, 4, 68, 230, 67, 106, 237, 65, 50, 42
169768751, 2515, 13256, -9233, -1063, 160, 1060, -2430, 68, 2, 10, 68, 230, 67, 106, 237, 65, 50, 42
169784235, 2515, 13256, -9233, -1063, 160, 1060, -2430, 68, 2, 10, 62, 223, 63, 125, 214, 63, 49, 39
169785038, 2515, 13256, -9233, -1063, 160, 1060, -2430, 68, 2, 10, 62, 223, 63, 125, 214, 63, 49, 39
169791230, 2529, 13255, -9230, -1075, 170, 1069, -2439, 19, -8, -3, 62, 223, 63, 125, 214, 63, 49, 39
169799249, 2529, 13255, -9230, -1075, 170, 1069, -2439, 19, -8, -3, 52, 188, 63, 118, 163, 55, 50, 39
169800120, 2529, 13255, -9230, -1075, 170, 1069, -2439, 19, -8, -3, 52, 188, 63, 118, 163, 55, 50, 39
169806187, 2532, 13254, -9229, -1078, 167, 1032, -2442, 5, -8, 0, 52, 188, 63, 118, 163, 55, 50, 39
169821767, 2532, 13254, -9229, -1078, 167, 1032, -2442, 5, -8, 0, 39, 151, 60, 116, 135, 43, 45, 31
169822541, 2532, 13254, -9229, -1078, 167, 1032, -2442, 5, -8, 0, 39, 151, 60, 116, 135, 43, 45, 31
169828693, 2542, 13253, -9227, -1088, 160, 1025, -2427, 19, -4, -1, 39, 151, 60, 116, 135, 43, 45, 31
