Timestamp, Orientation x, Orientation y, Orientation z, Orientation w, Acceleration x, Acceleration y, Acceleration z, Rotation x, Rotation y, Rotation z, EMG 0, EMG 1, EMG 2, EMG 3, EMG 4, EMG 5, EMG 6, EMG 7
216920232, 3469, 14278, -6947, 2066, 988, 971, -3546, -89, 340, 101, 0, 0, 0, 0, 0, 0, 0, 0
216921034, 3477, 14272, -6953, 2069, 1015, 984, -3548, -77, 328, 112, 0, 0, 0, 0, 0, 0, 0, 0
216942063, 3484, 14266, -6961, 2073, 1056, 1026, -3589, -62, 320, 127, 0, 0, 0, 0, 0, 0, 0, 0
216964525, 3493, 14259, -6970, 2080, 1088, 1031, -3622, -73, 329, 134, 0, 0, 0, 0, 0, 0, 0, 0
216980257, 3501, 14249, -6978, 2104, 1146, 1045, -3642, -20, 399, 154, 0, 0, 0, 0, 0, 0, 0, 0
216980998, 3501, 14249, -6978, 2104, 1146, 1045, -3642, -20, 399, 154, 74, 93, 58, 26, 27, 32, 58, 154
216986986, 3501, 14249, -6978, 2104, 1146, 1045, -3642, -20, 399, 154, 74, 93, 58, 26, 27, 32, 58, 154
217003429, 3523, 14237, -6980, 2143, 1208, 1124, -3686, -22, 507, 151, 74, 93, 58, 26, 27, 32, 58, 154
217004218, 3523, 14237, -6980, 2143, 1208, 1124, -3686, -22, 507, 151, 82, 72, 53, 25, 28, 35, 58, 173
217005036, 3523, 14237, -6980, 2143, 1208, 1124, -3686, -22, 507, 151, 82, 72, 53, 25, 28, 35, 58, 173
217025886, 3560, 14220, -6985, 2180, 1267, 1145, -3786, -118, 539, 159, 82, 72, 53, 25, 28, 35, 58, 173
217026661, 3560, 14220, -6985, 2180, 1267, 1145, -3786, -118, 539, 159, 86, 74, 51, 25, 32, 39, 65, 173
217027492, 3560, 14220, -6985, 2180, 1267, 1145, -3786, -118, 539, 159, 86, 74, 51, 25, 32, 39, 65, 173
217039564, 3609, 14198, -6989, 2232, 1375, 1207, -3844, -128, 632, 184, 86, 74, 51, 25, 32, 39, 65, 173
217047688, 3609, 14198, -6989, 2232, 1375, 1207, -3844, -128, 632, 184, 84, 96, 53, 26, 33, 48, 84, 183
217048453, 3609, 14198, -6989, 2232, 1375, 1207, -3844, -128, 632, 184, 84, 96, 53, 26, 33, 48, 84, 183
217063450, 3674, 14167, -6988, 2322, 1483, 1217, -3882, -134, 850, 208, 84, 96, 53, 26, 33, 48, 84, 183
217064182, 3674, 14167, -6988, 2322, 1483, 1217, -3882, -134, 850, 208, 86, 139, 49, 26, 33, 56, 92, 180
217064967, 3674, 14167, -6988, 2322, 1483, 1217, -3882, -134, 850, 208, 86, 139, 49, 26, 33, 56, 92, 180
217085907, 3759, 14128, -6981, 2438, 1512, 1178, -3938, -212, 1086, 207, 86, 139, 49, 26, 33, 56, 92, 180
217086684, 3759, 14128, -6981, 2438, 1512, 1178, -3938, -212, 1086, 207, 90, 137, 42, 27, 39, 125, 122, 161
217087496, 3759, 14128, -6981, 2438, 1512, 1178, -3938, -212, 1086, 207, 90, 137, 42, 27, 39, 125, 122, 161
217099560, 3867, 14080, -6974, 2567, 1574, 1160, -3996, -339, 1242, 223, 90, 137, 42, 27, 39, 125, 122, 161
217107665, 3867, 14080, -6974, 2567, 1574, 1160, -3996, -339, 1242, 223, 81, 140, 42, 29, 39, 132, 133, 150
217108463, 3867, 14080, -6974, 2567, 1574, 1160, -3996, -339, 1242, 223, 81, 140, 42, 29, 39, 132, 133, 150
217123362, 3981, 14020, -6970, 2728, 1715, 1137, -4013, -329, 1416, 287, 81, 140, 42, 29, 39, 132, 133, 150
217124145, 3981, 14020, -6970, 2728, 1715, 1137, -4013, -329, 1416, 287, 80, 192, 50, 29, 37, 144, 136, 154
217124964, 3981, 14020, -6970, 2728, 1715, 1137, -4013, -329, 1416, 287, 80, 192, 50, 29, 37, 144, 136, 154
217145980, 4123, 13945, -6946, 2953, 1813, 1137, -4001, -246, 1605, 248, 80, 192, 50, 29, 37, 144, 136, 154
217146752, 4123, 13945, -6946, 2953, 1813, 1137, -4001, -246, 1605, 248, 79, 237, 50, 28, 37, 152, 128, 136
217147538, 4123, 13945, -6946, 2953, 1813, 1137, -4001, -246, 1605, 248, 79, 237, 50, 28, 37, 152, 128, 136
217159538, 4273, 13870, -6899, 3192, 1894, 1221, -3991, -228, 1730, 155, 79, 237, 50, 28, 37, 152, 128, 136
217167685, 4273, 13870, -6899, 3192, 1894, 1221, -3991, -228, 1730, 155, 107, 379, 55, 42, 37, 177, 134, 139
217168460, 4273, 13870, -6899, 3192, 1894, 1221, -3991, -228, 1730, 155, 107, 379, 55, 42, 37, 177, 134, 139
217183384, 4447, 13791, -6836, 3425, 1920, 1287, -4005, -339, 1807, 66, 107, 379, 55, 42, 37, 177, 134, 139
217184152, 4447, 13791, -6836, 3425, 1920, 1287, -4005, -339, 1807, 66, 107, 415, 71, 106, 39, 156, 134, 113
217184977, 4447, 13791, -6836, 3425, 1920, 1287, -4005, -339, 1807, 66, 107, 415, 71, 106, 39, 156, 134, 113
217205864, 4646, 13708, -6755, 3644, 1888, 1307, -3955, -485, 1856, -56, 107, 415, 71, 106, 39, 156, 134, 113
217206627, 4646, 13708, -6755, 3644, 1888, 1307, -3955, -485, 1856, -56, 112, 434, 82, 200, 46, 190, 132, 90
217207473, 4646, 13708, -6755, 3644, 1888, 1307, -3955, -485, 1856, -56, 112, 434, 82, 200, 46, 190, 132, 90
217219539, 4856, 13623, -6674, 3833, 1858, 1268, -3915, -619, 1756, -112, 112, 434, 82, 200, 46, 190, 132, 90
217227677, 4856, 13623, -6674, 3833, 1858, 1268, -3915, -619, 1756, -112, 121, 455, 108, 223, 46, 185, 131, 74
217228479, 4856, 13623, -6674, 3833, 1858, 1268, -3915, -619, 1756, -112, 121, 455, 108, 223, 46, 185, 131, 74
217243376, 4992, 13577, -6624, 3911, 1752, 1273, -3844, -639, 1516, -27, 121, 455, 108, 223, 46, 185, 131, 74
217244176, 4992, 13577, -6624, 3911, 1752, 1273, -3844, -639, 1516, -27, 143, 465, 114, 263, 51, 179, 133, 78
217245009, 4992, 13577, -6624, 3911, 1752, 1273, -3844, -639, 1516, -27, 143, 465, 114, 263, 51, 179, 133, 78
217265868, 5102, 13542, -6585, 3954, 1712, 1477, -3743, -518, 1267, 55, 143, 465, 114, 263, 51, 179, 133, 78
217266671, 5102, 13542, -6585, 3954, 1712, 1477, -3743, -518, 1267, 55, 141, 414, 116, 289, 53, 155, 120, 65
217267462, 5102, 13542, -6585, 3954, 1712, 1477, -3743, -518, 1267, 55, 141, 414, 116, 289, 53, 155, 120, 65
217279623, 5209, 13511, -6579, 3930, 1563, 1547, -3702, -690, 943, 124, 141, 414, 116, 289, 53, 155, 120, 65
217287615, 5209, 13511, -6579, 3930, 1563, 1547, -3702, -690, 943, 124, 163, 408, 108, 285, 50, 137, 86, 61
217288457, 5209, 13511, -6579, 3930, 1563, 1547, -3702, -690, 943, 124, 163, 408, 108, 285, 50, 137, 86, 61
217303335, 5293, 13477, -6632, 3846, 1353, 1558, -3613, -812, 551, 362, 163, 408, 108, 285, 50, 137, 86, 61
217304121, 5293, 13477, -6632, 3846, 1353, 1558, -3613, -812, 551, 362, 173, 403, 108, 287, 48, 81, 73, 61
217304939, 5293, 13477, -6632, 3846, 1353, 1558, -3613, -812, 551, 362, 173, 403, 108, 287, 48, 81, 73, 61
217325891, 5333, 13445, -6725, 3741, 1224, 1817, -3478, -583, 267, 672, 173, 403, 108, 287, 48, 81, 73, 61
217326646, 5333, 13445, -6725, 3741, 1224, 1817, -3478, -583, 267, 672, 180, 409, 88, 297, 47, 72, 65, 61
217327469, 5333, 13445, -6725, 3741, 1224, 1817, -3478, -583, 267, 672, 180, 409, 88, 297, 47, 72, 65, 61
217339615, 5362, 13398, -6878, 3584, 950, 2037, -3339, -653, -50, 1015, 180, 409, 88, 297, 47, 72, 65, 61
217347734, 5362, 13398, -6878, 3584, 950, 2037, -3339, -653, -50, 1015, 184, 423, 79, 322, 48, 66, 61, 63
217348465, 5362, 13398, -6878, 3584, 950, 2037, -3339, -653, -50, 1015, 184, 423, 79, 322, 48, 66, 61, 63
217363439, 5358, 13318, -7140, 3370, 753, 2006, -3218, -819, -542, 1541, 184, 423, 79, 322, 48, 66, 61, 63
217364209, 5358, 13318, -7140, 3370, 753, 2006, -3218, -819, -542, 1541, 214, 532, 72, 369, 57, 60, 63, 71
217364988, 5358, 13318, -7140, 3370, 753, 2006, -3218, -819, -542, 1541, 214, 532, 72, 369, 57, 60, 63, 71
217385874, 5272, 13175, -7487, 3317, 722, 2303, -3099, -322, -731, 2088, 214, 532, 72, 369, 57, 60, 63, 71
217386680, 5272, 13175, -7487, 3317, 722, 2303, -3099, -322, -731, 2088, 218, 665, 77, 534, 68, 58, 65, 79
217387476, 5272, 13175, -7487, 3317, 722, 2303, -3099, -322, -731, 2088, 218, 665, 77, 534, 68, 58, 65, 79
217399572, 5146, 13002, -7901, 3236, 695, 2084, -3191, -356, -1039, 2448, 218, 665, 77, 534, 68, 58, 65, 79
217407669, 5146, 13002, -7901, 3236, 695, 2084, -3191, -356, -1039, 2448, 268, 793, 76, 650, 72, 50, 68, 87
217408481, 5146, 13002, -7901, 3236, 695, 2084, -3191, -356, -1039, 2448, 268, 793, 76, 650, 72, 50, 68, 87
217423440, 4937, 12788, -8398, 3160, 725, 2048, -3197, -123, -1342, 3028, 268, 793, 76, 650, 72, 50, 68, 87
217424314, 4937, 12788, -8398, 3160, 725, 2048, -3197, -123, -1342, 3028, 290, 814, 68, 726, 81, 57, 72, 96
217425033, 4937, 12788, -8398, 3160, 725, 2048, -3197, -123, -1342, 3028, 290, 814, 68, 726, 81, 57, 72, 96
217445830, 4650, 12518, -8976, 3086, 850, 1947, -3351, 51, -1642, 3618, 290, 814, 68, 726, 81, 57, 72, 96
217446774, 4650, 12518, -8976, 3086, 850, 1947, -3351, 51, -1642, 3618, 326, 866, 73, 723, 85, 88, 107, 102
217447507, 4650, 12518, -8976, 3086, 850, 1947, -3351, 51, -1642, 3618, 326, 866, 73, 723, 85, 88, 107, 102
217459510, 4279, 12184, -9609, 3056, 979, 1731, -3458, 395, -1753, 4194, 326, 866, 73, 723, 85, 88, 107, 102
217467669, 4279, 12184, -9609, 3056, 979, 1731, -3458, 395, -1753, 4194, 325, 822, 75, 704, 84, 92, 130, 103
217468473, 4279, 12184, -9609, 3056, 979, 1731, -3458, 395, -1753, 4194, 325, 822, 75, 704, 84, 92, 130, 103
217483402, 3780, 11759, -10314, 3078, 986, 1611, -3527, 914, -1967, 5005, 325, 822, 75, 704, 84, 92, 130, 103
217484160, 3780, 11759, -10314, 3078, 986, 1611, -3527, 914, -1967, 5005, 315, 775, 73, 640, 82, 93, 131, 99
217484978, 3780, 11759, -10314, 3078, 986, 1611, -3527, 914, -1967, 5005, 315, 775, 73, 640, 82, 93, 131, 99
217505858, 3191, 11264, -11037, 3090, 918, 1250, -3501, 1139, -2299, 5388, 315, 775, 73, 640, 82, 93, 131, 99
217506628, 3191, 11264, -11037, 3090, 918, 1250, -3501, 1139, -2299, 5388, 291, 694, 65, 508, 82, 96, 135, 97
217507472, 3191, 11264, -11037, 3090, 918, 1250, -3501, 1139, -2299, 5388, 291, 694, 65, 508, 82, 96, 135, 97
217519547, 2537, 10733, -11710, 3109, 867, 1317, -3394, 1478, -2452, 5410, 291, 694, 65, 508, 82, 96, 135, 97
217527781, 2537, 10733, -11710, 3109, 867, 1317, -3394, 1478, -2452, 5410, 369, 716, 62, 442, 93, 95, 180, 116
217528686, 2537, 10733, -11710, 3109, 867, 1317, -3394, 1478, -2452, 5410, 369, 716, 62, 442, 93, 95, 180, 116
217543409, 1852, 10142, -12343, 3131, 809, 1313, -3334, 1639, -2485, 5537, 369, 716, 62, 442, 93, 95, 180, 116
217544171, 1852, 10142, -12343, 3131, 809, 1313, -3334, 1639, -2485, 5537, 401, 804, 56, 420, 118, 98, 294, 127
217544975, 1852, 10142, -12343, 3131, 809, 1313, -3334, 1639, -2485, 5537, 401, 804, 56, 420, 118, 98, 294, 127
217565874, 1137, 9475, -12942, 3144, 700, 1225, -3292, 1719, -2568, 5759, 401, 804, 56, 420, 118, 98, 294, 127
217566673, 1137, 9475, -12942, 3144, 700, 1225, -3292, 1719, -2568, 5759, 394, 836, 102, 452, 117, 98, 372, 127
217567463, 1137, 9475, -12942, 3144, 700, 1225, -3292, 1719, -2568, 5759, 394, 836, 102, 452, 117, 98, 372, 127
217579536, 409, 8790, -13463, 3123, 527, 1520, -3161, 1747, -2706, 5580, 394, 836, 102, 452, 117, 98, 372, 127
217587634, 409, 8790, -13463, 3123, 527, 1520, -3161, 1747, -2706, 5580, 420, 884, 156, 387, 121, 102, 449, 129
217588452, 409, 8790, -13463, 3123, 527, 1520, -3161, 1747, -2706, 5580, 420, 884, 156, 387, 121, 102, 449, 129
217603362, -251, 8147, -13905, 2940, 337, 1763, -3165, 938, -2924, 5035, 420, 884, 156, 387, 121, 102, 449, 129
217604147, -251, 8147, -13905, 2940, 337, 1763, -3165, 938, -2924, 5035, 423, 923, 171, 400, 122, 112, 619, 139
217604938, -251, 8147, -13905, 2940, 337, 1763, -3165, 938, -2924, 5035, 423, 923, 171, 400, 122, 112, 619, 139
217625861, -797, 7593, -14274, 2529, 5, 1503, -3163, -436, -3113, 4268, 423, 923, 171, 400, 122, 112, 619, 139
217626651, -797, 7593, -14274, 2529, 5, 1503, -3163, -436, -3113, 4268, 357, 892, 173, 345, 113, 148, 645, 126
217627485, -797, 7593, -14274, 2529, 5, 1503, -3163, -436, -3113, 4268, 357, 892, 173, 345, 113, 148, 645, 126
217639554, -1262, 7100, -14581, 1958, -183, 684, -3167, -1500, -3224, 3760, 357, 892, 173, 345, 113, 148, 645, 126
217647699, -1262, 7100, -14581, 1958, -183, 684, -3167, -1500, -3224, 3760, 313, 823, 183, 400, 97, 136, 610, 133
217648507, -1262, 7100, -14581, 1958, -183, 684, -3167, -1500, -3224, 3760, 313, 823, 183, 400, 97, 136, 610, 133
217663356, -1702, 6654, -14809, 1400, -58, -88, -3108, -1585, -3196, 3318, 313, 823, 183, 400, 97, 136, 610, 133
217664215, -1702, 6654, -14809, 1400, -58, -88, -3108, -1585, -3196, 3318, 410, 793, 354, 380, 104, 231, 650, 150
217665035, -1702, 6654, -14809, 1400, -58, -88, -3108, -1585, -3196, 3318, 410, 793, 354, 380, 104, 231, 650, 150
217686345, -2125, 6238, -14968, 988, -24, -296, -3252, -904, -2865, 2915, 410, 793, 354, 380, 104, 231, 650, 150
217687121, -2125, 6238, -14968, 988, -24, -296, -3252, -904, -2865, 2915, 416, 978, 523, 463, 105, 451, 679, 154
217687964, -2125, 6238, -14968, 988, -24, -296, -3252, -904, -2865, 2915, 416, 978, 523, 463, 105, 451, 679, 154
217699569, -2552, 5821, -15085, 705, 257, 32, -3631, -168, -2718, 2743, 416, 978, 523, 463, 105, 451, 679, 154
217707666, -2552, 5821, -15085, 705, 257, 32, -3631, -168, -2718, 2743, 412, 1106, 781, 464, 109, 465, 533, 145
217708475, -2552, 5821, -15085, 705, 257, 32, -3631, -168, -2718, 2743, 412, 1106, 781, 464, 109, 465, 533, 145
217723348, -2944, 5494, -15147, 404, 850, 359, -4114, -359, -2769, 2177, 412, 1106, 781, 464, 109, 465, 533, 145
217724152, -2944, 5494, -15147, 404, 850, 359, -4114, -359, -2769, 2177, 415, 1119, 819, 458, 108, 468, 501, 146
217724973, -2944, 5494, -15147, 404, 850, 359, -4114, -359, -2769, 2177, 415, 1119, 819, 458, 108, 468, 501, 146
217745857, -3324, 5258, -15158, -3, 1190, -145, -4602, -1156, -2689, 1702, 415, 1119, 819, 458, 108, 468, 501, 146
217746630, -3324, 5258, -15158, -3, 1190, -145, -4602, -1156, -2689, 1702, 447, 1128, 833, 421, 99, 478, 488, 226
217747436, -3324, 5258, -15158, -3, 1190, -145, -4602, -1156, -2689, 1702, 447, 1128, 833, 421, 99, 478, 488, 226
217759512, -3659, 5075, -15138, -367, 1697, -609, -4882, -1074, -2411, 1325, 447, 1128, 833, 421, 99, 478, 488, 226
217767667, -3659, 5075, -15138, -367, 1697, -609, -4882, -1074, -2411, 1325, 392, 1197, 780, 410, 94, 466, 377, 222
217768501, -3659, 5075, -15138, -367, 1697, -609, -4882, -1074, -2411, 1325, 392, 1197, 780, 410, 94, 466, 377, 222
217783336, -3987, 4917, -15104, -508, 2054, -310, -4984, 28, -2002, 894, 392, 1197, 780, 410, 94, 466, 377, 222
217784161, -3987, 4917, -15104, -508, 2054, -310, -4984, 28, -2002, 894, 373, 982, 676, 387, 111, 375, 254, 219
217785028, -3987, 4917, -15104, -508, 2054, -310, -4984, 28, -2002, 894, 373, 982, 676, 387, 111, 375, 254, 219
217805865, -4286, 4795, -15060, -533, 1972, 350, -4980, 531, -1668, 533, 373, 982, 676, 387, 111, 375, 254, 219
217806648, -4286, 4795, -15060, -533, 1972, 350, -4980, 531, -1668, 533, 371, 770, 345, 427, 105, 379, 251, 227
217807487, -4286, 4795, -15060, -533, 1972, 350, -4980, 531, -1668, 533, 371, 770, 345, 427, 105, 379, 251, 227
217819479, -4511, 4744, -15008, -598, 2052, 539, -4949, 102, -1350, 231, 371, 770, 345, 427, 105, 379, 251, 227
217827707, -4511, 4744, -15008, -598, 2052, 539, -4949, 102, -1350, 231, 355, 754, 243, 509, 105, 367, 235, 224
217828489, -4511, 4744, -15008, -598, 2052, 539, -4949, 102, -1350, 231, 355, 754, 243, 509, 105, 367, 235, 224
217843392, -4631, 4765, -14961, -682, 2155, 530, -4882, -283, -816, -76, 355, 754, 243, 509, 105, 367, 235, 224
217844171, -4631, 4765, -14961, -682, 2155, 530, -4882, -283, -816, -76, 320, 662, 181, 500, 100, 355, 228, 127
217844965, -4631, 4765, -14961, -682, 2155, 530, -4882, -283, -816, -76, 320, 662, 181, 500, 100, 355, 228, 127
217865867, -4661, 4808, -14938, -677, 1933, 598, -4645, 0, -174, -274, 320, 662, 181, 500, 100, 355, 228, 127
217866627, -4661, 4808, -14938, -677, 1933, 598, -4645, 0, -174, -274, 293, 456, 142, 502, 94, 327, 204, 112
217867458, -4661, 4808, -14938, -677, 1933, 598, -4645, 0, -174, -274, 293, 456, 142, 502, 94, 327, 204, 112
217879486, -4630, 4858, -14936, -585, 1816, 968, -4490, 340, 317, -396, 293, 456, 142, 502, 94, 327, 204, 112
217887613, -4630, 4858, -14936, -585, 1816, 968, -4490, 340, 317, -396, 291, 419, 91, 472, 64, 189, 134, 111
217888409, -4630, 4858, -14936, -585, 1816, 968, -4490, 340, 317, -396, 291, 419, 91, 472, 64, 189, 134, 111
217902025, -4522, 4935, -14948, -470, 1785, 1141, -4369, 290, 777, -537, 291, 419, 91, 472, 64, 189, 134, 111
217910181, -4522, 4935, -14948, -470, 1785, 1141, -4369, 290, 777, -537, 301, 375, 70, 412, 67, 143, 133, 110
217910991, -4522, 4935, -14948, -470, 1785, 1141, -4369, 290, 777, -537, 301, 375, 70, 412, 67, 143, 133, 110
217924487, -4341, 5041, -14969, -359, 1650, 1076, -4285, 98, 1158, -648, 301, 375, 70, 412, 67, 143, 133, 110
217932666, -4341, 5041, -14969, -359, 1650, 1076, -4285, 98, 1158, -648, 300, 307, 59, 295, 67, 145, 247, 124
217933452, -4341, 5041, -14969, -359, 1650, 1076, -4285, 98, 1158, -648, 300, 307, 59, 295, 67, 145, 247, 124
217939609, -4105, 5158, -14998, -226, 1607, 944, -4148, 105, 1491, -717, 300, 307, 59, 295, 67, 145, 247, 124
217947594, -4105, 5158, -14998, -226, 1607, 944, -4148, 105, 1491, -717, 257, 278, 63, 286, 72, 150, 329, 126
217948426, -4105, 5158, -14998, -226, 1607, 944, -4148, 105, 1491, -717, 257, 278, 63, 286, 72, 150, 329, 126
217961986, -3824, 5283, -15031, -54, 1481, 915, -4046, 211, 1801, -799, 257, 278, 63, 286, 72, 150, 329, 126
217970175, -3824, 5283, -15031, -54, 1481, 915, -4046, 211, 1801, -799, 239, 277, 60, 239, 78, 146, 363, 134
217970962, -3824, 5283, -15031, -54, 1481, 915, -4046, 211, 1801, -799, 239, 277, 60, 239, 78, 146, 363, 134
217984490, -3499, 5415, -15062, 153, 1417, 917, -3982, 306, 2085, -891, 239, 277, 60, 239, 78, 146, 363, 134
217992661, -3499, 5415, -15062, 153, 1417, 917, -3982, 306, 2085, -891, 239, 261, 58, 144, 79, 209, 424, 174
217993461, -3499, 5415, -15062, 153, 1417, 917, -3982, 306, 2085, -891, 239, 261, 58, 144, 79, 209, 424, 174
217999586, -3126, 5567, -15084, 382, 1474, 901, -3869, 305, 2357, -1034, 239, 261, 58, 144, 79, 209, 424, 174
218007649, -3126, 5567, -15084, 382, 1474, 901, -3869, 305, 2357, -1034, 212, 269, 59, 137, 76, 222, 517, 238
218008456, -3126, 5567, -15084, 382, 1474, 901, -3869, 305, 2357, -1034, 212, 269, 59, 137, 76, 222, 517, 238
218021964, -2699, 5748, -15091, 619, 1449, 823, -3873, 213, 2638, -1226, 212, 269, 59, 137, 76, 222, 517, 238
218030164, -2699, 5748, -15091, 619, 1449, 823, -3873, 213, 2638, -1226, 198, 312, 61, 131, 76, 226, 504, 243
218030938, -2699, 5748, -15091, 619, 1449, 823, -3873, 213, 2638, -1226, 198, 312, 61, 131, 76, 226, 504, 243
218044470, -2174, 5952, -15085, 854, 1451, 777, -3933, 195, 2816, -1384, 198, 312, 61, 131, 76, 226, 504, 243
218052590, -2174, 5952, -15085, 854, 1451, 777, -3933, 195, 2816, -1384, 203, 288, 51, 112, 72, 220, 478, 242
218053410, -2174, 5952, -15085, 854, 1451, 777, -3933, 195, 2816, -1384, 203, 288, 51, 112, 72, 220, 478, 242
218059599, -1636, 6174, -15048, 1099, 1543, 818, -3932, 224, 2905, -1539, 203, 288, 51, 112, 72, 220, 478, 242
