Timestamp, Orientation x, Orientation y, Orientation z, Orientation w, Acceleration x, Acceleration y, Acceleration z, Rotation x, Rotation y, Rotation z, EMG 0, EMG 1, EMG 2, EMG 3, EMG 4, EMG 5, EMG 6, EMG 7
89483852, 707, -10217, -12790, 4, 202, -177, -2760, -44, -8, -15, 0, 0, 0, 0, 0, 0, 0, 0
89484645, 706, -10214, -12792, 1, 197, -182, -2750, -37, -4, -21, 0, 0, 0, 0, 0, 0, 0, 0
89490690, 705, -10211, -12794, 0, 199, -182, -2772, -21, -9, -25, 0, 0, 0, 0, 0, 0, 0, 0
89513235, 705, -10208, -12797, 3, 188, -183, -2759, -8, -12, -22, 0, 0, 0, 0, 0, 0, 0, 0
89528198, 704, -10205, -12799, 5, 188, -176, -2743, -9, -14, -22, 0, 0, 0, 0, 0, 0, 0, 0
89551968, 704, -10205, -12799, 5, 188, -176, -2743, -9, -14, -22, 49, 43, 30, 34, 43, 47, 31, 51
89552748, 704, -10205, -12799, 5, 188, -176, -2743, -9, -14, -22, 49, 43, 30, 34, 43, 47, 31, 51
89553693, 706, -10202, -12801, 7, 213, -175, -2767, 4, -14, -20, 49, 43, 30, 34, 43, 47, 31, 51
89566266, 706, -10202, -12801, 7, 213, -175, -2767, 4, -14, -20, 54, 49, 80, 70, 78, 68, 52, 64
89567116, 706, -10202, -12801, 7, 213, -175, -2767, 4, -14, -20, 54, 49, 80, 70, 78, 68, 52, 64
89573266, 709, -10198, -12805, 15, 187, -192, -2749, 24, -24, -32, 54, 49, 80, 70, 78, 68, 52, 64
89589500, 709, -10198, -12805, 15, 187, -192, -2749, 24, -24, -32, 62, 55, 99, 77, 90, 85, 68, 80
89590305, 709, -10198, -12805, 15, 187, -192, -2749, 24, -24, -32, 62, 55, 99, 77, 90, 85, 68, 80
89591256, 704, -10189, -12812, 36, 157, -245, -2733, 26, -81, -63, 62, 55, 99, 77, 90, 85, 68, 80
89611936, 704, -10189, -12812, 36, 157, -245, -2733, 26, -81, -63, 61, 55, 115, 83, 90, 82, 73, 76
89612786, 704, -10189, -12812, 36, 157, -245, -2733, 26, -81, -63, 61, 55, 115, 83, 90, 82, 73, 76
89613701, 710, -10182, -12817, 59, 240, -238, -2793, 82, -95, -46, 61, 55, 115, 83, 90, 82, 73, 76
89626303, 710, -10182, -12817, 59, 240, -238, -2793, 82, -95, -46, 61, 59, 121, 85, 94, 82, 73, 73
89627092, 710, -10182, -12817, 59, 240, -238, -2793, 82, -95, -46, 61, 59, 121, 85, 94, 82, 73, 73
89633273, 718, -10171, -12825, 72, 243, -185, -2794, 82, -51, -69, 61, 59, 121, 85, 94, 82, 73, 73
89649442, 718, -10171, -12825, 72, 243, -185, -2794, 82, -51, -69, 53, 66, 122, 91, 97, 87, 77, 75
89650271, 718, -10171, -12825, 72, 243, -185, -2794, 82, -51, -69, 53, 66, 122, 91, 97, 87, 77, 75
89651200, 718, -10154, -12839, 78, 159, -240, -2787, -9, -13, -124, 53, 66, 122, 91, 97, 87, 77, 75
89671987, 718, -10154, -12839, 78, 159, -240, -2787, -9, -13, -124, 55, 64, 102, 68, 79, 77, 66, 63
89672798, 718, -10154, -12839, 78, 159, -240, -2787, -9, -13, -124, 55, 64, 102, 68, 79, 77, 66, 63
89673747, 707, -10142, -12849, 78, 176, -209, -2702, -57, -55, -90, 55, 64, 102, 68, 79, 77, 66, 63
89685574, 707, -10142, -12849, 78, 176, -209, -2702, -57, -55, -90, 44, 58, 84, 61, 68, 75, 55, 46
89694207, 707, -10142, -12849, 78, 176, -209, -2702, -57, -55, -90, 44, 58, 84, 61, 68, 75, 55, 46
89701257, 700, -10134, -12855, 78, 196, -149, -2697, -17, -55, -55, 44, 58, 84, 61, 68, 75, 55, 46
89709478, 700, -10134, -12855, 78, 196, -149, -2697, -17, -55, -55, 49, 60, 63, 60, 74, 85, 49, 58
89710311, 700, -10134, -12855, 78, 196, -149, -2697, -17, -55, -55, 49, 60, 63, 60, 74, 85, 49, 58
89711218, 690, -10123, -12864, 81, 186, -146, -2730, -9, -65, -76, 49, 60, 63, 60, 74, 85, 49, 58
89731940, 690, -10123, -12864, 81, 186, -146, -2730, -9, -65, -76, 62, 63, 61, 76, 86, 108, 78, 62
89732773, 690, -10123, -12864, 81, 186, -146, -2730, -9, -65, -76, 62, 63, 61, 76, 86, 108, 78, 62
89733726, 689, -10111, -12874, 88, 207, -155, -2754, 34, -57, -83, 62, 63, 61, 76, 86, 108, 78, 62
89754479, 689, -10111, -12874, 88, 207, -155, -2754, 34, -57, -83, 91, 132, 134, 121, 111, 124, 96, 78
89755267, 689, -10111, -12874, 88, 207, -155, -2754, 34, -57, -83, 91, 132, 134, 121, 111, 124, 96, 78
89756261, 714, -10097, -12883, 97, 243, -263, -2826, 81, 37, -93, 91, 132, 134, 121, 111, 124, 96, 78
89769445, 714, -10097, -12883, 97, 243, -263, -2826, 81, 37, -93, 95, 146, 143, 147, 126, 127, 99, 83
89770265, 714, -10097, -12883, 97, 243, -263, -2826, 81, 37, -93, 95, 146, 143, 147, 126, 127, 99, 83
89771218, 725, -10075, -12900, 135, 139, -355, -2779, 121, -75, -156, 95, 146, 143, 147, 126, 127, 99, 83
89792007, 725, -10075, -12900, 135, 139, -355, -2779, 121, -75, -156, 102, 162, 163, 159, 135, 126, 100, 89
89792795, 725, -10075, -12900, 135, 139, -355, -2779, 121, -75, -156, 102, 162, 163, 159, 135, 126, 100, 89
89793755, 754, -10050, -12917, 203, 221, -330, -2668, 331, -147, -152, 102, 162, 163, 159, 135, 126, 100, 89
89814446, 754, -10050, -12917, 203, 221, -330, -2668, 331, -147, -152, 203, 260, 238, 180, 137, 129, 113, 120
89815309, 754, -10050, -12917, 203, 221, -330, -2668, 331, -147, -152, 203, 260, 238, 180, 137, 129, 113, 120
89816297, 788, -10028, -12930, 267, 221, -266, -2666, 383, -116, -127, 203, 260, 238, 180, 137, 129, 113, 120
89828803, 788, -10028, -12930, 267, 221, -266, -2666, 383, -116, -127, 358, 438, 444, 353, 200, 126, 121, 175
89829608, 788, -10028, -12930, 267, 221, -266, -2666, 383, -116, -127, 358, 438, 444, 353, 200, 126, 121, 175
89835760, 796, -10007, -12945, 346, 84, -286, -2673, 361, -212, -125, 358, 438, 444, 353, 200, 126, 121, 175
89851963, 796, -10007, -12945, 346, 84, -286, -2673, 361, -212, -125, 382, 459, 464, 370, 206, 121, 120, 181
89852772, 796, -10007, -12945, 346, 84, -286, -2673, 361, -212, -125, 382, 459, 464, 370, 206, 121, 120, 181
89853694, 783, -9985, -12961, 397, 158, -227, -2591, 198, -258, -137, 382, 459, 464, 370, 206, 121, 120, 181
89874493, 783, -9985, -12961, 397, 158, -227, -2591, 198, -258, -137, 471, 559, 557, 437, 251, 147, 153, 237
89875267, 783, -9985, -12961, 397, 158, -227, -2591, 198, -258, -137, 471, 559, 557, 437, 251, 147, 153, 237
89876246, 759, -9948, -12990, 409, 262, -79, -2615, 72, -245, -244, 471, 559, 557, 437, 251, 147, 153, 237
89888741, 759, -9948, -12990, 409, 262, -79, -2615, 72, -245, -244, 574, 701, 629, 498, 274, 175, 188, 283
89889571, 759, -9948, -12990, 409, 262, -79, -2615, 72, -245, -244, 574, 701, 629, 498, 274, 175, 188, 283
89895772, 686, -9921, -13016, 403, 159, -311, -2823, -300, -346, -198, 574, 701, 629, 498, 274, 175, 188, 283
89911981, 686, -9921, -13016, 403, 159, -311, -2823, -300, -346, -198, 601, 755, 653, 538, 311, 207, 227, 309
89912785, 686, -9921, -13016, 403, 159, -311, -2823, -300, -346, -198, 601, 755, 653, 538, 311, 207, 227, 309
89913712, 702, -9903, -13027, 438, 187, -876, -2884, -123, -102, -122, 601, 755, 653, 538, 311, 207, 227, 309
89934477, 702, -9903, -13027, 438, 187, -876, -2884, -123, -102, -122, 534, 690, 560, 475, 282, 205, 219, 285
89935310, 702, -9903, -13027, 438, 187, -876, -2884, -123, -102, -122, 534, 690, 560, 475, 282, 205, 219, 285
89936223, 772, -9831, -13078, 417, 208, -411, -2838, 77, 319, -507, 534, 690, 560, 475, 282, 205, 219, 285
89948763, 772, -9831, -13078, 417, 208, -411, -2838, 77, 319, -507, 522, 677, 547, 468, 278, 200, 220, 285
89949563, 772, -9831, -13078, 417, 208, -411, -2838, 77, 319, -507, 522, 677, 547, 468, 278, 200, 220, 285
89955782, 766, -9779, -13120, 320, 261, 280, -2776, -156, 210, -374, 522, 677, 547, 468, 278, 200, 220, 285
89971999, 766, -9779, -13120, 320, 261, 280, -2776, -156, 210, -374, 475, 622, 463, 423, 255, 190, 202, 248
89972775, 766, -9779, -13120, 320, 261, 280, -2776, -156, 210, -374, 475, 622, 463, 423, 255, 190, 202, 248
89973728, 704, -9754, -13145, 216, 245, -119, -2663, -627, 2, -212, 475, 622, 463, 423, 255, 190, 202, 248
89994446, 704, -9754, -13145, 216, 245, -119, -2663, -627, 2, -212, 350, 462, 375, 374, 259, 191, 174, 196
89995229, 704, -9754, -13145, 216, 245, -119, -2663, -627, 2, -212, 350, 462, 375, 374, 259, 191, 174, 196
89996208, 665, -9745, -13154, 173, 232, -330, -2559, -416, -87, -80, 350, 462, 375, 374, 259, 191, 174, 196
90008772, 665, -9745, -13154, 173, 232, -330, -2559, -416, -87, -80, 254, 319, 297, 322, 223, 155, 111, 132
90009586, 665, -9745, -13154, 173, 232, -330, -2559, -416, -87, -80, 254, 319, 297, 322, 223, 155, 111, 132
90015721, 676, -9737, -13159, 184, 233, -266, -2664, 42, -38, -47, 254, 319, 297, 322, 223, 155, 111, 132
90031999, 676, -9737, -13159, 184, 233, -266, -2664, 42, -38, -47, 235, 275, 265, 288, 232, 171, 115, 131
90032775, 676, -9737, -13159, 184, 233, -266, -2664, 42, -38, -47, 235, 275, 265, 288, 232, 171, 115, 131
90033767, 700, -9712, -13175, 233, 186, -229, -2570, 282, -94, -157, 235, 275, 265, 288, 232, 171, 115, 131
90054456, 700, -9712, -13175, 233, 186, -229, -2570, 282, -94, -157, 217, 255, 263, 287, 243, 174, 109, 121
90055242, 700, -9712, -13175, 233, 186, -229, -2570, 282, -94, -157, 217, 255, 263, 287, 243, 174, 109, 121
90056221, 712, -9700, -13183, 263, 265, -22, -2638, 280, -119, -60, 217, 255, 263, 287, 243, 174, 109, 121
90068768, 712, -9700, -13183, 263, 265, -22, -2638, 280, -119, -60, 161, 195, 257, 274, 241, 206, 169, 157
90069572, 712, -9700, -13183, 263, 265, -22, -2638, 280, -119, -60, 161, 195, 257, 274, 241, 206, 169, 157
90075745, 738, -9700, -13181, 299, 270, -133, -2614, 292, -80, 18, 161, 195, 257, 274, 241, 206, 169, 157
90091925, 738, -9700, -13181, 299, 270, -133, -2614, 292, -80, 18, 181, 205, 294, 284, 229, 246, 231, 194
90092783, 738, -9700, -13181, 299, 270, -133, -2614, 292, -80, 18, 181, 205, 294, 284, 229, 246, 231, 194
90093693, 788, -9697, -13179, 354, 257, -282, -2791, 403, -17, 5, 181, 205, 294, 284, 229, 246, 231, 194
90114454, 788, -9697, -13179, 354, 257, -282, -2791, 403, -17, 5, 199, 200, 307, 366, 360, 421, 300, 207
90115268, 788, -9697, -13179, 354, 257, -282, -2791, 403, -17, 5, 199, 200, 307, 366, 360, 421, 300, 207
90116216, 843, -9691, -13178, 400, 182, -420, -2870, 315, 77, -19, 199, 200, 307, 366, 360, 421, 300, 207
90128796, 843, -9691, -13178, 400, 182, -420, -2870, 315, 77, -19, 214, 220, 308, 393, 449, 493, 339, 226
90129620, 843, -9691, -13178, 400, 182, -420, -2870, 315, 77, -19, 214, 220, 308, 393, 449, 493, 339, 226
90135774, 842, -9691, -13178, 413, 102, -253, -2736, 73, -23, 2, 214, 220, 308, 393, 449, 493, 339, 226
90151917, 842, -9691, -13178, 413, 102, -253, -2736, 73, -23, 2, 215, 214, 286, 385, 459, 512, 354, 234
90152786, 842, -9691, -13178, 413, 102, -253, -2736, 73, -23, 2, 215, 214, 286, 385, 459, 512, 354, 234
90153695, 841, -9703, -13170, 411, 269, -323, -2715, -44, -65, 83, 215, 214, 286, 385, 459, 512, 354, 234
90174494, 841, -9703, -13170, 411, 269, -323, -2715, -44, -65, 83, 200, 211, 314, 401, 474, 543, 345, 215
90175268, 841, -9703, -13170, 411, 269, -323, -2715, -44, -65, 83, 200, 211, 314, 401, 474, 543, 345, 215
90176223, 840, -9702, -13169, 432, 273, -539, -2843, -42, -141, 6, 200, 211, 314, 401, 474, 543, 345, 215
90188740, 840, -9702, -13169, 432, 273, -539, -2843, -42, -141, 6, 172, 177, 264, 390, 502, 552, 317, 184
90189550, 840, -9702, -13169, 432, 273, -539, -2843, -42, -141, 6, 172, 177, 264, 390, 502, 552, 317, 184
90195694, 869, -9689, -13175, 495, 207, -609, -2587, 206, -131, -71, 172, 177, 264, 390, 502, 552, 317, 184
90211984, 869, -9689, -13175, 495, 207, -609, -2587, 206, -131, -71, 132, 161, 242, 310, 421, 447, 259, 169
90212800, 869, -9689, -13175, 495, 207, -609, -2587, 206, -131, -71, 132, 161, 242, 310, 421, 447, 259, 169
90213713, 799, -9700, -13172, 471, 193, 141, -2483, -119, -275, 82, 132, 161, 242, 310, 421, 447, 259, 169
90234469, 799, -9700, -13172, 471, 193, 141, -2483, -119, -275, 82, 98, 110, 234, 270, 351, 412, 243, 153
90235306, 799, -9700, -13172, 471, 193, 141, -2483, -119, -275, 82, 98, 110, 234, 270, 351, 412, 243, 153
90236212, 626, -9748, -13151, 339, 93, 279, -2691, -910, -324, 286, 98, 110, 234, 270, 351, 412, 243, 153
90248756, 626, -9748, -13151, 339, 93, 279, -2691, -910, -324, 286, 93, 106, 239, 269, 328, 404, 236, 141
90249568, 626, -9748, -13151, 339, 93, 279, -2691, -910, -324, 286, 93, 106, 239, 269, 328, 404, 236, 141
90255732, 495, -9797, -13121, 237, 76, -437, -2636, -1056, -237, 307, 93, 106, 239, 269, 328, 404, 236, 141
90271950, 495, -9797, -13121, 237, 76, -437, -2636, -1056, -237, 307, 86, 83, 174, 219, 291, 343, 211, 124
90272770, 495, -9797, -13121, 237, 76, -437, -2636, -1056, -237, 307, 86, 83, 174, 219, 291, 343, 211, 124
90273718, 409, -9803, -13121, 192, 155, -478, -2378, -691, -287, 26, 86, 83, 174, 219, 291, 343, 211, 124
90294449, 409, -9803, -13121, 192, 155, -478, -2378, -691, -287, 26, 71, 64, 145, 173, 220, 288, 193, 111
90295242, 409, -9803, -13121, 192, 155, -478, -2378, -691, -287, 26, 71, 64, 145, 173, 220, 288, 193, 111
90296195, 442, -9796, -13125, 237, 315, -556, -2655, 90, -138, -43, 71, 64, 145, 173, 220, 288, 193, 111
90308749, 442, -9796, -13125, 237, 315, -556, -2655, 90, -138, -43, 76, 58, 131, 155, 202, 275, 190, 113
90309558, 442, -9796, -13125, 237, 315, -556, -2655, 90, -138, -43, 76, 58, 131, 155, 202, 275, 190, 113
90315725, 487, -9771, -13139, 335, 123, -551, -2495, 381, -168, -149, 76, 58, 131, 155, 202, 275, 190, 113
90331989, 487, -9771, -13139, 335, 123, -551, -2495, 381, -168, -149, 75, 54, 101, 134, 125, 192, 130, 87
90332792, 487, -9771, -13139, 335, 123, -551, -2495, 381, -168, -149, 75, 54, 101, 134, 125, 192, 130, 87
90333766, 547, -9780, -13128, 417, 157, -175, -2686, 589, -56, 87, 75, 54, 101, 134, 125, 192, 130, 87
90354442, 547, -9780, -13128, 417, 157, -175, -2686, 589, -56, 87, 61, 43, 71, 96, 110, 153, 88, 74
90355257, 547, -9780, -13128, 417, 157, -175, -2686, 589, -56, 87, 61, 43, 71, 96, 110, 153, 88, 74
90356179, 588, -9814, -13100, 441, 202, -48, -2764, 352, 39, 250, 61, 43, 71, 96, 110, 153, 88, 74
90368800, 588, -9814, -13100, 441, 202, -48, -2764, 352, 39, 250, 53, 40, 66, 91, 96, 140, 80, 63
90369595, 588, -9814, -13100, 441, 202, -48, -2764, 352, 39, 250, 53, 40, 66, 91, 96, 140, 80, 63
90375747, 582, -9850, -13074, 404, 221, -56, -2710, -100, 26, 250, 53, 40, 66, 91, 96, 140, 80, 63
90391919, 567, -9875, -13057, 340, 237, -172, -2691, -317, 70, 168, 53, 40, 66, 91, 96, 140, 80, 63
90392760, 567, -9875, -13057, 340, 237, -172, -2691, -317, 70, 168, 49, 38, 67, 88, 85, 123, 74, 60
90393567, 567, -9875, -13057, 340, 237, -172, -2691, -317, 70, 168, 49, 38, 67, 88, 85, 123, 74, 60
90414519, 562, -9891, -13048, 270, 213, -249, -2646, -375, 149, 93, 49, 38, 67, 88, 85, 123, 74, 60
90415316, 562, -9891, -13048, 270, 213, -249, -2646, -375, 149, 93, 42, 37, 50, 54, 77, 98, 53, 45
90416122, 562, -9891, -13048, 270, 213, -249, -2646, -375, 149, 93, 42, 37, 50, 54, 77, 98, 53, 45
90436942, 555, -9903, -13040, 215, 126, -280, -2615, -335, 144, 68, 42, 37, 50, 54, 77, 98, 53, 45
90437747, 555, -9903, -13040, 215, 126, -280, -2615, -335, 144, 68, 38, 34, 43, 46, 51, 65, 47, 41
90438590, 555, -9903, -13040, 215, 126, -280, -2615, -335, 144, 68, 38, 34, 43, 46, 51, 65, 47, 41
90450630, 557, -9921, -13027, 188, 113, -290, -2637, -189, 99, 115, 38, 34, 43, 46, 51, 65, 47, 41
90458770, 557, -9921, -13027, 188, 113, -290, -2637, -189, 99, 115, 41, 37, 43, 42, 48, 50, 38, 36
90459584, 557, -9921, -13027, 188, 113, -290, -2637, -189, 99, 115, 41, 37, 43, 42, 48, 50, 38, 36
90474472, 570, -9941, -13011, 180, 151, -252, -2664, -46, 64, 139, 41, 37, 43, 42, 48, 50, 38, 36
90475284, 570, -9941, -13011, 180, 151, -252, -2664, -46, 64, 139, 53, 30, 42, 34, 44, 40, 33, 36
90476068, 570, -9941, -13011, 180, 151, -252, -2664, -46, 64, 139, 53, 30, 42, 34, 44, 40, 33, 36
90496969, 587, -9962, -12994, 173, 166, -190, -2705, 11, 75, 153, 53, 30, 42, 34, 44, 40, 33, 36
90497734, 587, -9962, -12994, 173, 166, -190, -2705, 11, 75, 153, 55, 30, 39, 39, 47, 37, 37, 36
90498544, 587, -9962, -12994, 173, 166, -190, -2705, 11, 75, 153, 55, 30, 39, 39, 47, 37, 37, 36
90510630, 612, -9986, -12974, 164, 186, -213, -2751, 18, 119, 169, 55, 30, 39, 39, 47, 37, 37, 36
90518701, 612, -9986, -12974, 164, 186, -213, -2751, 18, 119, 169, 53, 37, 46, 41, 46, 33, 35, 23
90519518, 612, -9986, -12974, 164, 186, -213, -2751, 18, 119, 169, 53, 37, 46, 41, 46, 33, 35, 23
90534419, 642, -10005, -12958, 155, 186, -217, -2723, 32, 138, 136, 53, 37, 46, 41, 46, 33, 35, 23
90535268, 642, -10005, -12958, 155, 186, -217, -2723, 32, 138, 136, 55, 43, 43, 39, 43, 34, 35, 29
90536042, 642, -10005, -12958, 155, 186, -217, -2723, 32, 138, 136, 55, 43, 43, 39, 43, 34, 35, 29
90548120, 665, -10020, -12946, 141, 189, -183, -2715, 11, 132, 105, 55, 43, 43, 39, 43, 34, 35, 29
90556242, 665, -10020, -12946, 141, 189, -183, -2715, 11, 132, 105, 55, 40, 43, 40, 44, 29, 37, 27
90557107, 665, -10020, -12946, 141, 189, -183, -2715, 11, 132, 105, 55, 40, 43, 40, 44, 29, 37, 27
90570649, 684, -10037, -12932, 122, 185, -167, -2703, -22, 135, 119, 55, 40, 43, 40, 44, 29, 37, 27
90578744, 684, -10037, -12932, 122, 185, -167, -2703, -22, 135, 119, 46, 40, 42, 43, 47, 28, 37, 33
90579565, 684, -10037, -12932, 122, 185, -167, -2703, -22, 135, 119, 46, 40, 42, 43, 47, 28, 37, 33
90594444, 709, -10058, -12915, 103, 187, -201, -2721, -18, 165, 140, 46, 40, 42, 43, 47, 28, 37, 33
90595307, 709, -10058, -12915, 103, 187, -201, -2721, -18, 165, 140, 40, 40, 43, 33, 36, 30, 39, 36
90596094, 709, -10058, -12915, 103, 187, -201, -2721, -18, 165, 140, 40, 40, 43, 33, 36, 30, 39, 36
90616955, 744, -10077, -12898, 92, 178, -217, -2704, 43, 193, 138, 40, 40, 43, 33, 36, 30, 39, 36
90617763, 744, -10077, -12898, 92, 178, -217, -2704, 43, 193, 138, 40, 37, 34, 32, 33, 30, 39, 37
90618542, 744, -10077, -12898, 92, 178, -217, -2704, 43, 193, 138, 40, 37, 34, 32, 33, 30, 39, 37
90630593, 782, -10095, -12881, 88, 169, -228, -2713, 85, 196, 131, 40, 37, 34, 32, 33, 30, 39, 37
90638741, 782, -10095, -12881, 88, 169, -228, -2713, 85, 196, 131, 36, 34, 34, 34, 31, 27, 37, 34
90639565, 782, -10095, -12881, 88, 169, -228, -2713, 85, 196, 131, 36, 34, 34, 34, 31, 27, 37, 34
90654500, 818, -10111, -12866, 91, 166, -252, -2713, 99, 169, 120, 36, 34, 34, 34, 31, 27, 37, 34
90655267, 818, -10111, -12866, 91, 166, -252, -2713, 99, 169, 120, 50, 41, 33, 35, 37, 29, 35, 37
90656121, 818, -10111, -12866, 91, 166, -252, -2713, 99, 169, 120, 50, 41, 33, 35, 37, 29, 35, 37
90677398, 853, -10124, -12854, 103, 158, -269, -2690, 138, 137, 96, 50, 41, 33, 35, 37, 29, 35, 37
90678228, 853, -10124, -12854, 103, 158, -269, -2690, 138, 137, 96, 50, 43, 39, 33, 35, 29, 36, 38
90679019, 853, -10124, -12854, 103, 158, -269, -2690, 138, 137, 96, 50, 43, 39, 33, 35, 29, 36, 38
90690585, 887, -10132, -12845, 127, 149, -262, -2684, 192, 99, 68, 50, 43, 39, 33, 35, 29, 36, 38
90698791, 887, -10132, -12845, 127, 149, -262, -2684, 192, 99, 68, 51, 46, 42, 47, 38, 25, 28, 38
90699586, 887, -10132, -12845, 127, 149, -262, -2684, 192, 99, 68, 51, 46, 42, 47, 38, 25, 28, 38
90714489, 917, -10137, -12838, 155, 147, -248, -2708, 215, 66, 48, 51, 46, 42, 47, 38, 25, 28, 38
90715314, 917, -10137, -12838, 155, 147, -248, -2708, 215, 66, 48, 51, 43, 44, 44, 38, 27, 25, 39
90716121, 917, -10137, -12838, 155, 147, -248, -2708, 215, 66, 48, 51, 43, 44, 44, 38, 27, 25, 39
90728070, 941, -10141, -12834, 181, 173, -224, -2706, 206, 38, 36, 51, 43, 44, 44, 38, 27, 25, 39
90736274, 941, -10141, -12834, 181, 173, -224, -2706, 206, 38, 36, 54, 40, 44, 45, 38, 29, 28, 49
90737066, 941, -10141, -12834, 181, 173, -224, -2706, 206, 38, 36, 54, 40, 44, 45, 38, 29, 28, 49
90750665, 963, -10141, -12831, 203, 183, -211, -2694, 191, 32, 18, 54, 40, 44, 45, 38, 29, 28, 49
90758783, 963, -10141, -12831, 203, 183, -211, -2694, 191, 32, 18, 42, 35, 44, 48, 32, 28, 29, 49
90759567, 963, -10141, -12831, 203, 183, -211, -2694, 191, 32, 18, 42, 35, 44, 48, 32, 28, 29, 49
90774452, 976, -10139, -12832, 219, 178, -180, -2709, 158, 20, -9, 42, 35, 44, 48, 32, 28, 29, 49
90775270, 976, -10139, -12832, 219, 178, -180, -2709, 158, 20, -9, 43, 34, 49, 48, 31, 27, 28, 47
90776067, 976, -10139, -12832, 219, 178, -180, -2709, 158, 20, -9, 43, 34, 49, 48, 31, 27, 28, 47
90788118, 975, -10133, -12837, 224, 167, -147, -2702, 83, -7, -37, 43, 34, 49, 48, 31, 27, 28, 47
90796247, 975, -10133, -12837, 224, 167, -147, -2702, 83, -7, -37, 43, 39, 46, 37, 31, 29, 26, 46
90797042, 975, -10133, -12837, 224, 167, -147, -2702, 83, -7, -37, 43, 39, 46, 37, 31, 29, 26, 46
90810611, 960, -10126, -12843, 218, 162, -140, -2692, -14, -25, -49, 43, 39, 46, 37, 31, 29, 26, 46
90818701, 960, -10126, -12843, 218, 162, -140, -2692, -14, -25, -49, 42, 43, 45, 47, 30, 30, 31, 49
90819549, 960, -10126, -12843, 218, 162, -140, -2692, -14, -25, -49, 42, 43, 45, 47, 30, 30, 31, 49
90834434, 936, -10120, -12850, 204, 170, -142, -2688, -89, -40, -53, 42, 43, 45, 47, 30, 30, 31, 49
90835244, 936, -10120, -12850, 204, 170, -142, -2688, -89, -40, -53, 41, 48, 46, 49, 35, 30, 28, 42
90836042, 936, -10120, -12850, 204, 170, -142, -2688, -89, -40, -53, 41, 48, 46, 49, 35, 30, 28, 42
90848122, 910, -10114, -12857, 188, 166, -157, -2688, -116, -48, -55, 41, 48, 46, 49, 35, 30, 28, 42
90856242, 910, -10114, -12857, 188, 166, -157, -2688, -116, -48, -55, 48, 48, 45, 46, 43, 30, 27, 43
90857095, 910, -10114, -12857, 188, 166, -157, -2688, -116, -48, -55, 48, 48, 45, 46, 43, 30, 27, 43
90870625, 886, -10107, -12864, 174, 179, -169, -2694, -111, -50, -54, 48, 48, 45, 46, 43, 30, 27, 43
90878752, 886, -10107, -12864, 174, 179, -169, -2694, -111, -50, -54, 48, 47, 37, 49, 48, 31, 28, 45
90879583, 886, -10107, -12864, 174, 179, -169, -2694, -111, -50, -54, 48, 47, 37, 49, 48, 31, 28, 45
90894447, 863, -10101, -12871, 161, 174, -153, -2699, -98, -51, -53, 48, 47, 37, 49, 48, 31, 28, 45
90895255, 863, -10101, -12871, 161, 174, -153, -2699, -98, -51, -53, 51, 41, 37, 50, 45, 28, 27, 46
90896052, 863, -10101, -12871, 161, 174, -153, -2699, -98, -51, -53, 51, 41, 37, 50, 45, 28, 27, 46
90908126, 839, -10095, -12877, 148, 179, -147, -2720, -104, -55, -46, 51, 41, 37, 50, 45, 28, 27, 46
90916219, 839, -10095, -12877, 148, 179, -147, -2720, -104, -55, -46, 56, 36, 40, 42, 48, 31, 23, 42
90917017, 839, -10095, -12877, 148, 179, -147, -2720, -104, -55, -46, 56, 36, 40, 42, 48, 31, 23, 42
90930607, 816, -10092, -12881, 136, 180, -166, -2712, -112, -61, -33, 56, 36, 40, 42, 48, 31, 23, 42
90938692, 816, -10092, -12881, 136, 180, -166, -2712, -112, -61, -33, 54, 28, 36, 42, 47, 28, 24, 38
90939525, 816, -10092, -12881, 136, 180, -166, -2712, -112, -61, -33, 54, 28, 36, 42, 47, 28, 24, 38
90954437, 793, -10089, -12885, 126, 171, -159, -2715, -101, -61, -22, 54, 28, 36, 42, 47, 28, 24, 38
90955211, 793, -10089, -12885, 126, 171, -159, -2715, -101, -61, -22, 45, 23, 49, 41, 42, 27, 27, 34
90956042, 793, -10089, -12885, 126, 171, -159, -2715, -101, -61, -22, 45, 23, 49, 41, 42, 27, 27, 34
