Timestamp, Orientation x, Orientation y, Orientation z, Orientation w, Acceleration x, Acceleration y, Acceleration z, Rotation x, Rotation y, Rotation z, EMG 0, EMG 1, EMG 2, EMG 3, EMG 4, EMG 5, EMG 6, EMG 7
231605034, -3254, -3148, -15737, 548, 248, -246, -2809, 100, -48, -35, 0, 0, 0, 0, 0, 0, 0, 0
231605769, -3125, -3150, -15763, 558, 291, -261, -2749, 45, -12, -2, 0, 0, 0, 0, 0, 0, 0, 0
231606570, -2983, -3153, -15789, 567, 317, -305, -2765, 38, 62, 13, 0, 0, 0, 0, 0, 0, 0, 0
231626090, -2839, -3159, -15814, 584, 268, -372, -2757, 58, 111, 32, 0, 0, 0, 0, 0, 0, 0, 0
231648524, -2707, -3167, -15834, 613, 252, -380, -2741, 117, 69, 34, 0, 0, 0, 0, 0, 0, 0, 0
231663573, -2577, -3175, -15853, 639, 252, -334, -2723, 132, 77, 33, 0, 0, 0, 0, 0, 0, 0, 0
231671659, -2577, -3175, -15853, 639, 252, -334, -2723, 132, 77, 33, 65, 106, 92, 68, 120, 118, 45, 74
231672483, -2577, -3175, -15853, 639, 252, -334, -2723, 132, 77, 33, 65, 106, 92, 68, 120, 118, 45, 74
231694946, -2443, -3185, -15871, 666, 241, -334, -2725, 148, 126, 40, 65, 106, 92, 68, 120, 118, 45, 74
231695598, -2443, -3185, -15871, 666, 241, -334, -2725, 148, 126, 40, 66, 112, 87, 72, 120, 119, 50, 67
231696468, -2443, -3185, -15871, 666, 241, -334, -2725, 148, 126, 40, 66, 112, 87, 72, 120, 119, 50, 67
231709892, -2316, -3197, -15886, 702, 216, -408, -2733, 169, 112, 56, 66, 112, 87, 72, 120, 119, 50, 67
231710668, -2316, -3197, -15886, 702, 216, -408, -2733, 169, 112, 56, 47, 93, 87, 64, 109, 120, 46, 55
231711503, -2316, -3197, -15886, 702, 216, -408, -2733, 169, 112, 56, 47, 93, 87, 64, 109, 120, 46, 55
231723519, -2194, -3217, -15897, 753, 211, -459, -2664, 232, 93, 98, 47, 93, 87, 64, 109, 120, 46, 55
231731704, -2194, -3217, -15897, 753, 211, -459, -2664, 232, 93, 98, 61, 108, 109, 71, 114, 122, 47, 61
231732492, -2194, -3217, -15897, 753, 211, -459, -2664, 232, 93, 98, 61, 108, 109, 71, 114, 122, 47, 61
231747404, -2073, -3249, -15904, 825, 229, -472, -2680, 364, 74, 156, 61, 108, 109, 71, 114, 122, 47, 61
231748190, -2073, -3249, -15904, 825, 229, -472, -2680, 364, 74, 156, 67, 122, 153, 136, 113, 124, 53, 62
231749027, -2073, -3249, -15904, 825, 229, -472, -2680, 364, 74, 156, 67, 122, 153, 136, 113, 124, 53, 62
231770001, -1955, -3288, -15905, 915, 236, -441, -2767, 509, 36, 182, 67, 122, 153, 136, 113, 124, 53, 62
231770698, -1955, -3288, -15905, 915, 236, -441, -2767, 509, 36, 182, 67, 120, 159, 141, 105, 118, 55, 56
231771492, -1955, -3288, -15905, 915, 236, -441, -2767, 509, 36, 182, 67, 120, 159, 141, 105, 118, 55, 56
231783557, -1828, -3328, -15907, 995, 269, -393, -2769, 503, 95, 179, 67, 120, 159, 141, 105, 118, 55, 56
231791642, -1828, -3328, -15907, 995, 269, -393, -2769, 503, 95, 179, 71, 114, 162, 143, 98, 119, 51, 61
231792475, -1828, -3328, -15907, 995, 269, -393, -2769, 503, 95, 179, 71, 114, 162, 143, 98, 119, 51, 61
231807390, -1689, -3360, -15911, 1067, 269, -485, -2835, 439, 188, 150, 71, 114, 162, 143, 98, 119, 51, 61
231808183, -1689, -3360, -15911, 1067, 269, -485, -2835, 439, 188, 150, 99, 136, 166, 154, 99, 111, 54, 94
231808968, -1689, -3360, -15911, 1067, 269, -485, -2835, 439, 188, 150, 99, 136, 166, 154, 99, 111, 54, 94
231829927, -1488, -3388, -15920, 1141, 326, -734, -3032, 415, 495, 123, 99, 136, 166, 154, 99, 111, 54, 94
231830710, -1488, -3388, -15920, 1141, 326, -734, -3032, 415, 495, 123, 101, 151, 169, 157, 93, 111, 55, 95
231831493, -1488, -3388, -15920, 1141, 326, -734, -3032, 415, 495, 123, 101, 151, 169, 157, 93, 111, 55, 95
231843556, -1172, -3390, -15941, 1215, 321, -997, -3072, 416, 1175, -57, 101, 151, 169, 157, 93, 111, 55, 95
231851642, -1172, -3390, -15941, 1215, 321, -997, -3072, 416, 1175, -57, 106, 146, 130, 111, 103, 132, 54, 95
231852483, -1172, -3390, -15941, 1215, 321, -997, -3072, 416, 1175, -57, 106, 146, 130, 111, 103, 132, 54, 95
231867344, -818, -3352, -15968, 1254, 148, -871, -3101, 533, 1804, -379, 106, 146, 130, 111, 103, 132, 54, 95
231868208, -818, -3352, -15968, 1254, 148, -871, -3101, 533, 1804, -379, 104, 145, 119, 106, 106, 143, 52, 100
231868992, -818, -3352, -15968, 1254, 148, -871, -3101, 533, 1804, -379, 104, 145, 119, 106, 106, 143, 52, 100
231889942, -380, -3305, -15993, 1275, 197, -745, -3373, 556, 2289, -469, 104, 145, 119, 106, 106, 143, 52, 100
231890698, -380, -3305, -15993, 1275, 197, -745, -3373, 556, 2289, -469, 116, 153, 119, 104, 119, 155, 68, 124
231891545, -380, -3305, -15993, 1275, 197, -745, -3373, 556, 2289, -469, 116, 153, 119, 104, 119, 155, 68, 124
231903582, 133, -3224, -16015, 1248, 284, -837, -3669, 375, 2761, -680, 116, 153, 119, 104, 119, 155, 68, 124
231911651, 133, -3224, -16015, 1248, 284, -837, -3669, 375, 2761, -680, 105, 147, 120, 96, 112, 154, 71, 109
231912481, 133, -3224, -16015, 1248, 284, -837, -3669, 375, 2761, -680, 105, 147, 120, 96, 112, 154, 71, 109
231927397, 706, -3068, -16037, 1167, 236, -952, -3850, 139, 3155, -1130, 105, 147, 120, 96, 112, 154, 71, 109
231928168, 706, -3068, -16037, 1167, 236, -952, -3850, 139, 3155, -1130, 106, 142, 111, 105, 196, 230, 78, 126
231929020, 706, -3068, -16037, 1167, 236, -952, -3850, 139, 3155, -1130, 106, 142, 111, 105, 196, 230, 78, 126
231949856, 1336, -2859, -16045, 1022, 228, -954, -4068, -130, 3561, -1451, 106, 142, 111, 105, 196, 230, 78, 126
231950645, 1336, -2859, -16045, 1022, 228, -954, -4068, -130, 3561, -1451, 99, 137, 103, 108, 253, 334, 91, 130
231951462, 1336, -2859, -16045, 1022, 228, -954, -4068, -130, 3561, -1451, 99, 137, 103, 108, 253, 334, 91, 130
231963517, 2000, -2654, -16023, 808, 305, -977, -4283, -473, 3885, -1453, 99, 137, 103, 108, 253, 334, 91, 130
231971683, 2000, -2654, -16023, 808, 305, -977, -4283, -473, 3885, -1453, 101, 135, 104, 111, 263, 341, 97, 152
231972496, 2000, -2654, -16023, 808, 305, -977, -4283, -473, 3885, -1453, 101, 135, 104, 111, 263, 341, 97, 152
231987370, 2710, -2458, -15962, 545, 392, -997, -4372, -709, 4247, -1431, 101, 135, 104, 111, 263, 341, 97, 152
231988219, 2710, -2458, -15962, 545, 392, -997, -4372, -709, 4247, -1431, 92, 150, 113, 112, 274, 352, 103, 151
231988992, 2710, -2458, -15962, 545, 392, -997, -4372, -709, 4247, -1431, 92, 150, 113, 112, 274, 352, 103, 151
232009862, 3461, -2253, -15853, 275, 612, -985, -4398, -698, 4560, -1463, 92, 150, 113, 112, 274, 352, 103, 151
232010667, 3461, -2253, -15853, 275, 612, -985, -4398, -698, 4560, -1463, 100, 148, 106, 137, 327, 397, 118, 152
232011508, 3461, -2253, -15853, 275, 612, -985, -4398, -698, 4560, -1463, 100, 148, 106, 137, 327, 397, 118, 152
232023537, 4247, -2064, -15689, 31, 872, -1015, -4436, -553, 4821, -1321, 100, 148, 106, 137, 327, 397, 118, 152
232031709, 4247, -2064, -15689, 31, 872, -1015, -4436, -553, 4821, -1321, 153, 187, 121, 132, 306, 369, 120, 159
232032493, 4247, -2064, -15689, 31, 872, -1015, -4436, -553, 4821, -1321, 153, 187, 121, 132, 306, 369, 120, 159
232047352, 5049, -1896, -15470, -179, 1099, -952, -4485, -391, 5004, -1123, 153, 187, 121, 132, 306, 369, 120, 159
232048148, 5049, -1896, -15470, -179, 1099, -952, -4485, -391, 5004, -1123, 173, 211, 144, 145, 278, 299, 122, 161
232048994, 5049, -1896, -15470, -179, 1099, -952, -4485, -391, 5004, -1123, 173, 211, 144, 145, 278, 299, 122, 161
232069847, 5858, -1728, -15199, -346, 1377, -916, -4476, -162, 5133, -1027, 173, 211, 144, 145, 278, 299, 122, 161
232070695, 5858, -1728, -15199, -346, 1377, -916, -4476, -162, 5133, -1027, 185, 220, 149, 152, 291, 309, 120, 144
232071492, 5858, -1728, -15199, -346, 1377, -916, -4476, -162, 5133, -1027, 185, 220, 149, 152, 291, 309, 120, 144
232083546, 6668, -1555, -14877, -491, 1543, -835, -4342, -27, 5263, -979, 185, 220, 149, 152, 291, 309, 120, 144
232091646, 6668, -1555, -14877, -491, 1543, -835, -4342, -27, 5263, -979, 203, 228, 150, 154, 285, 300, 112, 138
232092472, 6668, -1555, -14877, -491, 1543, -835, -4342, -27, 5263, -979, 203, 228, 150, 154, 285, 300, 112, 138
232107345, 7456, -1408, -14508, -621, 1667, -694, -4125, -19, 5271, -788, 203, 228, 150, 154, 285, 300, 112, 138
232108170, 7456, -1408, -14508, -621, 1667, -694, -4125, -19, 5271, -788, 212, 238, 156, 134, 250, 267, 98, 146
232108967, 7456, -1408, -14508, -621, 1667, -694, -4125, -19, 5271, -788, 212, 238, 156, 134, 250, 267, 98, 146
232129919, 8214, -1285, -14100, -709, 1903, -623, -3937, 112, 5206, -550, 212, 238, 156, 134, 250, 267, 98, 146
232130698, 8214, -1285, -14100, -709, 1903, -623, -3937, 112, 5206, -550, 180, 205, 139, 133, 253, 276, 93, 127
232131504, 8214, -1285, -14100, -709, 1903, -623, -3937, 112, 5206, -550, 180, 205, 139, 133, 253, 276, 93, 127
232143552, 8936, -1176, -13662, -744, 2219, -644, -3788, 312, 5102, -333, 180, 205, 139, 133, 253, 276, 93, 127
232151642, 8936, -1176, -13662, -744, 2219, -644, -3788, 312, 5102, -333, 170, 204, 141, 117, 240, 253, 81, 128
232152472, 8936, -1176, -13662, -744, 2219, -644, -3788, 312, 5102, -333, 170, 204, 141, 117, 240, 253, 81, 128
232167344, 9611, -1082, -13205, -736, 2404, -702, -3684, 444, 4948, -146, 170, 204, 141, 117, 240, 253, 81, 128
232168183, 9611, -1082, -13205, -736, 2404, -702, -3684, 444, 4948, -146, 164, 208, 140, 135, 274, 272, 96, 129
232168967, 9611, -1082, -13205, -736, 2404, -702, -3684, 444, 4948, -146, 164, 208, 140, 135, 274, 272, 96, 129
232189919, 10231, -986, -12741, -669, 2532, -649, -3572, 718, 4722, 35, 164, 208, 140, 135, 274, 272, 96, 129
232190681, 10231, -986, -12741, -669, 2532, -649, -3572, 718, 4722, 35, 143, 195, 138, 151, 305, 280, 101, 121
232191474, 10231, -986, -12741, -669, 2532, -649, -3572, 718, 4722, 35, 143, 195, 138, 151, 305, 280, 101, 121
232203902, 10856, -844, -12231, -527, 2649, -638, -3396, 1206, 4495, 191, 143, 195, 138, 151, 305, 280, 101, 121
232211647, 10856, -844, -12231, -527, 2649, -638, -3396, 1206, 4495, 191, 118, 182, 127, 148, 288, 261, 100, 108
232212445, 10856, -844, -12231, -527, 2649, -638, -3396, 1206, 4495, 191, 118, 182, 127, 148, 288, 261, 100, 108
232230906, 11423, -655, -11722, -331, 2771, -614, -3261, 1595, 4237, 188, 118, 182, 127, 148, 288, 261, 100, 108
232230958, 11423, -655, -11722, -331, 2771, -614, -3261, 1595, 4237, 188, 128, 181, 126, 143, 269, 233, 114, 122
232230961, 11423, -655, -11722, -331, 2771, -614, -3261, 1595, 4237, 188, 128, 181, 126, 143, 269, 233, 114, 122
232249834, 11943, -422, -11208, -68, 2861, -634, -3150, 2022, 4055, 263, 128, 181, 126, 143, 269, 233, 114, 122
232250632, 11943, -422, -11208, -68, 2861, -634, -3150, 2022, 4055, 263, 124, 193, 120, 154, 273, 229, 128, 122
232251441, 11943, -422, -11208, -68, 2861, -634, -3150, 2022, 4055, 263, 124, 193, 120, 154, 273, 229, 128, 122
232263518, 12399, -165, -10705, 238, 2985, -519, -2851, 2273, 3765, 347, 124, 193, 120, 154, 273, 229, 128, 122
232271667, 12399, -165, -10705, 238, 2985, -519, -2851, 2273, 3765, 347, 122, 179, 115, 135, 233, 184, 121, 119
232272490, 12399, -165, -10705, 238, 2985, -519, -2851, 2273, 3765, 347, 122, 179, 115, 135, 233, 184, 121, 119
232287392, 12807, 124, -10203, 546, 3137, -400, -2799, 2421, 3580, 245, 122, 179, 115, 135, 233, 184, 121, 119
232288195, 12807, 124, -10203, 546, 3137, -400, -2799, 2421, 3580, 245, 154, 208, 122, 126, 194, 157, 120, 114
232288992, 12807, 124, -10203, 546, 3137, -400, -2799, 2421, 3580, 245, 154, 208, 122, 126, 194, 157, 120, 114
232309891, 13171, 396, -9701, 828, 3254, -405, -2715, 2247, 3431, 195, 154, 208, 122, 126, 194, 157, 120, 114
232310642, 13171, 396, -9701, 828, 3254, -405, -2715, 2247, 3431, 195, 160, 201, 129, 143, 213, 145, 123, 132
232311508, 13171, 396, -9701, 828, 3254, -405, -2715, 2247, 3431, 195, 160, 201, 129, 143, 213, 145, 123, 132
232323541, 13495, 647, -9204, 1084, 3300, -339, -2547, 2080, 3274, 162, 160, 201, 129, 143, 213, 145, 123, 132
232331658, 13495, 647, -9204, 1084, 3300, -339, -2547, 2080, 3274, 162, 148, 197, 125, 150, 223, 151, 109, 114
232332439, 13495, 647, -9204, 1084, 3300, -339, -2547, 2080, 3274, 162, 148, 197, 125, 150, 223, 151, 109, 114
232346697, 13787, 861, -8713, 1299, 3296, -300, -2411, 1777, 3154, 101, 148, 197, 125, 150, 223, 151, 109, 114
232347467, 13787, 861, -8713, 1299, 3296, -300, -2411, 1777, 3154, 101, 150, 175, 114, 152, 243, 158, 96, 108
232353469, 13787, 861, -8713, 1299, 3296, -300, -2411, 1777, 3154, 101, 150, 175, 114, 152, 243, 158, 96, 108
232369917, 14055, 1040, -8222, 1479, 3290, -352, -2297, 1514, 3080, 50, 150, 175, 114, 152, 243, 158, 96, 108
232370663, 14055, 1040, -8222, 1479, 3290, -352, -2297, 1514, 3080, 50, 168, 194, 126, 156, 245, 141, 89, 118
232371468, 14055, 1040, -8222, 1479, 3290, -352, -2297, 1514, 3080, 50, 168, 194, 126, 156, 245, 141, 89, 118
232383537, 14295, 1190, -7744, 1645, 3197, -373, -2043, 1344, 2952, 85, 168, 194, 126, 156, 245, 141, 89, 118
232391635, 14295, 1190, -7744, 1645, 3197, -373, -2043, 1344, 2952, 85, 147, 157, 110, 157, 272, 150, 93, 120
232392464, 14295, 1190, -7744, 1645, 3197, -373, -2043, 1344, 2952, 85, 147, 157, 110, 157, 272, 150, 93, 120
232406040, 14507, 1339, -7270, 1824, 3283, -440, -1956, 1385, 2864, 165, 147, 157, 110, 157, 272, 150, 93, 120
232414158, 14507, 1339, -7270, 1824, 3283, -440, -1956, 1385, 2864, 165, 143, 168, 120, 170, 330, 169, 91, 103
232414984, 14507, 1339, -7270, 1824, 3283, -440, -1956, 1385, 2864, 165, 143, 168, 120, 170, 330, 169, 91, 103
232429847, 14688, 1481, -6817, 2007, 3278, -403, -1748, 1354, 2691, 236, 143, 168, 120, 170, 330, 169, 91, 103
232430644, 14688, 1481, -6817, 2007, 3278, -403, -1748, 1354, 2691, 236, 169, 177, 122, 162, 321, 170, 116, 122
232431465, 14688, 1481, -6817, 2007, 3278, -403, -1748, 1354, 2691, 236, 169, 177, 122, 162, 321, 170, 116, 122
232443546, 14832, 1562, -6422, 2182, 3018, -219, -1505, 1013, 2354, 392, 169, 177, 122, 162, 321, 170, 116, 122
232451617, 14832, 1562, -6422, 2182, 3018, -219, -1505, 1013, 2354, 392, 170, 166, 121, 148, 303, 159, 114, 122
232452439, 14832, 1562, -6422, 2182, 3018, -219, -1505, 1013, 2354, 392, 170, 166, 121, 148, 303, 159, 114, 122
232465995, 14942, 1543, -6116, 2317, 2901, -300, -1431, 369, 1876, 480, 170, 166, 121, 148, 303, 159, 114, 122
232474166, 14942, 1543, -6116, 2317, 2901, -300, -1431, 369, 1876, 480, 162, 164, 130, 146, 295, 159, 125, 119
232474967, 14942, 1543, -6116, 2317, 2901, -300, -1431, 369, 1876, 480, 162, 164, 130, 146, 295, 159, 125, 119
232489946, 15027, 1461, -5887, 2414, 2809, -597, -1440, -78, 1462, 476, 162, 164, 130, 146, 295, 159, 125, 119
232490673, 15027, 1461, -5887, 2414, 2809, -597, -1440, -78, 1462, 476, 206, 216, 159, 160, 325, 166, 117, 131
232491533, 15027, 1461, -5887, 2414, 2809, -597, -1440, -78, 1462, 476, 206, 216, 159, 160, 325, 166, 117, 131
232503478, 15087, 1332, -5726, 2495, 2950, -853, -1432, -397, 1090, 542, 206, 216, 159, 160, 325, 166, 117, 131
232511659, 15087, 1332, -5726, 2495, 2950, -853, -1432, -397, 1090, 542, 216, 214, 153, 127, 255, 139, 117, 129
232512465, 15087, 1332, -5726, 2495, 2950, -853, -1432, -397, 1090, 542, 216, 214, 153, 127, 255, 139, 117, 129
232526031, 15132, 1201, -5611, 2556, 2930, -1186, -1390, -481, 821, 481, 216, 214, 153, 127, 255, 139, 117, 129
232534143, 15132, 1201, -5611, 2556, 2930, -1186, -1390, -481, 821, 481, 197, 212, 152, 131, 262, 139, 95, 115
232534984, 15132, 1201, -5611, 2556, 2930, -1186, -1390, -481, 821, 481, 197, 212, 152, 131, 262, 139, 95, 115
232549844, 15162, 1083, -5536, 2595, 2937, -1147, -1503, -480, 566, 372, 197, 212, 152, 131, 262, 139, 95, 115
232550684, 15162, 1083, -5536, 2595, 2937, -1147, -1503, -480, 566, 372, 197, 213, 148, 141, 274, 154, 113, 124
232551470, 15162, 1083, -5536, 2595, 2937, -1147, -1503, -480, 566, 372, 197, 213, 148, 141, 274, 154, 113, 124
232563548, 15184, 982, -5479, 2624, 2982, -1153, -1543, -427, 439, 301, 197, 213, 148, 141, 274, 154, 113, 124
232571617, 15184, 982, -5479, 2624, 2982, -1153, -1543, -427, 439, 301, 203, 226, 142, 141, 279, 165, 103, 120
232572454, 15184, 982, -5479, 2624, 2982, -1153, -1543, -427, 439, 301, 203, 226, 142, 141, 279, 165, 103, 120
232585993, 15200, 917, -5432, 2651, 3009, -1212, -1568, -248, 337, 229, 203, 226, 142, 141, 279, 165, 103, 120
232594145, 15200, 917, -5432, 2651, 3009, -1212, -1568, -248, 337, 229, 152, 178, 109, 121, 254, 170, 105, 101
232594918, 15200, 917, -5432, 2651, 3009, -1212, -1568, -248, 337, 229, 152, 178, 109, 121, 254, 170, 105, 101
232608532, 15212, 870, -5398, 2671, 3097, -1179, -1532, -183, 245, 169, 152, 178, 109, 121, 254, 170, 105, 101
232616643, 15212, 870, -5398, 2671, 3097, -1179, -1532, -183, 245, 169, 139, 171, 107, 126, 253, 173, 99, 104
232617508, 15212, 870, -5398, 2671, 3097, -1179, -1532, -183, 245, 169, 139, 171, 107, 126, 253, 173, 99, 104
232623720, 15221, 833, -5373, 2680, 3110, -1114, -1448, -155, 183, 99, 139, 171, 107, 126, 253, 173, 99, 104
232631653, 15221, 833, -5373, 2680, 3110, -1114, -1448, -155, 183, 99, 154, 178, 110, 127, 256, 170, 95, 104
232632446, 15221, 833, -5373, 2680, 3110, -1114, -1448, -155, 183, 99, 154, 178, 110, 127, 256, 170, 95, 104
232645998, 15228, 812, -5356, 2682, 3176, -1089, -1490, -95, 120, 38, 154, 178, 110, 127, 256, 170, 95, 104
232654155, 15228, 812, -5356, 2682, 3176, -1089, -1490, -95, 120, 38, 145, 177, 113, 126, 263, 167, 72, 93
232654968, 15228, 812, -5356, 2682, 3176, -1089, -1490, -95, 120, 38, 145, 177, 113, 126, 263, 167, 72, 93
232668505, 15235, 792, -5340, 2677, 3299, -1080, -1468, -98, 114, -2, 145, 177, 113, 126, 263, 167, 72, 93
232676643, 15235, 792, -5340, 2677, 3299, -1080, -1468, -98, 114, -2, 120, 146, 98, 119, 270, 163, 75, 83
232677496, 15235, 792, -5340, 2677, 3299, -1080, -1468, -98, 114, -2, 120, 146, 98, 119, 270, 163, 75, 83
232683619, 15242, 770, -5331, 2665, 3269, -1104, -1406, -130, 72, -31, 120, 146, 98, 119, 270, 163, 75, 83
232691669, 15242, 770, -5331, 2665, 3269, -1104, -1406, -130, 72, -31, 120, 144, 99, 106, 238, 139, 74, 85
232692467, 15242, 770, -5331, 2665, 3269, -1104, -1406, -130, 72, -31, 120, 144, 99, 106, 238, 139, 74, 85
232706003, 15247, 754, -5329, 2646, 3273, -1186, -1392, -120, 32, -74, 120, 144, 99, 106, 238, 139, 74, 85
232714176, 15247, 754, -5329, 2646, 3273, -1186, -1392, -120, 32, -74, 112, 138, 90, 94, 228, 133, 76, 81
232714972, 15247, 754, -5329, 2646, 3273, -1186, -1392, -120, 32, -74, 112, 138, 90, 94, 228, 133, 76, 81
232728469, 15252, 747, -5324, 2625, 3320, -1168, -1425, -73, 35, -101, 112, 138, 90, 94, 228, 133, 76, 81
232736666, 15252, 747, -5324, 2625, 3320, -1168, -1425, -73, 35, -101, 86, 113, 84, 115, 262, 163, 87, 73
232737441, 15252, 747, -5324, 2625, 3320, -1168, -1425, -73, 35, -101, 86, 113, 84, 115, 262, 163, 87, 73
232743620, 15257, 743, -5318, 2612, 3339, -1155, -1415, -39, 40, -71, 86, 113, 84, 115, 262, 163, 87, 73
232751643, 15257, 743, -5318, 2612, 3339, -1155, -1415, -39, 40, -71, 89, 108, 82, 120, 266, 159, 86, 73
232752474, 15257, 743, -5318, 2612, 3339, -1155, -1415, -39, 40, -71, 89, 108, 82, 120, 266, 159, 86, 73
232765970, 15260, 743, -5311, 2606, 3339, -1131, -1442, -8, 38, -31, 89, 108, 82, 120, 266, 159, 86, 73
232774167, 15260, 743, -5311, 2606, 3339, -1131, -1442, -8, 38, -31, 98, 116, 82, 123, 248, 168, 100, 89
232774942, 15260, 743, -5311, 2606, 3339, -1131, -1442, -8, 38, -31, 98, 116, 82, 123, 248, 168, 100, 89
232788547, 15261, 731, -5313, 2603, 3326, -1135, -1392, -69, 4, 3, 98, 116, 82, 123, 248, 168, 100, 89
232796617, 15261, 731, -5313, 2603, 3326, -1135, -1392, -69, 4, 3, 98, 149, 97, 136, 263, 181, 106, 94
232797482, 15261, 731, -5313, 2603, 3326, -1135, -1392, -69, 4, 3, 98, 149, 97, 136, 263, 181, 106, 94
232803592, 15263, 719, -5312, 2596, 3377, -1253, -1428, -73, 12, -20, 98, 149, 97, 136, 263, 181, 106, 94
232810968, 15263, 719, -5312, 2596, 3377, -1253, -1428, -73, 12, -20, 112, 158, 105, 142, 267, 181, 105, 92
232818475, 15263, 719, -5312, 2596, 3377, -1253, -1428, -73, 12, -20, 112, 158, 105, 142, 267, 181, 105, 92
232826113, 15265, 719, -5310, 2585, 3335, -1282, -1411, -20, 16, -57, 112, 158, 105, 142, 267, 181, 105, 92
232834147, 15265, 719, -5310, 2585, 3335, -1282, -1411, -20, 16, -57, 116, 161, 110, 135, 250, 161, 99, 91
232834958, 15265, 719, -5310, 2585, 3335, -1282, -1411, -20, 16, -57, 116, 161, 110, 135, 250, 161, 99, 91
232851168, 15265, 732, -5309, 2583, 3284, -1181, -1409, 63, -8, -33, 116, 161, 110, 135, 250, 161, 99, 91
232852009, 15265, 732, -5309, 2583, 3284, -1181, -1409, 63, -8, -33, 197, 213, 148, 141, 274, 154, 113, 124
232852795, 15265, 732, -5309, 2583, 3284, -1181, -1409, 63, -8, -33, 197, 213, 148, 141, 274, 154, 113, 124
232853767, 15184, 982, -5479, 2624, 2982, -1153, -1543, -427, 439, 301, 197, 213, 148, 141, 274, 154, 113, 124
232858743, 15184, 982, -5479, 2624, 2982, -1153, -1543, -427, 439, 301, 203, 226, 142, 141, 279, 165, 103, 120
232859550, 15184, 982, -5479, 2624, 2982, -1153, -1543, -427, 439, 301, 203, 226, 142, 141, 279, 165, 103, 120
232860393, 15184, 982, -5479, 2624, 2982, -1153, -1543, -427, 439, 301, 203, 226, 142, 141, 279, 165, 103, 120
232861192, 15184, 982, -5479, 2624, 2982, -1153, -1543, -427, 439, 301, 203, 226, 142, 141, 279, 165, 103, 120
232866172, 15184, 982, -5479, 2624, 2982, -1153, -1543, -427, 439, 301, 203, 226, 142, 141, 279, 165, 103, 120
232866945, 15184, 982, -5479, 2624, 2982, -1153, -1543, -427, 439, 301, 203, 226, 142, 141, 279, 165, 103, 120
232867813, 15184, 982, -5479, 2624, 2982, -1153, -1543, -427, 439, 301, 203, 226, 142, 141, 279, 165, 103, 120
232868595, 15184, 982, -5479, 2624, 2982, -1153, -1543, -427, 439, 301, 203, 226, 142, 141, 279, 165, 103, 120
232873689, 15184, 982, -5479, 2624, 2982, -1153, -1543, -427, 439, 301, 203, 226, 142, 141, 279, 165, 103, 120
