Timestamp, Orientation x, Orientation y, Orientation z, Orientation w, Acceleration x, Acceleration y, Acceleration z, Rotation x, Rotation y, Rotation z, EMG 0, EMG 1, EMG 2, EMG 3, EMG 4, EMG 5, EMG 6, EMG 7
97039730, 907, 15710, -1710, 4229, 1613, -406, -3555, 129, 546, -347, 0, 0, 0, 0, 0, 0, 0, 0
97047254, 819, 15706, -1669, 4275, 1680, -443, -3585, 254, 434, -241, 0, 0, 0, 0, 0, 0, 0, 0
97062240, 702, 15707, -1634, 4307, 1743, -477, -3631, 405, 323, -176, 0, 0, 0, 0, 0, 0, 0, 0
97084736, 581, 15711, -1604, 4322, 1774, -468, -3688, 441, 221, -129, 0, 0, 0, 0, 0, 0, 0, 0
97109023, 476, 15715, -1589, 4325, 1830, -464, -3720, 354, 144, -69, 0, 0, 0, 0, 0, 0, 0, 0
97109841, 476, 15715, -1589, 4325, 1830, -464, -3720, 354, 144, -69, 71, 37, 28, 41, 64, 74, 58, 101
97110653, 476, 15715, -1589, 4325, 1830, -464, -3720, 354, 144, -69, 71, 37, 28, 41, 64, 74, 58, 101
97122257, 385, 15718, -1590, 4324, 1903, -543, -3757, 234, 99, -9, 71, 37, 28, 41, 64, 74, 58, 101
97130380, 385, 15718, -1590, 4324, 1903, -543, -3757, 234, 99, -9, 82, 37, 31, 39, 49, 67, 68, 131
97131242, 385, 15718, -1590, 4324, 1903, -543, -3757, 234, 99, -9, 82, 37, 31, 39, 49, 67, 68, 131
97144717, 311, 15718, -1602, 4323, 1969, -634, -3774, 102, 81, 4, 82, 37, 31, 39, 49, 67, 68, 131
97152875, 311, 15718, -1602, 4323, 1969, -634, -3774, 102, 81, 4, 73, 34, 35, 41, 53, 66, 69, 126
97153704, 311, 15718, -1602, 4323, 1969, -634, -3774, 102, 81, 4, 73, 34, 35, 41, 53, 66, 69, 126
97168604, 242, 15720, -1608, 4320, 2001, -669, -3823, 84, 69, -31, 73, 34, 35, 41, 53, 66, 69, 126
97169384, 242, 15720, -1608, 4320, 2001, -669, -3823, 84, 69, -31, 70, 36, 36, 36, 53, 71, 66, 122
97170251, 242, 15720, -1608, 4320, 2001, -669, -3823, 84, 69, -31, 70, 36, 36, 36, 53, 71, 66, 122
97182187, 174, 15723, -1605, 4314, 2022, -723, -3890, 83, 59, -87, 70, 36, 36, 36, 53, 71, 66, 122
97190358, 174, 15723, -1605, 4314, 2022, -723, -3890, 83, 59, -87, 67, 33, 37, 35, 61, 64, 69, 118
97191205, 174, 15723, -1605, 4314, 2022, -723, -3890, 83, 59, -87, 67, 33, 37, 35, 61, 64, 69, 118
97204729, 103, 15724, -1591, 4315, 2034, -731, -3861, 132, 82, -137, 67, 33, 37, 35, 61, 64, 69, 118
97212906, 103, 15724, -1591, 4315, 2034, -731, -3861, 132, 82, -137, 53, 32, 36, 40, 78, 59, 61, 98
97213815, 103, 15724, -1591, 4315, 2034, -731, -3861, 132, 82, -137, 53, 32, 36, 40, 78, 59, 61, 98
97228635, 35, 15724, -1568, 4327, 2028, -745, -3855, 142, 149, -186, 53, 32, 36, 40, 78, 59, 61, 98
97229393, 35, 15724, -1568, 4327, 2028, -745, -3855, 142, 149, -186, 33, 30, 34, 41, 81, 57, 49, 54
97230194, 35, 15724, -1568, 4327, 2028, -745, -3855, 142, 149, -186, 33, 30, 34, 41, 81, 57, 49, 54
97242251, -28, 15721, -1537, 4348, 1988, -736, -3835, 156, 219, -220, 33, 30, 34, 41, 81, 57, 49, 54
97250370, -28, 15721, -1537, 4348, 1988, -736, -3835, 156, 219, -220, 35, 31, 30, 40, 80, 56, 46, 44
97251153, -28, 15721, -1537, 4348, 1988, -736, -3835, 156, 219, -220, 35, 31, 30, 40, 80, 56, 46, 44
97264722, -89, 15718, -1503, 4371, 1963, -696, -3806, 178, 246, -230, 35, 31, 30, 40, 80, 56, 46, 44
97272923, -89, 15718, -1503, 4371, 1963, -696, -3806, 178, 246, -230, 37, 29, 28, 54, 100, 53, 49, 46
97273700, -89, 15718, -1503, 4371, 1963, -696, -3806, 178, 246, -230, 37, 29, 28, 54, 100, 53, 49, 46
97288608, -136, 15714, -1465, 4396, 1965, -680, -3780, 130, 263, -258, 37, 29, 28, 54, 100, 53, 49, 46
97289407, -136, 15714, -1465, 4396, 1965, -680, -3780, 130, 263, -258, 38, 30, 25, 53, 97, 51, 39, 38
97290201, -136, 15714, -1465, 4396, 1965, -680, -3780, 130, 263, -258, 38, 30, 25, 53, 97, 51, 39, 38
97302220, -170, 15709, -1426, 4423, 1968, -722, -3765, 45, 281, -292, 38, 30, 25, 53, 97, 51, 39, 38
97310382, -170, 15709, -1426, 4423, 1968, -722, -3765, 45, 281, -292, 47, 31, 27, 53, 90, 51, 55, 48
97311177, -170, 15709, -1426, 4423, 1968, -722, -3765, 45, 281, -292, 47, 31, 27, 53, 90, 51, 55, 48
97324765, -210, 15705, -1387, 4451, 1996, -758, -3793, 74, 286, -289, 47, 31, 27, 53, 90, 51, 55, 48
97332891, -210, 15705, -1387, 4451, 1996, -758, -3793, 74, 286, -289, 45, 32, 27, 54, 105, 56, 54, 45
97333654, -210, 15705, -1387, 4451, 1996, -758, -3793, 74, 286, -289, 45, 32, 27, 54, 105, 56, 54, 45
97348627, -258, 15700, -1348, 4478, 2025, -756, -3826, 130, 282, -273, 45, 32, 27, 54, 105, 56, 54, 45
97349368, -258, 15700, -1348, 4478, 2025, -756, -3826, 130, 282, -273, 41, 31, 26, 56, 110, 60, 55, 44
97350202, -258, 15700, -1348, 4478, 2025, -756, -3826, 130, 282, -273, 41, 31, 26, 56, 110, 60, 55, 44
97362229, -301, 15693, -1315, 4508, 2077, -795, -3854, 89, 292, -255, 41, 31, 26, 56, 110, 60, 55, 44
97370313, -301, 15693, -1315, 4508, 2077, -795, -3854, 89, 292, -255, 40, 30, 26, 47, 100, 60, 53, 43
97371192, -301, 15693, -1315, 4508, 2077, -795, -3854, 89, 292, -255, 40, 30, 26, 47, 100, 60, 53, 43
97384728, -360, 15686, -1281, 4539, 2140, -853, -3865, 158, 276, -243, 40, 30, 26, 47, 100, 60, 53, 43
97392838, -360, 15686, -1281, 4539, 2140, -853, -3865, 158, 276, -243, 39, 32, 30, 52, 106, 61, 52, 44
97393648, -360, 15686, -1281, 4539, 2140, -853, -3865, 158, 276, -243, 39, 32, 30, 52, 106, 61, 52, 44
97408552, -429, 15679, -1239, 4566, 2197, -809, -3859, 265, 231, -243, 39, 32, 30, 52, 106, 61, 52, 44
97409328, -429, 15679, -1239, 4566, 2197, -809, -3859, 265, 231, -243, 30, 34, 31, 50, 102, 68, 41, 43
97410178, -429, 15679, -1239, 4566, 2197, -809, -3859, 265, 231, -243, 30, 34, 31, 50, 102, 68, 41, 43
97422205, -497, 15674, -1186, 4592, 2219, -761, -3846, 308, 210, -282, 30, 34, 31, 50, 102, 68, 41, 43
97430394, -497, 15674, -1186, 4592, 2219, -761, -3846, 308, 210, -282, 33, 33, 37, 49, 87, 71, 38, 42
97431172, -497, 15674, -1186, 4592, 2219, -761, -3846, 308, 210, -282, 33, 33, 37, 49, 87, 71, 38, 42
97444691, -556, 15670, -1129, 4613, 2171, -763, -3836, 274, 213, -319, 33, 33, 37, 49, 87, 71, 38, 42
97452853, -556, 15670, -1129, 4613, 2171, -763, -3836, 274, 213, -319, 35, 34, 39, 45, 84, 66, 39, 43
97453695, -556, 15670, -1129, 4613, 2171, -763, -3836, 274, 213, -319, 35, 34, 39, 45, 84, 66, 39, 43
97468615, -612, 15666, -1072, 4635, 2162, -757, -3828, 275, 230, -320, 35, 34, 39, 45, 84, 66, 39, 43
97469369, -612, 15666, -1072, 4635, 2162, -757, -3828, 275, 230, -320, 33, 33, 42, 48, 82, 68, 39, 44
97470219, -612, 15666, -1072, 4635, 2162, -757, -3828, 275, 230, -320, 33, 33, 42, 48, 82, 68, 39, 44
97482256, -667, 15661, -1015, 4657, 2154, -771, -3815, 276, 238, -318, 33, 33, 42, 48, 82, 68, 39, 44
97490328, -667, 15661, -1015, 4657, 2154, -771, -3815, 276, 238, -318, 33, 31, 39, 45, 98, 68, 38, 45
97491175, -667, 15661, -1015, 4657, 2154, -771, -3815, 276, 238, -318, 33, 31, 39, 45, 98, 68, 38, 45
97504708, -722, 15655, -952, 4682, 2148, -730, -3776, 313, 253, -332, 33, 31, 39, 45, 98, 68, 38, 45
97512916, -722, 15655, -952, 4682, 2148, -730, -3776, 313, 253, -332, 32, 30, 39, 47, 103, 61, 36, 36
97513630, -722, 15655, -952, 4682, 2148, -730, -3776, 313, 253, -332, 32, 30, 39, 47, 103, 61, 36, 36
97527854, -762, 15648, -892, 4711, 2134, -707, -3757, 244, 293, -334, 32, 30, 39, 47, 103, 61, 36, 36
97528719, -762, 15648, -892, 4711, 2134, -707, -3757, 244, 293, -334, 31, 31, 35, 49, 130, 58, 40, 35
97534685, -762, 15648, -892, 4711, 2134, -707, -3757, 244, 293, -334, 31, 31, 35, 49, 130, 58, 40, 35
97542330, -795, 15638, -842, 4748, 2133, -730, -3730, 184, 349, -296, 31, 31, 35, 49, 130, 58, 40, 35
97550366, -795, 15638, -842, 4748, 2133, -730, -3730, 184, 349, -296, 30, 32, 38, 55, 144, 77, 45, 36
97551127, -795, 15638, -842, 4748, 2133, -730, -3730, 184, 349, -296, 30, 32, 38, 55, 144, 77, 45, 36
97564717, -827, 15625, -799, 4790, 2138, -749, -3659, 163, 372, -272, 30, 32, 38, 55, 144, 77, 45, 36
97572813, -827, 15625, -799, 4790, 2138, -749, -3659, 163, 372, -272, 31, 34, 37, 62, 185, 93, 50, 35
97573620, -827, 15625, -799, 4790, 2138, -749, -3659, 163, 372, -272, 31, 34, 37, 62, 185, 93, 50, 35
97587213, -863, 15612, -757, 4834, 2155, -737, -3626, 201, 378, -249, 31, 34, 37, 62, 185, 93, 50, 35
97595368, -863, 15612, -757, 4834, 2155, -737, -3626, 201, 378, -249, 33, 35, 45, 78, 180, 95, 51, 33
97596178, -863, 15612, -757, 4834, 2155, -737, -3626, 201, 378, -249, 33, 35, 45, 78, 180, 95, 51, 33
97602342, -915, 15597, -719, 4877, 2139, -750, -3593, 274, 383, -202, 33, 35, 45, 78, 180, 95, 51, 33
97610304, -915, 15597, -719, 4877, 2139, -750, -3593, 274, 383, -202, 34, 35, 46, 86, 205, 98, 47, 32
97611138, -915, 15597, -719, 4877, 2139, -750, -3593, 274, 383, -202, 34, 35, 46, 86, 205, 98, 47, 32
97624706, -982, 15581, -686, 4921, 2119, -749, -3532, 362, 392, -147, 34, 35, 46, 86, 205, 98, 47, 32
97632865, -982, 15581, -686, 4921, 2119, -749, -3532, 362, 392, -147, 34, 38, 47, 90, 277, 103, 47, 34
97633678, -982, 15581, -686, 4921, 2119, -749, -3532, 362, 392, -147, 34, 38, 47, 90, 277, 103, 47, 34
97647206, -1060, 15564, -654, 4962, 2144, -726, -3526, 448, 373, -108, 34, 38, 47, 90, 277, 103, 47, 34
97663635, -1060, 15564, -654, 4962, 2144, -726, -3526, 448, 373, -108, 40, 38, 46, 94, 293, 93, 49, 36
97664354, -1060, 15564, -654, 4962, 2144, -726, -3526, 448, 373, -108, 40, 38, 46, 94, 293, 93, 49, 36
97665317, -1129, 15549, -618, 4999, 2171, -702, -3551, 431, 358, -120, 40, 38, 46, 94, 293, 93, 49, 36
97672473, -1129, 15549, -618, 4999, 2171, -702, -3551, 431, 358, -120, 55, 40, 50, 93, 280, 119, 77, 53
97673256, -1129, 15549, -618, 4999, 2171, -702, -3551, 431, 358, -120, 55, 40, 50, 93, 280, 119, 77, 53
97674052, -1129, 15549, -618, 4999, 2171, -702, -3551, 431, 358, -120, 55, 40, 50, 93, 280, 119, 77, 53
97674918, -1129, 15549, -618, 4999, 2171, -702, -3551, 431, 358, -120, 55, 40, 50, 93, 280, 119, 77, 53
97679178, -1129, 15549, -618, 4999, 2171, -702, -3551, 431, 358, -120, 55, 40, 50, 93, 280, 119, 77, 53
97680004, -1129, 15549, -618, 4999, 2171, -702, -3551, 431, 358, -120, 55, 40, 50, 93, 280, 119, 77, 53
97680801, -1129, 15549, -618, 4999, 2171, -702, -3551, 431, 358, -120, 55, 40, 50, 93, 280, 119, 77, 53
97681667, -1129, 15549, -618, 4999, 2171, -702, -3551, 431, 358, -120, 55, 40, 50, 93, 280, 119, 77, 53
97684831, -1187, 15533, -596, 5039, 2207, -740, -3498, 338, 363, -75, 55, 40, 50, 93, 280, 119, 77, 53
97692844, -1187, 15533, -596, 5039, 2207, -740, -3498, 338, 363, -75, 59, 42, 49, 85, 300, 136, 89, 59
97693627, -1187, 15533, -596, 5039, 2207, -740, -3498, 338, 363, -75, 59, 42, 49, 85, 300, 136, 89, 59
97707246, -1248, 15517, -585, 5075, 2219, -764, -3494, 342, 347, -3, 59, 42, 49, 85, 300, 136, 89, 59
97715371, -1248, 15517, -585, 5075, 2219, -764, -3494, 342, 347, -3, 59, 41, 47, 82, 294, 137, 90, 58
97716178, -1248, 15517, -585, 5075, 2219, -764, -3494, 342, 347, -3, 59, 41, 47, 82, 294, 137, 90, 58
97722311, -1300, 15504, -580, 5102, 2233, -761, -3518, 296, 314, 22, 59, 41, 47, 82, 294, 137, 90, 58
97730324, -1300, 15504, -580, 5102, 2233, -761, -3518, 296, 314, 22, 59, 40, 47, 81, 238, 133, 89, 58
97731127, -1300, 15504, -580, 5102, 2233, -761, -3518, 296, 314, 22, 59, 40, 47, 81, 238, 133, 89, 58
97744716, -1344, 15491, -590, 5128, 2287, -809, -3498, 215, 292, 79, 59, 40, 47, 81, 238, 133, 89, 58
97752853, -1344, 15491, -590, 5128, 2287, -809, -3498, 215, 292, 79, 57, 41, 48, 81, 224, 141, 87, 59
97753718, -1344, 15491, -590, 5128, 2287, -809, -3498, 215, 292, 79, 57, 41, 48, 81, 224, 141, 87, 59
97767182, -1392, 15481, -592, 5143, 2339, -827, -3481, 249, 201, 58, 57, 41, 48, 81, 224, 141, 87, 59
97775376, -1392, 15481, -592, 5143, 2339, -827, -3481, 249, 201, 58, 55, 56, 60, 120, 323, 175, 100, 61
97776141, -1392, 15481, -592, 5143, 2339, -827, -3481, 249, 201, 58, 55, 56, 60, 120, 323, 175, 100, 61
97782321, -1475, 15480, -570, 5127, 2358, -800, -3545, 501, 7, 29, 55, 56, 60, 120, 323, 175, 100, 61
97790365, -1475, 15480, -570, 5127, 2358, -800, -3545, 501, 7, 29, 70, 69, 84, 209, 351, 237, 131, 81
97791222, -1475, 15480, -570, 5127, 2358, -800, -3545, 501, 7, 29, 70, 69, 84, 209, 351, 237, 131, 81
97804680, -1551, 15477, -553, 5115, 2480, -817, -3691, 485, 36, 58, 70, 69, 84, 209, 351, 237, 131, 81
97812894, -1551, 15477, -553, 5115, 2480, -817, -3691, 485, 36, 58, 79, 78, 130, 298, 405, 264, 146, 87
97813652, -1551, 15477, -553, 5115, 2480, -817, -3691, 485, 36, 58, 79, 78, 130, 298, 405, 264, 146, 87
97827227, -1578, 15475, -570, 5112, 2457, -895, -3712, 140, 122, 130, 79, 78, 130, 298, 405, 264, 146, 87
97835366, -1578, 15475, -570, 5112, 2457, -895, -3712, 140, 122, 130, 84, 96, 175, 457, 451, 274, 150, 91
97836179, -1578, 15475, -570, 5112, 2457, -895, -3712, 140, 122, 130, 84, 96, 175, 457, 451, 274, 150, 91
97842319, -1617, 15465, -586, 5129, 2435, -909, -3560, 205, 199, 133, 84, 96, 175, 457, 451, 274, 150, 91
97850376, -1617, 15465, -586, 5129, 2435, -909, -3560, 205, 199, 133, 103, 143, 241, 620, 529, 276, 162, 99
97851152, -1617, 15465, -586, 5129, 2435, -909, -3560, 205, 199, 133, 103, 143, 241, 620, 529, 276, 162, 99
97864693, -1724, 15462, -552, 5106, 2387, -995, -3327, 594, -117, -11, 103, 143, 241, 620, 529, 276, 162, 99
97872822, -1724, 15462, -552, 5106, 2387, -995, -3327, 594, -117, -11, 136, 188, 364, 708, 520, 269, 221, 128
97873645, -1724, 15462, -552, 5106, 2387, -995, -3327, 594, -117, -11, 136, 188, 364, 708, 520, 269, 221, 128
97887229, -1878, 15468, -471, 5041, 2393, -995, -3522, 965, -353, -128, 136, 188, 364, 708, 520, 269, 221, 128
97895327, -1878, 15468, -471, 5041, 2393, -995, -3522, 965, -353, -128, 155, 221, 442, 842, 603, 243, 346, 169
97896154, -1878, 15468, -471, 5041, 2393, -995, -3522, 965, -353, -128, 155, 221, 442, 842, 603, 243, 346, 169
97902328, -2036, 15473, -391, 4971, 2317, -834, -3436, 1069, -379, -46, 155, 221, 442, 842, 603, 243, 346, 169
97910341, -2036, 15473, -391, 4971, 2317, -834, -3436, 1069, -379, -46, 205, 302, 525, 931, 717, 252, 419, 191
97911193, -2036, 15473, -391, 4971, 2317, -834, -3436, 1069, -379, -46, 205, 302, 525, 931, 717, 252, 419, 191
97924741, -2129, 15485, -364, 4895, 2273, -946, -3192, 566, -458, 102, 205, 302, 525, 931, 717, 252, 419, 191
97940325, -2129, 15485, -364, 4895, 2273, -946, -3192, 566, -458, 102, 222, 328, 550, 993, 756, 257, 460, 206
97941129, -2129, 15485, -364, 4895, 2273, -946, -3192, 566, -458, 102, 222, 328, 550, 993, 756, 257, 460, 206
97947290, -2303, 15491, -302, 4802, 2127, -1312, -3646, 991, -389, -44, 222, 328, 550, 993, 756, 257, 460, 206
97955329, -2303, 15491, -302, 4802, 2127, -1312, -3646, 991, -389, -44, 230, 333, 567, 1100, 752, 286, 528, 216
97956129, -2303, 15491, -302, 4802, 2127, -1312, -3646, 991, -389, -44, 230, 333, 567, 1100, 752, 286, 528, 216
97962280, -2445, 15504, -143, 4696, 1967, -1366, -3313, 920, -587, -623, 230, 333, 567, 1100, 752, 286, 528, 216
97970354, -2445, 15504, -143, 4696, 1967, -1366, -3313, 920, -587, -623, 228, 343, 560, 1143, 835, 276, 516, 212
97971174, -2445, 15504, -143, 4696, 1967, -1366, -3313, 920, -587, -623, 228, 343, 560, 1143, 835, 276, 516, 212
97984731, -2519, 15514, -76, 4625, 2236, -911, -3407, 646, -429, -80, 228, 343, 560, 1143, 835, 276, 516, 212
97992828, -2519, 15514, -76, 4625, 2236, -911, -3407, 646, -429, -80, 235, 362, 572, 1144, 886, 270, 446, 192
97993651, -2519, 15514, -76, 4625, 2236, -911, -3407, 646, -429, -80, 235, 362, 572, 1144, 886, 270, 446, 192
98007204, -2503, 15527, -79, 4588, 2209, -924, -3253, 20, -236, 107, 235, 362, 572, 1144, 886, 270, 446, 192
98015331, -2503, 15527, -79, 4588, 2209, -924, -3253, 20, -236, 107, 195, 304, 502, 1093, 829, 248, 380, 169
98016127, -2503, 15527, -79, 4588, 2209, -924, -3253, 20, -236, 107, 195, 304, 502, 1093, 829, 248, 380, 169
98022307, -2515, 15528, -102, 4578, 2300, -1133, -3349, 73, -71, 197, 195, 304, 502, 1093, 829, 248, 380, 169
98037803, -2515, 15528, -102, 4578, 2300, -1133, -3349, 73, -71, 197, 174, 271, 467, 1125, 814, 236, 351, 154
98038643, -2515, 15528, -102, 4578, 2300, -1133, -3349, 73, -71, 197, 174, 271, 467, 1125, 814, 236, 351, 154
98044755, -2532, 15523, -102, 4585, 2278, -1053, -3433, 191, 42, 89, 174, 271, 467, 1125, 814, 236, 351, 154
98052193, -2532, 15523, -102, 4585, 2278, -1053, -3433, 191, 42, 89, 155, 249, 428, 1030, 809, 194, 240, 140
98059654, -2532, 15523, -102, 4585, 2278, -1053, -3433, 191, 42, 89, 155, 249, 428, 1030, 809, 194, 240, 140
98067319, -2533, 15517, -115, 4606, 2279, -1089, -3374, 69, 118, 107, 155, 249, 428, 1030, 809, 194, 240, 140
98075341, -2533, 15517, -115, 4606, 2279, -1089, -3374, 69, 118, 107, 132, 204, 365, 1025, 724, 180, 226, 118
98076121, -2533, 15517, -115, 4606, 2279, -1089, -3374, 69, 118, 107, 132, 204, 365, 1025, 724, 180, 226, 118
98082300, -2539, 15506, -142, 4637, 2313, -1204, -3341, 25, 178, 149, 132, 204, 365, 1025, 724, 180, 226, 118
98097848, -2539, 15506, -142, 4637, 2313, -1204, -3341, 25, 178, 149, 84, 144, 252, 1026, 592, 145, 215, 85
98098652, -2539, 15506, -142, 4637, 2313, -1204, -3341, 25, 178, 149, 84, 144, 252, 1026, 592, 145, 215, 85
98104782, -2579, 15493, -171, 4659, 2325, -1434, -3409, 120, 150, 166, 84, 144, 252, 1026, 592, 145, 215, 85
98120316, -2579, 15493, -171, 4659, 2325, -1434, -3409, 120, 150, 166, 81, 161, 276, 1066, 575, 127, 208, 80
98121103, -2579, 15493, -171, 4659, 2325, -1434, -3409, 120, 150, 166, 81, 161, 276, 1066, 575, 127, 208, 80
98127281, -2668, 15476, -181, 4664, 2342, -1577, -3433, 384, 59, 131, 81, 161, 276, 1066, 575, 127, 208, 80
98135303, -2668, 15476, -181, 4664, 2342, -1577, -3433, 384, 59, 131, 93, 175, 286, 1018, 558, 129, 182, 88
98136155, -2668, 15476, -181, 4664, 2342, -1577, -3433, 384, 59, 131, 93, 175, 286, 1018, 558, 129, 182, 88
98142279, -2795, 15460, -162, 4645, 2364, -1520, -3466, 685, -105, 103, 93, 175, 286, 1018, 558, 129, 182, 88
98157815, -2795, 15460, -162, 4645, 2364, -1520, -3466, 685, -105, 103, 98, 179, 288, 1013, 586, 163, 207, 93
98158628, -2795, 15460, -162, 4645, 2364, -1520, -3466, 685, -105, 103, 98, 179, 288, 1013, 586, 163, 207, 93
98164823, -2935, 15439, -140, 4629, 2431, -1439, -3445, 828, -114, 157, 98, 179, 288, 1013, 586, 163, 207, 93
98180302, -2935, 15439, -140, 4629, 2431, -1439, -3445, 828, -114, 157, 114, 183, 282, 976, 655, 167, 200, 104
98181114, -2935, 15439, -140, 4629, 2431, -1439, -3445, 828, -114, 157, 114, 183, 282, 976, 655, 167, 200, 104
98187305, -3102, 15408, -127, 4624, 2406, -1605, -3504, 944, -3, 215, 114, 183, 282, 976, 655, 167, 200, 104
98195329, -3102, 15408, -127, 4624, 2406, -1605, -3504, 944, -3, 215, 141, 192, 301, 912, 685, 184, 184, 119
98196127, -3102, 15408, -127, 4624, 2406, -1605, -3504, 944, -3, 215, 141, 192, 301, 912, 685, 184, 184, 119
98202300, -3320, 15366, -104, 4613, 2294, -1781, -3467, 1220, 18, 204, 141, 192, 301, 912, 685, 184, 184, 119
98217846, -3320, 15366, -104, 4613, 2294, -1781, -3467, 1220, 18, 204, 208, 177, 282, 901, 794, 204, 189, 138
98218608, -3320, 15366, -104, 4613, 2294, -1781, -3467, 1220, 18, 204, 208, 177, 282, 901, 794, 204, 189, 138
98224861, -3629, 15300, -80, 4598, 2213, -2035, -3452, 1721, 8, 362, 208, 177, 282, 901, 794, 204, 189, 138
98240376, -3629, 15300, -80, 4598, 2213, -2035, -3452, 1721, 8, 362, 279, 178, 272, 838, 847, 229, 219, 151
98241152, -3629, 15300, -80, 4598, 2213, -2035, -3452, 1721, 8, 362, 279, 178, 272, 838, 847, 229, 219, 151
98247332, -4109, 15191, -66, 4555, 2168, -2259, -3342, 2657, -59, 716, 279, 178, 272, 838, 847, 229, 219, 151
98255316, -4109, 15191, -66, 4555, 2168, -2259, -3342, 2657, -59, 716, 327, 174, 270, 784, 877, 223, 187, 150
98256145, -4109, 15191, -66, 4555, 2168, -2259, -3342, 2657, -59, 716, 327, 174, 270, 784, 877, 223, 187, 150
98262268, -4848, 14997, -46, 4473, 2177, -2177, -3301, 4178, -149, 1183, 327, 174, 270, 784, 877, 223, 187, 150
98277844, -4848, 14997, -46, 4473, 2177, -2177, -3301, 4178, -149, 1183, 340, 174, 266, 784, 895, 223, 171, 153
98278654, -4848, 14997, -46, 4473, 2177, -2177, -3301, 4178, -149, 1183, 340, 174, 266, 784, 895, 223, 171, 153
98284822, -5839, 14676, -11, 4350, 2200, -1928, -3253, 5798, -182, 1615, 340, 174, 266, 784, 895, 223, 171, 153
98300372, -5839, 14676, -11, 4350, 2200, -1928, -3253, 5798, -182, 1615, 358, 157, 243, 740, 943, 233, 188, 159
98301164, -5839, 14676, -11, 4350, 2200, -1928, -3253, 5798, -182, 1615, 358, 157, 243, 740, 943, 233, 188, 159
98307304, -7018, 14193, 41, 4212, 2154, -1564, -3254, 7190, -40, 1901, 358, 157, 243, 740, 943, 233, 188, 159
98315380, -7018, 14193, 41, 4212, 2154, -1564, -3254, 7190, -40, 1901, 330, 149, 226, 758, 869, 214, 182, 148
98316153, -7018, 14193, 41, 4212, 2154, -1564, -3254, 7190, -40, 1901, 330, 149, 226, 758, 869, 214, 182, 148
98322346, -8218, 13576, 83, 4070, 2083, -814, -3126, 7692, 181, 2052, 330, 149, 226, 758, 869, 214, 182, 148
98337828, -8218, 13576, 83, 4070, 2083, -814, -3126, 7692, 181, 2052, 274, 147, 235, 779, 809, 193, 144, 127
98338682, -8218, 13576, 83, 4070, 2083, -814, -3126, 7692, 181, 2052, 274, 147, 235, 779, 809, 193, 144, 127
98344807, -9266, 12927, 106, 3931, 2178, -312, -2614, 7044, 271, 1977, 274, 147, 235, 779, 809, 193, 144, 127
98360370, -9266, 12927, 106, 3931, 2178, -312, -2614, 7044, 271, 1977, 223, 166, 239, 794, 815, 186, 151, 123
98361128, -9266, 12927, 106, 3931, 2178, -312, -2614, 7044, 271, 1977, 223, 166, 239, 794, 815, 186, 151, 123
98367301, -10081, 12340, 136, 3809, 2051, -63, -2090, 5764, 239, 1584, 223, 166, 239, 794, 815, 186, 151, 123
98375359, -10081, 12340, 136, 3809, 2051, -63, -2090, 5764, 239, 1584, 198, 173, 218, 774, 745, 172, 152, 110
98376154, -10081, 12340, 136, 3809, 2051, -63, -2090, 5764, 239, 1584, 198, 173, 218, 774, 745, 172, 152, 110
98405445, -10613, 11910, 156, 3729, 1880, -132, -1574, 3956, 228, 1096, 198, 173, 218, 774, 745, 172, 152, 110
98406230, -10874, 11686, 127, 3689, 1781, -338, -1292, 2000, 289, 794, 198, 173, 218, 774, 745, 172, 152, 110
98412829, -10874, 11686, 127, 3689, 1781, -338, -1292, 2000, 289, 794, 148, 168, 214, 840, 671, 145, 144, 92
98413602, -10874, 11686, 127, 3689, 1781, -338, -1292, 2000, 289, 794, 148, 168, 214, 840, 671, 145, 144, 92
98428532, -10833, 11712, 107, 3727, 1775, -912, -959, 201, 347, 634, 148, 168, 214, 840, 671, 145, 144, 92
98429327, -10833, 11712, 107, 3727, 1775, -912, -959, 201, 347, 634, 173, 216, 231, 834, 663, 141, 137, 84
98430157, -10833, 11712, 107, 3727, 1775, -912, -959, 201, 347, 634, 173, 216, 231, 834, 663, 141, 137, 84
98442860, -10833, 11712, 107, 3727, 1775, -912, -959, 201, 347, 634, 173, 221, 250, 794, 671, 142, 132, 99
98443655, -10833, 11712, 107, 3727, 1775, -912, -959, 201, 347, 634, 173, 221, 250, 794, 671, 142, 132, 99
98457204, -10698, 11831, 45, 3745, 1583, -1302, -992, -578, 297, 596, 173, 221, 250, 794, 671, 142, 132, 99
98465311, -10698, 11831, 45, 3745, 1583, -1302, -992, -578, 297, 596, 164, 237, 255, 855, 606, 127, 121, 99
98466152, -10698, 11831, 45, 3745, 1583, -1302, -992, -578, 297, 596, 164, 237, 255, 855, 606, 127, 121, 99
98472321, -10524, 11977, 0, 3773, 1877, -1553, -954, -860, 203, 540, 164, 237, 255, 855, 606, 127, 121, 99
98480356, -10524, 11977, 0, 3773, 1877, -1553, -954, -860, 203, 540, 177, 239, 272, 858, 610, 136, 116, 101
98481133, -10524, 11977, 0, 3773, 1877, -1553, -954, -860, 203, 540, 177, 239, 272, 858, 610, 136, 116, 101
98496104, -10403, 12084, -54, 3766, 1300, -1815, -920, -565, 134, 425, 177, 239, 272, 858, 610, 136, 116, 101
98496954, -10403, 12084, -54, 3766, 1300, -1815, -920, -565, 134, 425, 191, 246, 276, 830, 616, 140, 104, 97
98497749, -10403, 12084, -54, 3766, 1300, -1815, -920, -565, 134, 425, 191, 246, 276, 830, 616, 140, 104, 97
98509668, -10330, 12161, -48, 3720, 1496, -2000, -1291, -11, -149, 448, 191, 246, 276, 830, 616, 140, 104, 97
98517811, -10330, 12161, -48, 3720, 1496, -2000, -1291, -11, -149, 448, 160, 208, 252, 782, 625, 150, 105, 101
98518628, -10330, 12161, -48, 3720, 1496, -2000, -1291, -11, -149, 448, 160, 208, 252, 782, 625, 150, 105, 101
98524782, -10368, 12146, -45, 3661, 812, -2074, -1217, 732, -63, 297, 160, 208, 252, 782, 625, 150, 105, 101
98540315, -10368, 12146, -45, 3661, 812, -2074, -1217, 732, -63, 297, 154, 213, 228, 828, 692, 142, 97, 91
98541111, -10368, 12146, -45, 3661, 812, -2074, -1217, 732, -63, 297, 154, 213, 228, 828, 692, 142, 97, 91
98547255, -10469, 12059, 30, 3663, 1686, -1779, -566, 1028, -129, 359, 154, 213, 228, 828, 692, 142, 97, 91
98555328, -10469, 12059, 30, 3663, 1686, -1779, -566, 1028, -129, 359, 154, 193, 204, 746, 656, 138, 91, 87
98556168, -10469, 12059, 30, 3663, 1686, -1779, -566, 1028, -129, 359, 154, 193, 204, 746, 656, 138, 91, 87
98569674, -10553, 11971, 144, 3708, 2301, -1482, -535, 1024, -104, 380, 154, 193, 204, 746, 656, 138, 91, 87
98577820, -10553, 11971, 144, 3708, 2301, -1482, -535, 1024, -104, 380, 147, 179, 181, 738, 675, 136, 95, 79
98578629, -10553, 11971, 144, 3708, 2301, -1482, -535, 1024, -104, 380, 147, 179, 181, 738, 675, 136, 95, 79
98584803, -10591, 11913, 271, 3777, 2535, -1346, -599, 783, -74, 316, 147, 179, 181, 738, 675, 136, 95, 79
98600310, -10591, 11913, 271, 3777, 2535, -1346, -599, 783, -74, 316, 132, 186, 195, 806, 752, 133, 83, 72
98601152, -10591, 11913, 271, 3777, 2535, -1346, -599, 783, -74, 316, 132, 186, 195, 806, 752, 133, 83, 72
98607304, -10583, 11889, 399, 3861, 2656, -1276, -547, 453, -64, 257, 132, 186, 195, 806, 752, 133, 83, 72
98615305, -10583, 11889, 399, 3861, 2656, -1276, -547, 453, -64, 257, 133, 199, 198, 862, 706, 121, 82, 66
98616149, -10583, 11889, 399, 3861, 2656, -1276, -547, 453, -64, 257, 133, 199, 198, 862, 706, 121, 82, 66
98629705, -10541, 11894, 519, 3945, 2586, -1291, -398, 118, -103, 188, 133, 199, 198, 862, 706, 121, 82, 66
98637794, -10541, 11894, 519, 3945, 2586, -1291, -398, 118, -103, 188, 133, 189, 193, 787, 683, 121, 96, 59
98638603, -10541, 11894, 519, 3945, 2586, -1291, -398, 118, -103, 188, 133, 189, 193, 787, 683, 121, 96, 59
98644781, -10480, 11933, 586, 3983, 1779, -1406, -457, -123, -111, 100, 133, 189, 193, 787, 683, 121, 96, 59
98660331, -10480, 11933, 586, 3983, 1779, -1406, -457, -123, -111, 100, 159, 178, 204, 829, 669, 120, 108, 81
98661103, -10480, 11933, 586, 3983, 1779, -1406, -457, -123, -111, 100, 159, 178, 204, 829, 669, 120, 108, 81
98667269, -10380, 12044, 570, 3914, 224, -1538, -1465, -152, -88, -26, 159, 178, 204, 829, 669, 120, 108, 81
98675362, -10380, 12044, 570, 3914, 224, -1538, -1465, -152, -88, -26, 184, 180, 237, 833, 665, 119, 125, 103
98676144, -10380, 12044, 570, 3914, 224, -1538, -1465, -152, -88, -26, 184, 180, 237, 833, 665, 119, 125, 103
98682280, -10254, 12152, 630, 3901, 1141, -1417, -1725, -40, -121, -84, 184, 180, 237, 833, 665, 119, 125, 103
98697830, -10254, 12152, 630, 3901, 1141, -1417, -1725, -40, -121, -84, 209, 170, 207, 714, 532, 101, 127, 112
98698602, -10254, 12152, 630, 3901, 1141, -1417, -1725, -40, -121, -84, 209, 170, 207, 714, 532, 101, 127, 112
98704796, -10171, 12203, 714, 3942, 1718, -1440, -992, -14, -91, -68, 209, 170, 207, 714, 532, 101, 127, 112
98720280, -10171, 12203, 714, 3942, 1718, -1440, -992, -14, -91, -68, 209, 149, 209, 632, 528, 106, 139, 113
98721143, -10171, 12203, 714, 3942, 1718, -1440, -992, -14, -91, -68, 209, 149, 209, 632, 528, 106, 139, 113
98727300, -10110, 12245, 787, 3957, 1510, -1429, -1003, 90, -136, -9, 209, 149, 209, 632, 528, 106, 139, 113
98735308, -10110, 12245, 787, 3957, 1510, -1429, -1003, 90, -136, -9, 208, 136, 213, 689, 441, 104, 127, 111
98736113, -10110, 12245, 787, 3957, 1510, -1429, -1003, 90, -136, -9, 208, 136, 213, 689, 441, 104, 127, 111
98742247, -10049, 12282, 852, 3984, 1530, -1370, -1023, 108, -45, -10, 208, 136, 213, 689, 441, 104, 127, 111
98757778, -10049, 12282, 852, 3984, 1530, -1370, -1023, 108, -45, -10, 188, 126, 217, 593, 469, 103, 116, 98
98758644, -10049, 12282, 852, 3984, 1530, -1370, -1023, 108, -45, -10, 188, 126, 217, 593, 469, 103, 116, 98
98764758, -9982, 12323, 906, 4014, 1500, -1388, -1063, 54, 6, -2, 188, 126, 217, 593, 469, 103, 116, 98
98780290, -9982, 12323, 906, 4014, 1500, -1388, -1063, 54, 6, -2, 161, 139, 224, 601, 466, 102, 124, 93
98781103, -9982, 12323, 906, 4014, 1500, -1388, -1063, 54, 6, -2, 161, 139, 224, 601, 466, 102, 124, 93
98787295, -9911, 12369, 953, 4038, 1469, -1432, -1088, 19, 3, -1, 161, 139, 224, 601, 466, 102, 124, 93
98795278, -9911, 12369, 953, 4038, 1469, -1432, -1088, 19, 3, -1, 115, 120, 224, 595, 497, 108, 130, 87
98796130, -9911, 12369, 953, 4038, 1469, -1432, -1088, 19, 3, -1, 115, 120, 224, 595, 497, 108, 130, 87
98802255, -9893, 12380, 965, 4045, 1486, -1413, -1050, -7, -11, 12, 115, 120, 224, 595, 497, 108, 130, 87
98817831, -9893, 12380, 965, 4045, 1486, -1413, -1050, -7, -11, 12, 120, 117, 228, 645, 514, 106, 134, 88
98818647, -9893, 12380, 965, 4045, 1486, -1413, -1050, -7, -11, 12, 120, 117, 228, 645, 514, 106, 134, 88
98824764, -9816, 12429, 1010, 4071, 1494, -1378, -1070, -48, -3, 12, 120, 117, 228, 645, 514, 106, 134, 88
98840311, -9816, 12429, 1010, 4071, 1494, -1378, -1070, -48, -3, 12, 122, 118, 213, 700, 520, 113, 149, 94
98841080, -9816, 12429, 1010, 4071, 1494, -1378, -1070, -48, -3, 12, 122, 118, 213, 700, 520, 113, 149, 94
98847296, -9723, 12489, 1056, 4098, 1506, -1372, -1073, -151, -22, -19, 122, 118, 213, 700, 520, 113, 149, 94
98855283, -9723, 12489, 1056, 4098, 1506, -1372, -1073, -151, -22, -19, 125, 140, 268, 778, 525, 117, 155, 96
98856105, -9723, 12489, 1056, 4098, 1506, -1372, -1073, -151, -22, -19, 125, 140, 268, 778, 525, 117, 155, 96
98862260, -9618, 12556, 1098, 4129, 1509, -1405, -1099, -242, -10, -45, 125, 140, 268, 778, 525, 117, 155, 96
98877789, -9618, 12556, 1098, 4129, 1509, -1405, -1099, -242, -10, -45, 115, 124, 235, 711, 445, 107, 135, 80
98878650, -9618, 12556, 1098, 4129, 1509, -1405, -1099, -242, -10, -45, 115, 124, 235, 711, 445, 107, 135, 80
98884809, -9503, 12629, 1136, 4165, 1514, -1430, -1092, -332, 0, -73, 115, 124, 235, 711, 445, 107, 135, 80
98900328, -9503, 12629, 1136, 4165, 1514, -1430, -1092, -332, 0, -73, 110, 120, 235, 709, 450, 106, 137, 73
98901168, -9503, 12629, 1136, 4165, 1514, -1430, -1092, -332, 0, -73, 110, 120, 235, 709, 450, 106, 137, 73
98907282, -9377, 12705, 1176, 4205, 1534, -1406, -1091, -403, -5, -103, 110, 120, 235, 709, 450, 106, 137, 73
98914627, -9377, 12705, 1176, 4205, 1534, -1406, -1091, -403, -5, -103, 94, 130, 251, 695, 436, 104, 124, 65
98922829, -9377, 12705, 1176, 4205, 1534, -1406, -1091, -403, -5, -103, 94, 130, 251, 695, 436, 104, 124, 65
98923803, -9227, 12794, 1211, 4258, 1535, -1344, -1134, -551, 42, -151, 94, 130, 251, 695, 436, 104, 124, 65
98937828, -9227, 12794, 1211, 4258, 1535, -1344, -1134, -551, 42, -151, 99, 142, 296, 594, 401, 92, 107, 67
98938654, -9227, 12794, 1211, 4258, 1535, -1344, -1134, -551, 42, -151, 99, 142, 296, 594, 401, 92, 107, 67
98944780, -9024, 12911, 1228, 4332, 1548, -1360, -1231, -890, 140, -229, 99, 142, 296, 594, 401, 92, 107, 67
98960330, -9024, 12911, 1228, 4332, 1548, -1360, -1231, -890, 140, -229, 88, 117, 292, 466, 371, 87, 94, 58
98961128, -9024, 12911, 1228, 4332, 1548, -1360, -1231, -890, 140, -229, 88, 117, 292, 466, 371, 87, 94, 58
98967285, -8767, 13054, 1216, 4437, 1516, -1327, -1271, -1272, 309, -287, 88, 117, 292, 466, 371, 87, 94, 58
98974631, -8767, 13054, 1216, 4437, 1516, -1327, -1271, -1272, 309, -287, 84, 115, 290, 485, 382, 88, 91, 56
98982829, -8767, 13054, 1216, 4437, 1516, -1327, -1271, -1272, 309, -287, 84, 115, 290, 485, 382, 88, 91, 56
98983782, -8471, 13214, 1189, 4542, 1517, -1343, -1275, -1557, 290, -303, 84, 115, 290, 485, 382, 88, 91, 56
98997802, -8471, 13214, 1189, 4542, 1517, -1343, -1275, -1557, 290, -303, 90, 125, 307, 546, 344, 108, 129, 80
98998669, -8471, 13214, 1189, 4542, 1517, -1343, -1275, -1557, 290, -303, 90, 125, 307, 546, 344, 108, 129, 80
99004780, -8198, 13357, 1136, 4637, 1606, -1461, -1391, -1687, 277, -335, 90, 125, 307, 546, 344, 108, 129, 80
99020334, -8198, 13357, 1136, 4637, 1606, -1461, -1391, -1687, 277, -335, 92, 126, 304, 536, 357, 119, 179, 94
99021128, -8198, 13357, 1136, 4637, 1606, -1461, -1391, -1687, 277, -335, 92, 126, 304, 536, 357, 119, 179, 94
99027292, -7924, 13493, 1100, 4729, 1571, -1554, -1442, -1651, 225, -433, 92, 126, 304, 536, 357, 119, 179, 94
99043503, -7924, 13493, 1100, 4729, 1571, -1554, -1442, -1651, 225, -433, 80, 120, 266, 538, 374, 122, 201, 89
99044369, -7924, 13493, 1100, 4729, 1571, -1554, -1442, -1651, 225, -433, 80, 120, 266, 538, 374, 122, 201, 89
99045257, -7629, 13638, 1079, 4803, 1573, -1615, -1534, -1543, 179, -374, 80, 120, 266, 538, 374, 122, 201, 89
99057800, -7629, 13638, 1079, 4803, 1573, -1615, -1534, -1543, 179, -374, 72, 115, 194, 540, 356, 121, 207, 90
99058598, -7629, 13638, 1079, 4803, 1573, -1615, -1534, -1543, 179, -374, 72, 115, 194, 540, 356, 121, 207, 90
99064789, -7356, 13766, 1041, 4871, 1576, -1667, -1503, -1483, 203, -291, 72, 115, 194, 540, 356, 121, 207, 90
