Timestamp, Orientation x, Orientation y, Orientation z, Orientation w, Acceleration x, Acceleration y, Acceleration z, Rotation x, Rotation y, Rotation z, EMG 0, EMG 1, EMG 2, EMG 3, EMG 4, EMG 5, EMG 6, EMG 7
184240639, 971, 14981, -5642, 3348, 1760, -56, -3951, 46, 15, 82, 0, 0, 0, 0, 0, 0, 0, 0
184241424, 965, 14979, -5649, 3347, 1745, -82, -3955, 51, 11, 59, 0, 0, 0, 0, 0, 0, 0, 0
184246976, 953, 14977, -5654, 3351, 1742, -100, -3962, 94, 31, 57, 0, 0, 0, 0, 0, 0, 0, 0
184269467, 936, 14976, -5655, 3359, 1733, -115, -3994, 122, 55, 41, 0, 0, 0, 0, 0, 0, 0, 0
184291985, 924, 14975, -5653, 3372, 1753, -127, -4008, 114, 82, 15, 0, 0, 0, 0, 0, 0, 0, 0
184308270, 924, 14975, -5653, 3372, 1753, -127, -4008, 114, 82, 15, 101, 65, 50, 49, 96, 107, 114, 153
184309091, 924, 14975, -5653, 3372, 1753, -127, -4008, 114, 82, 15, 101, 65, 50, 49, 96, 107, 114, 153
184310070, 908, 14973, -5644, 3399, 1789, -135, -3978, 164, 132, -4, 101, 65, 50, 49, 96, 107, 114, 153
184330803, 908, 14973, -5644, 3399, 1789, -135, -3978, 164, 132, -4, 95, 64, 50, 53, 100, 109, 112, 142
184331615, 908, 14973, -5644, 3399, 1789, -135, -3978, 164, 132, -4, 95, 64, 50, 53, 100, 109, 112, 142
184332605, 887, 14972, -5627, 3438, 1836, -171, -3989, 216, 173, -44, 95, 64, 50, 53, 100, 109, 112, 142
184353264, 887, 14972, -5627, 3438, 1836, -171, -3989, 216, 173, -44, 99, 59, 48, 51, 101, 105, 104, 138
184354079, 887, 14972, -5627, 3438, 1836, -171, -3989, 216, 173, -44, 99, 59, 48, 51, 101, 105, 104, 138
184355045, 872, 14974, -5596, 3481, 1834, -152, -3990, 225, 215, -118, 99, 59, 48, 51, 101, 105, 104, 138
184367603, 872, 14974, -5596, 3481, 1834, -152, -3990, 225, 215, -118, 108, 59, 50, 62, 119, 150, 108, 127
184368447, 872, 14974, -5596, 3481, 1834, -152, -3990, 225, 215, -118, 108, 59, 50, 62, 119, 150, 108, 127
184374612, 866, 14979, -5561, 3520, 1820, -158, -3952, 178, 224, -157, 108, 59, 50, 62, 119, 150, 108, 127
184390776, 866, 14979, -5561, 3520, 1820, -158, -3952, 178, 224, -157, 110, 63, 67, 83, 208, 197, 124, 124
184391603, 866, 14979, -5561, 3520, 1820, -158, -3952, 178, 224, -157, 110, 63, 67, 83, 208, 197, 124, 124
184392505, 843, 14980, -5534, 3561, 1790, -165, -3926, 264, 218, -88, 110, 63, 67, 83, 208, 197, 124, 124
184413303, 843, 14980, -5534, 3561, 1790, -165, -3926, 264, 218, -88, 132, 78, 85, 113, 277, 298, 235, 165
184414078, 843, 14980, -5534, 3561, 1790, -165, -3926, 264, 218, -88, 132, 78, 85, 113, 277, 298, 235, 165
184415070, 790, 14971, -5525, 3624, 1812, -198, -3900, 430, 282, 67, 132, 78, 85, 113, 277, 298, 235, 165
184426961, 718, 14957, -5529, 3693, 1833, -236, -3880, 529, 272, 170, 132, 78, 85, 113, 277, 298, 235, 165
184435051, 718, 14957, -5529, 3693, 1833, -236, -3880, 529, 272, 170, 162, 96, 107, 147, 346, 355, 307, 219
184435876, 718, 14957, -5529, 3693, 1833, -236, -3880, 529, 272, 170, 162, 96, 107, 147, 346, 355, 307, 219
184450806, 639, 14944, -5522, 3769, 1912, -211, -3925, 631, 283, 143, 162, 96, 107, 147, 346, 355, 307, 219
184451602, 639, 14944, -5522, 3769, 1912, -211, -3925, 631, 283, 143, 243, 138, 148, 209, 500, 604, 486, 274
184452432, 639, 14944, -5522, 3769, 1912, -211, -3925, 631, 283, 143, 243, 138, 148, 209, 500, 604, 486, 274
184473311, 570, 14932, -5497, 3863, 2004, -252, -3912, 643, 368, 49, 243, 138, 148, 209, 500, 604, 486, 274
184474144, 570, 14932, -5497, 3863, 2004, -252, -3912, 643, 368, 49, 243, 153, 164, 228, 546, 694, 529, 286
184474950, 570, 14932, -5497, 3863, 2004, -252, -3912, 643, 368, 49, 243, 153, 164, 228, 546, 694, 529, 286
184495809, 518, 14931, -5435, 3959, 2055, -329, -3895, 591, 392, -195, 243, 153, 164, 228, 546, 694, 529, 286
184496602, 518, 14931, -5435, 3959, 2055, -329, -3895, 591, 392, -195, 266, 160, 176, 250, 621, 774, 567, 308
184497432, 518, 14931, -5435, 3959, 2055, -329, -3895, 591, 392, -195, 266, 160, 176, 250, 621, 774, 567, 308
184518305, 435, 14945, -5331, 4057, 2100, -578, -3918, 712, 349, -444, 266, 160, 176, 250, 621, 774, 567, 308
184519142, 435, 14945, -5331, 4057, 2100, -578, -3918, 712, 349, -444, 303, 177, 189, 268, 665, 838, 610, 360
184519949, 435, 14945, -5331, 4057, 2100, -578, -3918, 712, 349, -444, 303, 177, 189, 268, 665, 838, 610, 360
184533290, 335, 14951, -5222, 4185, 2256, -742, -4015, 813, 459, -455, 303, 177, 189, 268, 665, 838, 610, 360
184534102, 335, 14951, -5222, 4185, 2256, -742, -4015, 813, 459, -455, 313, 180, 189, 265, 675, 869, 628, 354
184534957, 335, 14951, -5222, 4185, 2256, -742, -4015, 813, 459, -455, 313, 180, 189, 265, 675, 869, 628, 354
184546968, 263, 14935, -5141, 4344, 2386, -719, -4010, 729, 673, -278, 313, 180, 189, 265, 675, 869, 628, 354
184555060, 263, 14935, -5141, 4344, 2386, -719, -4010, 729, 673, -278, 291, 175, 192, 260, 678, 772, 584, 358
184555881, 263, 14935, -5141, 4344, 2386, -719, -4010, 729, 673, -278, 291, 175, 192, 260, 678, 772, 584, 358
184570814, 200, 14911, -5073, 4508, 2472, -773, -3923, 665, 707, -212, 291, 175, 192, 260, 678, 772, 584, 358
184571611, 200, 14911, -5073, 4508, 2472, -773, -3923, 665, 707, -212, 322, 183, 191, 261, 712, 770, 617, 387
184572405, 200, 14911, -5073, 4508, 2472, -773, -3923, 665, 707, -212, 322, 183, 191, 261, 712, 770, 617, 387
184593301, 136, 14884, -5008, 4669, 2556, -984, -3936, 587, 709, -234, 322, 183, 191, 261, 712, 770, 617, 387
184594092, 136, 14884, -5008, 4669, 2556, -984, -3936, 587, 709, -234, 323, 195, 198, 270, 763, 781, 646, 409
184594903, 136, 14884, -5008, 4669, 2556, -984, -3936, 587, 709, -234, 323, 195, 198, 270, 763, 781, 646, 409
184606902, 49, 14850, -4952, 4836, 2694, -1231, -3848, 613, 666, -194, 323, 195, 198, 270, 763, 781, 646, 409
184615088, 49, 14850, -4952, 4836, 2694, -1231, -3848, 613, 666, -194, 291, 194, 205, 289, 841, 784, 622, 364
184615877, 49, 14850, -4952, 4836, 2694, -1231, -3848, 613, 666, -194, 291, 194, 205, 289, 841, 784, 622, 364
184630808, -113, 14826, -4857, 5001, 2884, -1264, -3920, 1107, 492, -248, 291, 194, 205, 289, 841, 784, 622, 364
184631603, -113, 14826, -4857, 5001, 2884, -1264, -3920, 1107, 492, -248, 280, 191, 219, 290, 910, 843, 637, 364
184632432, -113, 14826, -4857, 5001, 2884, -1264, -3920, 1107, 492, -248, 280, 191, 219, 290, 910, 843, 637, 364
184653254, -304, 14826, -4692, 5149, 2957, -1219, -4016, 1494, 428, -516, 280, 191, 219, 290, 910, 843, 637, 364
184654119, -304, 14826, -4692, 5149, 2957, -1219, -4016, 1494, 428, -516, 258, 178, 219, 288, 910, 847, 580, 333
184654878, -304, 14826, -4692, 5149, 2957, -1219, -4016, 1494, 428, -516, 258, 178, 219, 288, 910, 847, 580, 333
184666944, -522, 14835, -4488, 5286, 2768, -1096, -4061, 1688, 321, -674, 258, 178, 219, 288, 910, 847, 580, 333
184675088, -522, 14835, -4488, 5286, 2768, -1096, -4061, 1688, 321, -674, 226, 167, 217, 291, 896, 788, 515, 294
184675901, -522, 14835, -4488, 5286, 2768, -1096, -4061, 1688, 321, -674, 226, 167, 217, 291, 896, 788, 515, 294
184690790, -771, 14851, -4276, 5383, 2695, -957, -4061, 1831, 70, -648, 226, 167, 217, 291, 896, 788, 515, 294
184691626, -771, 14851, -4276, 5383, 2695, -957, -4061, 1831, 70, -648, 227, 151, 207, 281, 815, 742, 467, 257
184692430, -771, 14851, -4276, 5383, 2695, -957, -4061, 1831, 70, -648, 227, 151, 207, 281, 815, 742, 467, 257
184713300, -1011, 14884, -4047, 5431, 2632, -722, -4069, 1781, -185, -738, 227, 151, 207, 281, 815, 742, 467, 257
184714106, -1011, 14884, -4047, 5431, 2632, -722, -4069, 1781, -185, -738, 235, 142, 196, 252, 750, 766, 510, 268
184714903, -1011, 14884, -4047, 5431, 2632, -722, -4069, 1781, -185, -738, 235, 142, 196, 252, 750, 766, 510, 268
184726931, -1168, 14952, -3811, 5382, 2479, -801, -4077, 1448, -460, -838, 235, 142, 196, 252, 750, 766, 510, 268
184735054, -1168, 14952, -3811, 5382, 2479, -801, -4077, 1448, -460, -838, 231, 140, 176, 257, 685, 644, 433, 239
184735853, -1168, 14952, -3811, 5382, 2479, -801, -4077, 1448, -460, -838, 231, 140, 176, 257, 685, 644, 433, 239
184750763, -1325, 15038, -3575, 5267, 2308, -783, -4180, 1391, -755, -847, 231, 140, 176, 257, 685, 644, 433, 239
184751643, -1325, 15038, -3575, 5267, 2308, -783, -4180, 1391, -755, -847, 225, 135, 150, 234, 620, 690, 461, 234
184752380, -1325, 15038, -3575, 5267, 2308, -783, -4180, 1391, -755, -847, 225, 135, 150, 234, 620, 690, 461, 234
184773304, -1475, 15125, -3353, 5121, 2275, -736, -4144, 1316, -944, -749, 225, 135, 150, 234, 620, 690, 461, 234
184774078, -1475, 15125, -3353, 5121, 2275, -736, -4144, 1316, -944, -749, 243, 141, 186, 262, 690, 828, 535, 255
184774910, -1475, 15125, -3353, 5121, 2275, -736, -4144, 1316, -944, -749, 243, 141, 186, 262, 690, 828, 535, 255
184795755, -1598, 15221, -3138, 4933, 2098, -680, -4013, 1116, -1158, -752, 243, 141, 186, 262, 690, 828, 535, 255
184796643, -1598, 15221, -3138, 4933, 2098, -680, -4013, 1116, -1158, -752, 257, 142, 181, 251, 710, 830, 522, 242
184797381, -1598, 15221, -3138, 4933, 2098, -680, -4013, 1116, -1158, -752, 257, 142, 181, 251, 710, 830, 522, 242
184810854, -1716, 15328, -2917, 4694, 1842, -641, -3930, 1034, -1414, -795, 257, 142, 181, 251, 710, 830, 522, 242
184811621, -1716, 15328, -2917, 4694, 1842, -641, -3930, 1034, -1414, -795, 249, 123, 170, 242, 651, 740, 434, 206
184812428, -1716, 15328, -2917, 4694, 1842, -641, -3930, 1034, -1414, -795, 249, 123, 170, 242, 651, 740, 434, 206
184833294, -1880, 15420, -2700, 4452, 1606, -556, -3959, 1013, -1629, -790, 249, 123, 170, 242, 651, 740, 434, 206
184834093, -1880, 15420, -2700, 4452, 1606, -556, -3959, 1013, -1629, -790, 262, 125, 186, 284, 649, 794, 464, 226
184834904, -1880, 15420, -2700, 4452, 1606, -556, -3959, 1013, -1629, -790, 262, 125, 186, 284, 649, 794, 464, 226
184846936, -1981, 15511, -2520, 4190, 1528, -725, -3892, 590, -1668, -687, 262, 125, 186, 284, 649, 794, 464, 226
184855037, -1981, 15511, -2520, 4190, 1528, -725, -3892, 590, -1668, -687, 278, 140, 200, 327, 674, 793, 515, 244
184855894, -1981, 15511, -2520, 4190, 1528, -725, -3892, 590, -1668, -687, 278, 140, 200, 327, 674, 793, 515, 244
184870801, -2046, 15594, -2377, 3924, 1481, -834, -3639, 316, -1648, -544, 278, 140, 200, 327, 674, 793, 515, 244
184871634, -2046, 15594, -2377, 3924, 1481, -834, -3639, 316, -1648, -544, 282, 129, 177, 322, 566, 721, 514, 265
184872422, -2046, 15594, -2377, 3924, 1481, -834, -3639, 316, -1648, -544, 282, 129, 177, 322, 566, 721, 514, 265
184893302, -2155, 15673, -2222, 3633, 1416, -835, -3610, 549, -1832, -525, 282, 129, 177, 322, 566, 721, 514, 265
184894106, -2155, 15673, -2222, 3633, 1416, -835, -3610, 549, -1832, -525, 282, 127, 180, 328, 536, 699, 535, 268
184894931, -2155, 15673, -2222, 3633, 1416, -835, -3610, 549, -1832, -525, 282, 127, 180, 328, 536, 699, 535, 268
184906966, -2284, 15748, -2048, 3319, 1373, -1005, -3490, 645, -1993, -582, 282, 127, 180, 328, 536, 699, 535, 268
184915053, -2284, 15748, -2048, 3319, 1373, -1005, -3490, 645, -1993, -582, 284, 135, 179, 344, 580, 727, 564, 295
184915892, -2284, 15748, -2048, 3319, 1373, -1005, -3490, 645, -1993, -582, 284, 135, 179, 344, 580, 727, 564, 295
184936949, -2437, 15808, -1873, 3012, 1254, -902, -3316, 798, -1971, -554, 284, 135, 179, 344, 580, 727, 564, 295
184945089, -2437, 15808, -1873, 3012, 1254, -902, -3316, 798, -1971, -554, 280, 140, 174, 348, 550, 720, 580, 304
184945903, -2437, 15808, -1873, 3012, 1254, -902, -3316, 798, -1971, -554, 280, 140, 174, 348, 550, 720, 580, 304
184952712, -2605, 15852, -1703, 2727, 1239, -903, -2956, 891, -1872, -517, 280, 140, 174, 348, 550, 720, 580, 304
184953508, -2605, 15852, -1703, 2727, 1239, -903, -2956, 891, -1872, -517, 303, 134, 168, 499, 639, 714, 560, 303
184960777, -2605, 15852, -1703, 2727, 1239, -903, -2956, 891, -1872, -517, 303, 134, 168, 499, 639, 714, 560, 303
184961603, -2605, 15852, -1703, 2727, 1239, -903, -2956, 891, -1872, -517, 303, 134, 168, 499, 639, 714, 560, 303
184962392, -2605, 15852, -1703, 2727, 1239, -903, -2956, 891, -1872, -517, 303, 134, 168, 499, 639, 714, 560, 303
184967004, -2766, 15884, -1536, 2470, 1203, -786, -2786, 889, -1713, -512, 303, 134, 168, 499, 639, 714, 560, 303
184975082, -2766, 15884, -1536, 2470, 1203, -786, -2786, 889, -1713, -512, 288, 135, 168, 570, 651, 673, 513, 271
184975853, -2766, 15884, -1536, 2470, 1203, -786, -2786, 889, -1713, -512, 288, 135, 168, 570, 651, 673, 513, 271
184998292, -2846, 15908, -1389, 2305, 1535, -882, -2809, 567, -1487, -402, 288, 135, 168, 570, 651, 673, 513, 271
184999102, -2846, 15908, -1389, 2305, 1535, -882, -2809, 567, -1487, -402, 257, 132, 168, 855, 667, 742, 521, 277
184999955, -2846, 15908, -1389, 2305, 1535, -882, -2809, 567, -1487, -402, 257, 132, 168, 855, 667, 742, 521, 277
185013280, -2910, 15921, -1254, 2216, 1978, -942, -2689, 467, -1300, -323, 257, 132, 168, 855, 667, 742, 521, 277
185014093, -2910, 15921, -1254, 2216, 1978, -942, -2689, 467, -1300, -323, 252, 136, 194, 1021, 677, 774, 525, 260
185014878, -2910, 15921, -1254, 2216, 1978, -942, -2689, 467, -1300, -323, 252, 136, 194, 1021, 677, 774, 525, 260
185026946, -2945, 15929, -1138, 2172, 1318, -892, -2617, 338, -699, -408, 252, 136, 194, 1021, 677, 774, 525, 260
185035065, -2945, 15929, -1138, 2172, 1318, -892, -2617, 338, -699, -408, 242, 130, 188, 1085, 672, 802, 516, 246
185035906, -2945, 15929, -1138, 2172, 1318, -892, -2617, 338, -699, -408, 242, 130, 188, 1085, 672, 802, 516, 246
185050756, -2899, 15939, -1046, 2207, 1551, -940, -2738, -101, -304, -390, 242, 130, 188, 1085, 672, 802, 516, 246
185051633, -2899, 15939, -1046, 2207, 1551, -940, -2738, -101, -304, -390, 185, 117, 180, 1063, 526, 733, 453, 212
185052381, -2899, 15939, -1046, 2207, 1551, -940, -2738, -101, -304, -390, 185, 117, 180, 1063, 526, 733, 453, 212
185073257, -2846, 15945, -978, 2263, 1622, -1095, -2857, -215, -171, -294, 185, 117, 180, 1063, 526, 733, 453, 212
185074043, -2846, 15945, -978, 2263, 1622, -1095, -2857, -215, -171, -294, 166, 114, 184, 1024, 539, 761, 441, 204
185074869, -2846, 15945, -978, 2263, 1622, -1095, -2857, -215, -171, -294, 166, 114, 184, 1024, 539, 761, 441, 204
185095775, -2807, 15946, -927, 2327, 1565, -1150, -3109, -124, -31, -229, 166, 114, 184, 1024, 539, 761, 441, 204
185096625, -2807, 15946, -927, 2327, 1565, -1150, -3109, -124, -31, -229, 150, 118, 203, 834, 519, 681, 399, 181
185097418, -2807, 15946, -927, 2327, 1565, -1150, -3109, -124, -31, -229, 150, 118, 203, 834, 519, 681, 399, 181
185110783, -2773, 15944, -880, 2396, 1553, -1148, -3026, -118, 8, -221, 150, 118, 203, 834, 519, 681, 399, 181
185111606, -2773, 15944, -880, 2396, 1553, -1148, -3026, -118, 8, -221, 146, 119, 187, 689, 489, 689, 394, 183
185112402, -2773, 15944, -880, 2396, 1553, -1148, -3026, -118, 8, -221, 146, 119, 187, 689, 489, 689, 394, 183
185133231, -2767, 15937, -837, 2465, 1608, -1128, -3062, 51, 5, -166, 146, 119, 187, 689, 489, 689, 394, 183
185134067, -2767, 15937, -837, 2465, 1608, -1128, -3062, 51, 5, -166, 155, 117, 184, 629, 486, 613, 343, 164
185134875, -2767, 15937, -837, 2465, 1608, -1128, -3062, 51, 5, -166, 155, 117, 184, 629, 486, 613, 343, 164
185146922, -2770, 15929, -801, 2524, 1609, -1109, -3180, 126, -9, -115, 155, 117, 184, 629, 486, 613, 343, 164
185155037, -2770, 15929, -801, 2524, 1609, -1109, -3180, 126, -9, -115, 150, 127, 198, 600, 510, 615, 345, 160
185155855, -2770, 15929, -801, 2524, 1609, -1109, -3180, 126, -9, -115, 150, 127, 198, 600, 510, 615, 345, 160
185170756, -2770, 15921, -765, 2585, 1629, -1154, -3136, 80, 1, -127, 150, 127, 198, 600, 510, 615, 345, 160
185171645, -2770, 15921, -765, 2585, 1629, -1154, -3136, 80, 1, -127, 152, 126, 188, 638, 471, 592, 334, 156
185172428, -2770, 15921, -765, 2585, 1629, -1154, -3136, 80, 1, -127, 152, 126, 188, 638, 471, 592, 334, 156
185193238, -2766, 15913, -732, 2647, 1656, -1107, -3142, 85, 9, -108, 152, 126, 188, 638, 471, 592, 334, 156
185194033, -2766, 15913, -732, 2647, 1656, -1107, -3142, 85, 9, -108, 146, 126, 169, 618, 472, 596, 326, 150
185194827, -2766, 15913, -732, 2647, 1656, -1107, -3142, 85, 9, -108, 146, 126, 169, 618, 472, 596, 326, 150
185206936, -2758, 15906, -706, 2703, 1693, -1141, -3194, 37, -7, -71, 146, 126, 169, 618, 472, 596, 326, 150
185215087, -2758, 15906, -706, 2703, 1693, -1141, -3194, 37, -7, -71, 143, 118, 173, 555, 463, 538, 315, 148
185215871, -2758, 15906, -706, 2703, 1693, -1141, -3194, 37, -7, -71, 143, 118, 173, 555, 463, 538, 315, 148
