Timestamp, Orientation x, Orientation y, Orientation z, Orientation w, Acceleration x, Acceleration y, Acceleration z, Rotation x, Rotation y, Rotation z, EMG 0, EMG 1, EMG 2, EMG 3, EMG 4, EMG 5, EMG 6, EMG 7
492677706, -2615, 9979, 4504, 11904, 3965, -163, -2450, -20, -13, -4, 0, 0, 0, 0, 0, 0, 0, 0
492678512, -2615, 9979, 4504, 11904, 3961, -177, -2435, -15, -2, 0, 0, 0, 0, 0, 0, 0, 0, 0
492679369, -2615, 9979, 4504, 11904, 3961, -173, -2432, 9, 13, -5, 0, 0, 0, 0, 0, 0, 0, 0
492698769, -2615, 9979, 4504, 11904, 3957, -166, -2431, 5, 10, -7, 0, 0, 0, 0, 0, 0, 0, 0
492721310, -2615, 9979, 4504, 11904, 3952, -173, -2426, 3, 3, -11, 0, 0, 0, 0, 0, 0, 0, 0
492737600, -2615, 9979, 4504, 11904, 3952, -173, -2426, 3, 3, -11, 24, 58, 70, 201, 138, 82, 25, 21
492738391, -2615, 9979, 4504, 11904, 3952, -173, -2426, 3, 3, -11, 24, 58, 70, 201, 138, 82, 25, 21
492739394, -2615, 9979, 4504, 11904, 3950, -175, -2427, 4, -10, -12, 24, 58, 70, 201, 138, 82, 25, 21
492760114, -2615, 9979, 4504, 11904, 3950, -175, -2427, 4, -10, -12, 25, 58, 70, 267, 156, 85, 23, 21
492760927, -2615, 9979, 4504, 11904, 3950, -175, -2427, 4, -10, -12, 25, 58, 70, 267, 156, 85, 23, 21
492761852, -2615, 9979, 4504, 11904, 3952, -170, -2438, -2, -13, -13, 25, 58, 70, 267, 156, 85, 23, 21
492782604, -2615, 9979, 4504, 11904, 3952, -170, -2438, -2, -13, -13, 22, 34, 41, 279, 145, 66, 24, 21
492783418, -2615, 9979, 4504, 11904, 3952, -170, -2438, -2, -13, -13, 22, 34, 41, 279, 145, 66, 24, 21
492784392, -2610, 9981, 4503, 11904, 3944, -176, -2446, -21, -18, -16, 22, 34, 41, 279, 145, 66, 24, 21
492797582, -2610, 9981, 4503, 11904, 3944, -176, -2446, -21, -18, -16, 20, 29, 37, 229, 152, 59, 24, 22
492798368, -2610, 9981, 4503, 11904, 3944, -176, -2446, -21, -18, -16, 20, 29, 37, 229, 152, 59, 24, 22
492799372, -2606, 9983, 4502, 11903, 3954, -173, -2443, -23, -15, -11, 20, 29, 37, 229, 152, 59, 24, 22
492820093, -2606, 9983, 4502, 11903, 3954, -173, -2443, -23, -15, -11, 21, 28, 34, 287, 150, 56, 22, 23
492820882, -2606, 9983, 4502, 11903, 3954, -173, -2443, -23, -15, -11, 21, 28, 34, 287, 150, 56, 22, 23
492821819, -2606, 9983, 4502, 11903, 3948, -183, -2448, -5, 2, -12, 21, 28, 34, 287, 150, 56, 22, 23
492842580, -2606, 9983, 4502, 11903, 3948, -183, -2448, -5, 2, -12, 21, 25, 33, 306, 162, 76, 23, 23
492843367, -2606, 9983, 4502, 11903, 3948, -183, -2448, -5, 2, -12, 21, 25, 33, 306, 162, 76, 23, 23
492844383, -2606, 9983, 4502, 11903, 3953, -175, -2438, -5, -2, -9, 21, 25, 33, 306, 162, 76, 23, 23
492857541, -2606, 9983, 4502, 11903, 3953, -175, -2438, -5, -2, -9, 20, 22, 31, 289, 160, 73, 25, 22
492858384, -2606, 9983, 4502, 11903, 3953, -175, -2438, -5, -2, -9, 20, 22, 31, 289, 160, 73, 25, 22
492859353, -2606, 9983, 4502, 11903, 3943, -173, -2428, -7, -4, -11, 20, 22, 31, 289, 160, 73, 25, 22
492880081, -2606, 9983, 4502, 11903, 3943, -173, -2428, -7, -4, -11, 20, 25, 37, 293, 149, 75, 29, 22
492880916, -2606, 9983, 4502, 11903, 3943, -173, -2428, -7, -4, -11, 20, 25, 37, 293, 149, 75, 29, 22
492881822, -2602, 9986, 4502, 11902, 3945, -174, -2450, -11, -22, -13, 20, 25, 37, 293, 149, 75, 29, 22
492902592, -2602, 9986, 4502, 11902, 3945, -174, -2450, -11, -22, -13, 21, 28, 40, 285, 182, 92, 31, 25
492903366, -2602, 9986, 4502, 11902, 3945, -174, -2450, -11, -22, -13, 21, 28, 40, 285, 182, 92, 31, 25
492904409, -2600, 9988, 4504, 11899, 3950, -167, -2444, 1, -24, -9, 21, 28, 40, 285, 182, 92, 31, 25
492917620, -2600, 9988, 4504, 11899, 3950, -167, -2444, 1, -24, -9, 22, 26, 41, 308, 183, 92, 34, 23
492918439, -2600, 9988, 4504, 11899, 3950, -167, -2444, 1, -24, -9, 22, 26, 41, 308, 183, 92, 34, 23
492919381, -2598, 9991, 4507, 11896, 3956, -174, -2453, 7, -29, -12, 22, 26, 41, 308, 183, 92, 34, 23
492940090, -2598, 9991, 4507, 11896, 3956, -174, -2453, 7, -29, -12, 22, 27, 41, 332, 170, 81, 33, 23
492940917, -2598, 9991, 4507, 11896, 3956, -174, -2453, 7, -29, -12, 22, 27, 41, 332, 170, 81, 33, 23
492941819, -2590, 9996, 4503, 11896, 3952, -162, -2451, -47, -29, -8, 22, 27, 41, 332, 170, 81, 33, 23
492962609, -2590, 9996, 4503, 11896, 3952, -162, -2451, -47, -29, -8, 23, 29, 39, 323, 154, 113, 40, 25
492963400, -2590, 9996, 4503, 11896, 3952, -162, -2451, -47, -29, -8, 23, 29, 39, 323, 154, 113, 40, 25
492964344, -2585, 10000, 4500, 11895, 3944, -180, -2450, -34, -24, -4, 23, 29, 39, 323, 154, 113, 40, 25
492976899, -2585, 10000, 4500, 11895, 3944, -180, -2450, -34, -24, -4, 38, 62, 164, 378, 157, 215, 55, 34
492977691, -2585, 10000, 4500, 11895, 3944, -180, -2450, -34, -24, -4, 38, 62, 164, 378, 157, 215, 55, 34
492983885, -2585, 10003, 4500, 11892, 3942, -158, -2438, 4, -24, 6, 38, 62, 164, 378, 157, 215, 55, 34
493000066, -2585, 10003, 4500, 11892, 3942, -158, -2438, 4, -24, 6, 75, 176, 347, 497, 196, 276, 59, 49
493000924, -2585, 10003, 4500, 11892, 3942, -158, -2438, 4, -24, 6, 75, 176, 347, 497, 196, 276, 59, 49
493001843, -2568, 9996, 4499, 11902, 3966, -122, -2475, -70, 37, -84, 75, 176, 347, 497, 196, 276, 59, 49
493022590, -2568, 9996, 4499, 11902, 3966, -122, -2475, -70, 37, -84, 108, 358, 622, 575, 218, 377, 71, 64
493023394, -2568, 9996, 4499, 11902, 3966, -122, -2475, -70, 37, -84, 108, 358, 622, 575, 218, 377, 71, 64
493024368, -2551, 9998, 4482, 11910, 3900, -71, -2415, -143, 11, -19, 108, 358, 622, 575, 218, 377, 71, 64
493036882, -2551, 9998, 4482, 11910, 3900, -71, -2415, -143, 11, -19, 216, 618, 771, 788, 313, 461, 103, 85
493037719, -2551, 9998, 4482, 11910, 3900, -71, -2415, -143, 11, -19, 216, 618, 771, 788, 313, 461, 103, 85
493043843, -2562, 9972, 4540, 11908, 4037, -219, -2344, 297, 60, -188, 216, 618, 771, 788, 313, 461, 103, 85
493060089, -2562, 9972, 4540, 11908, 4037, -219, -2344, 297, 60, -188, 283, 790, 990, 983, 401, 533, 118, 93
493060894, -2562, 9972, 4540, 11908, 4037, -219, -2344, 297, 60, -188, 283, 790, 990, 983, 401, 533, 118, 93
493061818, -2605, 9929, 4660, 11888, 3986, 151, -2511, 702, 71, -284, 283, 790, 990, 983, 401, 533, 118, 93
493082596, -2605, 9929, 4660, 11888, 3986, 151, -2511, 702, 71, -284, 389, 997, 1114, 1138, 463, 573, 131, 119
493083367, -2605, 9929, 4660, 11888, 3986, 151, -2511, 702, 71, -284, 389, 997, 1114, 1138, 463, 573, 131, 119
493084397, -2604, 9931, 4739, 11855, 3839, 113, -2622, 369, -194, -243, 389, 997, 1114, 1138, 463, 573, 131, 119
493096905, -2604, 9931, 4739, 11855, 3839, 113, -2622, 369, -194, -243, 565, 1176, 1198, 1252, 482, 632, 181, 194
493097738, -2604, 9931, 4739, 11855, 3839, 113, -2622, 369, -194, -243, 565, 1176, 1198, 1252, 482, 632, 181, 194
493103881, -2607, 9943, 4788, 11824, 3899, -239, -2482, 246, -192, -105, 565, 1176, 1198, 1252, 482, 632, 181, 194
493120062, -2607, 9943, 4788, 11824, 3899, -239, -2482, 246, -192, -105, 650, 1292, 1159, 1290, 595, 642, 245, 206
493120866, -2607, 9943, 4788, 11824, 3899, -239, -2482, 246, -192, -105, 650, 1292, 1159, 1290, 595, 642, 245, 206
493121825, -2623, 9972, 4816, 11785, 4058, -640, -1989, 206, -248, 53, 650, 1292, 1159, 1290, 595, 642, 245, 206
493142567, -2623, 9972, 4816, 11785, 4058, -640, -1989, 206, -248, 53, 674, 1227, 1205, 1327, 632, 731, 323, 244
493143413, -2623, 9972, 4816, 11785, 4058, -640, -1989, 206, -248, 53, 674, 1227, 1205, 1327, 632, 731, 323, 244
493144369, -2686, 10059, 4703, 11743, 4118, -743, -2144, -250, -292, 818, 674, 1227, 1205, 1327, 632, 731, 323, 244
493156892, -2686, 10059, 4703, 11743, 4118, -743, -2144, -250, -292, 818, 745, 1207, 1112, 1281, 704, 996, 470, 272
493157744, -2686, 10059, 4703, 11743, 4118, -743, -2144, -250, -292, 818, 745, 1207, 1112, 1281, 704, 996, 470, 272
493163894, -2628, 10317, 4640, 11556, 3483, 75, -2470, -664, -274, 212, 745, 1207, 1112, 1281, 704, 996, 470, 272
493180054, -2628, 10317, 4640, 11556, 3483, 75, -2470, -664, -274, 212, 749, 1138, 1049, 1248, 912, 1179, 510, 288
493180899, -2628, 10317, 4640, 11556, 3483, 75, -2470, -664, -274, 212, 749, 1138, 1049, 1248, 912, 1179, 510, 288
493181794, -2605, 10386, 4593, 11518, 4030, -1289, -2258, -268, -398, 219, 749, 1138, 1049, 1248, 912, 1179, 510, 288
493202578, -2605, 10386, 4593, 11518, 4030, -1289, -2258, -268, -398, 219, 687, 1082, 1067, 1205, 923, 1302, 563, 265
493203391, -2605, 10386, 4593, 11518, 4030, -1289, -2258, -268, -398, 219, 687, 1082, 1067, 1205, 923, 1302, 563, 265
493204367, -2737, 10424, 4761, 11384, 3986, -413, -2635, 1303, -571, 105, 687, 1082, 1067, 1205, 923, 1302, 563, 265
493225079, -2804, 10453, 4892, 11285, 3893, 596, -2904, 881, -475, -73, 687, 1082, 1067, 1205, 923, 1302, 563, 265
493225904, -2804, 10453, 4892, 11285, 3893, 596, -2904, 881, -475, -73, 763, 1177, 1153, 1208, 874, 1319, 570, 306
493226691, -2804, 10453, 4892, 11285, 3893, 596, -2904, 881, -475, -73, 763, 1177, 1153, 1208, 874, 1319, 570, 306
493240080, -2814, 10485, 4889, 11254, 3948, 176, -2793, 47, -217, 135, 763, 1177, 1153, 1208, 874, 1319, 570, 306
493240856, -2814, 10485, 4889, 11254, 3948, 176, -2793, 47, -217, 135, 746, 1297, 1135, 1163, 871, 1325, 569, 286
493241686, -2814, 10485, 4889, 11254, 3948, 176, -2793, 47, -217, 135, 746, 1297, 1135, 1163, 871, 1325, 569, 286
493262625, -2813, 10500, 4865, 11250, 3844, -130, -2673, -105, -50, 112, 746, 1297, 1135, 1163, 871, 1325, 569, 286
493263434, -2813, 10500, 4865, 11250, 3844, -130, -2673, -105, -50, 112, 706, 1291, 1091, 1138, 801, 1130, 458, 264
493264232, -2813, 10500, 4865, 11250, 3844, -130, -2673, -105, -50, 112, 706, 1291, 1091, 1138, 801, 1130, 458, 264
493285107, -2800, 10507, 4827, 11264, 3873, -98, -2577, -225, 37, 84, 706, 1291, 1091, 1138, 801, 1130, 458, 264
493285900, -2800, 10507, 4827, 11264, 3873, -98, -2577, -225, 37, 84, 673, 1268, 1071, 1083, 554, 969, 417, 242
493286693, -2800, 10507, 4827, 11264, 3873, -98, -2577, -225, 37, 84, 673, 1268, 1071, 1083, 554, 969, 417, 242
493300072, -2780, 10510, 4793, 11281, 3878, -296, -2506, -233, 48, 33, 673, 1268, 1071, 1083, 554, 969, 417, 242
493300867, -2780, 10510, 4793, 11281, 3878, -296, -2506, -233, 48, 33, 740, 1172, 1004, 1031, 571, 739, 322, 244
493301708, -2780, 10510, 4793, 11281, 3878, -296, -2506, -233, 48, 33, 740, 1172, 1004, 1031, 571, 739, 322, 244
493322586, -2753, 10514, 4775, 11290, 3889, -334, -2443, -184, -12, -42, 740, 1172, 1004, 1031, 571, 739, 322, 244
493323391, -2753, 10514, 4775, 11290, 3889, -334, -2443, -184, -12, -42, 736, 905, 983, 961, 695, 693, 261, 244
493324235, -2753, 10514, 4775, 11290, 3889, -334, -2443, -184, -12, -42, 736, 905, 983, 961, 695, 693, 261, 244
493345047, -2659, 10563, 4756, 11276, 3786, -281, -2426, -437, -379, -201, 736, 905, 983, 961, 695, 693, 261, 244
493345869, -2659, 10563, 4756, 11276, 3786, -281, -2426, -437, -379, -201, 849, 687, 957, 870, 832, 600, 163, 299
493346669, -2659, 10563, 4756, 11276, 3786, -281, -2426, -437, -379, -201, 849, 687, 957, 870, 832, 600, 163, 299
493360097, -2540, 10632, 4720, 11253, 3839, -295, -2473, -594, -504, -194, 849, 687, 957, 870, 832, 600, 163, 299
493360940, -2540, 10632, 4720, 11253, 3839, -295, -2473, -594, -504, -194, 907, 588, 1041, 856, 923, 689, 226, 329
493361716, -2540, 10632, 4720, 11253, 3839, -295, -2473, -594, -504, -194, 907, 588, 1041, 856, 923, 689, 226, 329
493382594, -2456, 10692, 4662, 11239, 4107, -360, -2514, -559, -370, -9, 907, 588, 1041, 856, 923, 689, 226, 329
493383391, -2456, 10692, 4662, 11239, 4107, -360, -2514, -559, -370, -9, 909, 449, 1025, 826, 968, 644, 247, 338
493384236, -2456, 10692, 4662, 11239, 4107, -360, -2514, -559, -370, -9, 909, 449, 1025, 826, 968, 644, 247, 338
493405093, -2413, 10738, 4611, 11226, 4028, -252, -2550, -368, -250, 106, 909, 449, 1025, 826, 968, 644, 247, 338
493405938, -2413, 10738, 4611, 11226, 4028, -252, -2550, -368, -250, 106, 827, 393, 968, 851, 992, 739, 275, 340
493406716, -2413, 10738, 4611, 11226, 4028, -252, -2550, -368, -250, 106, 827, 393, 968, 851, 992, 739, 275, 340
493420127, -2388, 10768, 4567, 11221, 3813, 10, -2680, -281, -138, 118, 827, 393, 968, 851, 992, 739, 275, 340
493420891, -2388, 10768, 4567, 11221, 3813, 10, -2680, -281, -138, 118, 702, 342, 862, 905, 997, 858, 292, 307
493421756, -2388, 10768, 4567, 11221, 3813, 10, -2680, -281, -138, 118, 702, 342, 862, 905, 997, 858, 292, 307
493442550, -2309, 10802, 4443, 11254, 3914, -55, -2475, -845, -30, 178, 702, 342, 862, 905, 997, 858, 292, 307
493443378, -2309, 10802, 4443, 11254, 3914, -55, -2475, -845, -30, 178, 537, 292, 759, 891, 918, 912, 291, 248
493444197, -2309, 10802, 4443, 11254, 3914, -55, -2475, -845, -30, 178, 537, 292, 759, 891, 918, 912, 291, 248
493465113, -2321, 10811, 4397, 11261, 4004, -80, -2597, -151, 45, 225, 537, 292, 759, 891, 918, 912, 291, 248
493465907, -2321, 10811, 4397, 11261, 4004, -80, -2597, -151, 45, 225, 337, 193, 614, 908, 862, 863, 242, 202
493466717, -2321, 10811, 4397, 11261, 4004, -80, -2597, -151, 45, 225, 337, 193, 614, 908, 862, 863, 242, 202
493480078, -2305, 10822, 4372, 11263, 3741, -146, -2739, -167, -41, 40, 337, 193, 614, 908, 862, 863, 242, 202
493480932, -2305, 10822, 4372, 11263, 3741, -146, -2739, -167, -41, 40, 278, 178, 656, 879, 831, 833, 204, 177
493481716, -2305, 10822, 4372, 11263, 3741, -146, -2739, -167, -41, 40, 278, 178, 656, 879, 831, 833, 204, 177
493502551, -2352, 10813, 4407, 11248, 4055, -370, -2577, 341, 23, 53, 278, 178, 656, 879, 831, 833, 204, 177
493503374, -2352, 10813, 4407, 11248, 4055, -370, -2577, 341, 23, 53, 220, 150, 602, 768, 763, 761, 160, 135
493504178, -2352, 10813, 4407, 11248, 4055, -370, -2577, 341, 23, 53, 220, 150, 602, 768, 763, 761, 160, 135
493525088, -2415, 10776, 4487, 11239, 3852, 82, -2708, 578, 139, -100, 220, 150, 602, 768, 763, 761, 160, 135
493525893, -2415, 10776, 4487, 11239, 3852, 82, -2708, 578, 139, -100, 165, 145, 515, 752, 651, 635, 126, 101
493526728, -2415, 10776, 4487, 11239, 3852, 82, -2708, 578, 139, -100, 165, 145, 515, 752, 651, 635, 126, 101
493540069, -2419, 10768, 4478, 11250, 3856, -55, -2655, -29, 81, 26, 165, 145, 515, 752, 651, 635, 126, 101
493540899, -2419, 10768, 4478, 11250, 3856, -55, -2655, -29, 81, 26, 115, 113, 471, 796, 590, 505, 96, 75
493541716, -2419, 10768, 4478, 11250, 3856, -55, -2655, -29, 81, 26, 115, 113, 471, 796, 590, 505, 96, 75
493562543, -2406, 10767, 4451, 11264, 3897, -167, -2659, -173, 61, 36, 115, 113, 471, 796, 590, 505, 96, 75
493563393, -2406, 10767, 4451, 11264, 3897, -167, -2659, -173, 61, 36, 102, 129, 499, 681, 523, 438, 77, 63
493564169, -2406, 10767, 4451, 11264, 3897, -167, -2659, -173, 61, 36, 102, 129, 499, 681, 523, 438, 77, 63
493585092, -2397, 10762, 4428, 11280, 3868, -265, -2610, -143, 83, 27, 102, 129, 499, 681, 523, 438, 77, 63
493585892, -2397, 10762, 4428, 11280, 3868, -265, -2610, -143, 83, 27, 97, 136, 375, 681, 439, 425, 76, 61
493586707, -2397, 10762, 4428, 11280, 3868, -265, -2610, -143, 83, 27, 97, 136, 375, 681, 439, 425, 76, 61
493600099, -2410, 10749, 4434, 11288, 3881, -247, -2600, 72, 92, 0, 97, 136, 375, 681, 439, 425, 76, 61
493600865, -2410, 10749, 4434, 11288, 3881, -247, -2600, 72, 92, 0, 75, 133, 374, 696, 451, 431, 66, 51
493601705, -2410, 10749, 4434, 11288, 3881, -247, -2600, 72, 92, 0, 75, 133, 374, 696, 451, 431, 66, 51
493622625, -2430, 10735, 4454, 11289, 3890, -153, -2603, 155, 72, -19, 75, 133, 374, 696, 451, 431, 66, 51
493623404, -2430, 10735, 4454, 11289, 3890, -153, -2603, 155, 72, -19, 60, 128, 343, 652, 436, 360, 57, 43
493624260, -2430, 10735, 4454, 11289, 3890, -153, -2603, 155, 72, -19, 60, 128, 343, 652, 436, 360, 57, 43
493636199, -2440, 10722, 4477, 11289, 3897, -124, -2646, 137, 43, -67, 60, 128, 343, 652, 436, 360, 57, 43
493644375, -2440, 10722, 4477, 11289, 3897, -124, -2646, 137, 43, -67, 52, 130, 418, 574, 383, 330, 53, 40
493645175, -2440, 10722, 4477, 11289, 3897, -124, -2646, 137, 43, -67, 52, 130, 418, 574, 383, 330, 53, 40
493658746, -2440, 10716, 4484, 11292, 3893, -212, -2634, 27, 29, -32, 52, 130, 418, 574, 383, 330, 53, 40
493666884, -2440, 10716, 4484, 11292, 3893, -212, -2634, 27, 29, -32, 52, 120, 395, 596, 362, 308, 44, 37
493667667, -2440, 10716, 4484, 11292, 3893, -212, -2634, 27, 29, -32, 52, 120, 395, 596, 362, 308, 44, 37
493682567, -2441, 10713, 4489, 11294, 3907, -260, -2592, 23, 16, -23, 52, 120, 395, 596, 362, 308, 44, 37
493683390, -2441, 10713, 4489, 11294, 3907, -260, -2592, 23, 16, -23, 58, 112, 378, 600, 377, 296, 47, 39
493684195, -2441, 10713, 4489, 11294, 3907, -260, -2592, 23, 16, -23, 58, 112, 378, 600, 377, 296, 47, 39
493696293, -2445, 10708, 4495, 11295, 3898, -199, -2609, 39, 24, -15, 58, 112, 378, 600, 377, 296, 47, 39
493704379, -2445, 10708, 4495, 11295, 3898, -199, -2609, 39, 24, -15, 50, 109, 374, 645, 335, 252, 46, 34
493705145, -2445, 10708, 4495, 11295, 3898, -199, -2609, 39, 24, -15, 50, 109, 374, 645, 335, 252, 46, 34
493718743, -2446, 10703, 4501, 11297, 3903, -200, -2586, 27, 24, -31, 50, 109, 374, 645, 335, 252, 46, 34
493726891, -2446, 10703, 4501, 11297, 3903, -200, -2586, 27, 24, -31, 52, 119, 420, 586, 297, 238, 46, 34
493727732, -2446, 10703, 4501, 11297, 3903, -200, -2586, 27, 24, -31, 52, 119, 420, 586, 297, 238, 46, 34
493742545, -2443, 10700, 4509, 11297, 3897, -179, -2591, 22, -4, -49, 52, 119, 420, 586, 297, 238, 46, 34
493743395, -2443, 10700, 4509, 11297, 3897, -179, -2591, 22, -4, -49, 46, 113, 341, 547, 268, 254, 49, 33
493744190, -2443, 10700, 4509, 11297, 3897, -179, -2591, 22, -4, -49, 46, 113, 341, 547, 268, 254, 49, 33
493756222, -2439, 10702, 4511, 11295, 3874, -226, -2603, -6, -18, -13, 46, 113, 341, 547, 268, 254, 49, 33
493764410, -2439, 10702, 4511, 11295, 3874, -226, -2603, -6, -18, -13, 48, 93, 304, 618, 297, 273, 53, 32
493765182, -2439, 10702, 4511, 11295, 3874, -226, -2603, -6, -18, -13, 48, 93, 304, 618, 297, 273, 53, 32
493778745, -2436, 10704, 4514, 11293, 3893, -230, -2611, 4, -23, -21, 48, 93, 304, 618, 297, 273, 53, 32
493786865, -2436, 10704, 4514, 11293, 3893, -230, -2611, 4, -23, -21, 43, 88, 310, 569, 297, 289, 52, 30
493787668, -2436, 10704, 4514, 11293, 3893, -230, -2611, 4, -23, -21, 43, 88, 310, 569, 297, 289, 52, 30
493802596, -2437, 10703, 4520, 11291, 3898, -221, -2610, 29, -10, -20, 43, 88, 310, 569, 297, 289, 52, 30
493803366, -2437, 10703, 4520, 11291, 3898, -221, -2610, 29, -10, -20, 43, 96, 393, 492, 298, 275, 54, 32
493804235, -2437, 10703, 4520, 11291, 3898, -221, -2610, 29, -10, -20, 43, 96, 393, 492, 298, 275, 54, 32
493816266, -2434, 10703, 4523, 11290, 3897, -208, -2605, 1, -10, -21, 43, 96, 393, 492, 298, 275, 54, 32
493824373, -2434, 10703, 4523, 11290, 3897, -208, -2605, 1, -10, -21, 41, 83, 346, 579, 288, 286, 56, 29
493825171, -2434, 10703, 4523, 11290, 3897, -208, -2605, 1, -10, -21, 41, 83, 346, 579, 288, 286, 56, 29
493838725, -2431, 10703, 4526, 11290, 3895, -208, -2592, 3, -10, -24, 41, 83, 346, 579, 288, 286, 56, 29
493846808, -2431, 10703, 4526, 11290, 3895, -208, -2592, 3, -10, -24, 41, 81, 340, 560, 298, 261, 56, 28
493847645, -2431, 10703, 4526, 11290, 3895, -208, -2592, 3, -10, -24, 41, 81, 340, 560, 298, 261, 56, 28
493861872, -2426, 10706, 4525, 11289, 3883, -214, -2606, -28, -23, -12, 41, 81, 340, 560, 298, 261, 56, 28
493862699, -2426, 10706, 4525, 11289, 3883, -214, -2606, -28, -23, -12, 36, 86, 323, 500, 276, 263, 57, 31
493868709, -2426, 10706, 4525, 11289, 3883, -214, -2606, -28, -23, -12, 36, 86, 323, 500, 276, 263, 57, 31
493876369, -2422, 10710, 4526, 11286, 3890, -252, -2589, -10, -32, -8, 36, 86, 323, 500, 276, 263, 57, 31
493884376, -2422, 10710, 4526, 11286, 3890, -252, -2589, -10, -32, -8, 36, 93, 373, 611, 277, 259, 55, 32
493885172, -2422, 10710, 4526, 11286, 3890, -252, -2589, -10, -32, -8, 36, 93, 373, 611, 277, 259, 55, 32
493898720, -2427, 10710, 4532, 11282, 3891, -203, -2612, 48, -13, -4, 36, 93, 373, 611, 277, 259, 55, 32
493906907, -2427, 10710, 4532, 11282, 3891, -203, -2612, 48, -13, -4, 46, 83, 302, 610, 334, 246, 51, 34
493907692, -2427, 10710, 4532, 11282, 3891, -203, -2612, 48, -13, -4, 46, 83, 302, 610, 334, 246, 51, 34
493921215, -2427, 10710, 4532, 11282, 3898, -198, -2605, 0, -2, 5, 46, 83, 302, 610, 334, 246, 51, 34
