Timestamp, Orientation x, Orientation y, Orientation z, Orientation w, Acceleration x, Acceleration y, Acceleration z, Rotation x, Rotation y, Rotation z, EMG 0, EMG 1, EMG 2, EMG 3, EMG 4, EMG 5, EMG 6, EMG 7
642979561, -4955, 10126, 11769, 1681, 2297, -1013, -3490, -14, 49, 2, 0, 0, 0, 0, 0, 0, 0, 0
642980408, -4949, 10130, 11768, 1681, 2309, -988, -3482, -26, 38, -3, 0, 0, 0, 0, 0, 0, 0, 0
642993862, -4943, 10135, 11767, 1677, 2299, -1018, -3472, -31, 25, 1, 0, 0, 0, 0, 0, 0, 0, 0
643016412, -4937, 10140, 11766, 1671, 2296, -1007, -3487, -9, 19, 8, 0, 0, 0, 0, 0, 0, 0, 0
643038842, -4928, 10147, 11764, 1667, 2304, -988, -3500, -29, 10, 14, 0, 0, 0, 0, 0, 0, 0, 0
643047013, -4928, 10147, 11764, 1667, 2304, -988, -3500, -29, 10, 14, 83, 181, 109, 669, 796, 204, 91, 86
643047805, -4928, 10147, 11764, 1667, 2304, -988, -3500, -29, 10, 14, 83, 181, 109, 669, 796, 204, 91, 86
643053944, -4922, 10153, 11762, 1661, 2303, -1024, -3479, -24, 14, 14, 83, 181, 109, 669, 796, 204, 91, 86
643061953, -4922, 10153, 11762, 1661, 2303, -1024, -3479, -24, 14, 14, 84, 163, 111, 652, 835, 214, 95, 77
643062740, -4922, 10153, 11762, 1661, 2303, -1024, -3479, -24, 14, 14, 84, 163, 111, 652, 835, 214, 95, 77
643076404, -4920, 10158, 11759, 1656, 2321, -1007, -3469, -8, 17, 15, 84, 163, 111, 652, 835, 214, 95, 77
643084521, -4920, 10158, 11759, 1656, 2321, -1007, -3469, -8, 17, 15, 97, 269, 105, 684, 839, 223, 101, 83
643085380, -4920, 10158, 11759, 1656, 2321, -1007, -3469, -8, 17, 15, 97, 269, 105, 684, 839, 223, 101, 83
643098851, -4913, 10162, 11759, 1654, 2314, -1001, -3468, -30, 5, 2, 97, 269, 105, 684, 839, 223, 101, 83
643106967, -4913, 10162, 11759, 1654, 2314, -1001, -3468, -30, 5, 2, 100, 301, 94, 721, 902, 241, 104, 84
643107806, -4913, 10162, 11759, 1654, 2314, -1001, -3468, -30, 5, 2, 100, 301, 94, 721, 902, 241, 104, 84
643113972, -4912, 10163, 11759, 1652, 2304, -1019, -3462, -16, -2, -1, 100, 301, 94, 721, 902, 241, 104, 84
643121997, -4912, 10163, 11759, 1652, 2304, -1019, -3462, -16, -2, -1, 110, 317, 85, 709, 983, 230, 100, 88
643122821, -4912, 10163, 11759, 1652, 2304, -1019, -3462, -16, -2, -1, 110, 317, 85, 709, 983, 230, 100, 88
643136373, -4911, 10164, 11759, 1650, 2293, -1015, -3489, -2, -13, 1, 110, 317, 85, 709, 983, 230, 100, 88
643144468, -4911, 10164, 11759, 1650, 2293, -1015, -3489, -2, -13, 1, 108, 341, 89, 719, 933, 184, 89, 81
643145402, -4911, 10164, 11759, 1650, 2293, -1015, -3489, -2, -13, 1, 108, 341, 89, 719, 933, 184, 89, 81
643158786, -4905, 10166, 11761, 1640, 2317, -1029, -3470, -5, -24, -9, 108, 341, 89, 719, 933, 184, 89, 81
643166984, -4905, 10166, 11761, 1640, 2317, -1029, -3470, -5, -24, -9, 125, 362, 89, 778, 926, 182, 87, 91
643167767, -4905, 10166, 11761, 1640, 2317, -1029, -3470, -5, -24, -9, 125, 362, 89, 778, 926, 182, 87, 91
643173947, -4902, 10164, 11765, 1629, 2309, -1014, -3467, 28, -17, -25, 125, 362, 89, 778, 926, 182, 87, 91
643189441, -4902, 10164, 11765, 1629, 2309, -1014, -3467, 28, -17, -25, 130, 305, 88, 753, 909, 198, 99, 101
643190277, -4902, 10164, 11765, 1629, 2309, -1014, -3467, 28, -17, -25, 130, 305, 88, 753, 909, 198, 99, 101
643196433, -4900, 10162, 11770, 1617, 2300, -1016, -3469, 36, -18, -29, 130, 305, 88, 753, 909, 198, 99, 101
643204466, -4900, 10162, 11770, 1617, 2300, -1016, -3469, 36, -18, -29, 143, 301, 107, 738, 861, 183, 96, 104
643205298, -4900, 10162, 11770, 1617, 2300, -1016, -3469, 36, -18, -29, 143, 301, 107, 738, 861, 183, 96, 104
643218844, -4899, 10158, 11775, 1606, 2271, -1021, -3452, 34, -5, -37, 143, 301, 107, 738, 861, 183, 96, 104
643226939, -4899, 10158, 11775, 1606, 2271, -1021, -3452, 34, -5, -37, 129, 280, 128, 837, 865, 203, 103, 104
643227766, -4899, 10158, 11775, 1606, 2271, -1021, -3452, 34, -5, -37, 129, 280, 128, 837, 865, 203, 103, 104
643233940, -4895, 10155, 11780, 1598, 2272, -1034, -3418, 1, -18, -44, 129, 280, 128, 837, 865, 203, 103, 104
643241969, -4895, 10155, 11780, 1598, 2272, -1034, -3418, 1, -18, -44, 133, 246, 157, 916, 860, 195, 101, 109
643242795, -4895, 10155, 11780, 1598, 2272, -1034, -3418, 1, -18, -44, 133, 246, 157, 916, 860, 195, 101, 109
643256293, -4896, 10147, 11788, 1594, 2201, -1069, -3400, -7, 40, -102, 133, 246, 157, 916, 860, 195, 101, 109
643264484, -4896, 10147, 11788, 1594, 2201, -1069, -3400, -7, 40, -102, 156, 349, 185, 946, 846, 189, 103, 113
643265298, -4896, 10147, 11788, 1594, 2201, -1069, -3400, -7, 40, -102, 156, 349, 185, 946, 846, 189, 103, 113
643278875, -4910, 10126, 11798, 1608, 2105, -1043, -3307, -12, 178, -185, 156, 349, 185, 946, 846, 189, 103, 113
643286964, -4910, 10126, 11798, 1608, 2105, -1043, -3307, -12, 178, -185, 383, 669, 414, 1038, 862, 197, 109, 144
643287796, -4910, 10126, 11798, 1608, 2105, -1043, -3307, -12, 178, -185, 383, 669, 414, 1038, 862, 197, 109, 144
643302660, -4964, 10080, 11808, 1651, 2009, -1052, -3276, 49, 509, -337, 383, 669, 414, 1038, 862, 197, 109, 144
643303468, -4964, 10080, 11808, 1651, 2009, -1052, -3276, 49, 509, -337, 462, 916, 637, 1080, 819, 261, 173, 173
643304310, -4964, 10080, 11808, 1651, 2009, -1052, -3276, 49, 509, -337, 462, 916, 637, 1080, 819, 261, 173, 173
643316382, -5052, 10019, 11811, 1734, 2164, -1018, -3336, 39, 790, -405, 462, 916, 637, 1080, 819, 261, 173, 173
643324417, -5052, 10019, 11811, 1734, 2164, -1018, -3336, 39, 790, -405, 600, 1033, 829, 1083, 717, 270, 177, 213
643325285, -5052, 10019, 11811, 1734, 2164, -1018, -3336, 39, 790, -405, 600, 1033, 829, 1083, 717, 270, 177, 213
643338822, -5198, 9923, 11814, 1833, 2338, -1044, -3328, 229, 1071, -535, 600, 1033, 829, 1083, 717, 270, 177, 213
643346963, -5198, 9923, 11814, 1833, 2338, -1044, -3328, 229, 1071, -535, 689, 1204, 907, 1023, 734, 294, 193, 261
643347808, -5198, 9923, 11814, 1833, 2338, -1044, -3328, 229, 1071, -535, 689, 1204, 907, 1023, 734, 294, 193, 261
643364009, -5327, 9790, 11840, 2003, 2633, -725, -3321, 95, 1160, -787, 689, 1204, 907, 1023, 734, 294, 193, 261
643364822, -4922, 10153, 11762, 1661, 2303, -1024, -3479, -24, 14, 14, 689, 1204, 907, 1023, 734, 294, 193, 261
643365644, -4922, 10153, 11762, 1661, 2303, -1024, -3479, -24, 14, 14, 84, 163, 111, 652, 835, 214, 95, 77
643366483, -4922, 10153, 11762, 1661, 2303, -1024, -3479, -24, 14, 14, 84, 163, 111, 652, 835, 214, 95, 77
643371590, -4920, 10158, 11759, 1656, 2321, -1007, -3469, -8, 17, 15, 84, 163, 111, 652, 835, 214, 95, 77
643372395, -4920, 10158, 11759, 1656, 2321, -1007, -3469, -8, 17, 15, 97, 269, 105, 684, 839, 223, 101, 83
643373180, -4920, 10158, 11759, 1656, 2321, -1007, -3469, -8, 17, 15, 97, 269, 105, 684, 839, 223, 101, 83
643373993, -4920, 10158, 11759, 1656, 2321, -1007, -3469, -8, 17, 15, 97, 269, 105, 684, 839, 223, 101, 83
643378916, -4920, 10158, 11759, 1656, 2321, -1007, -3469, -8, 17, 15, 97, 269, 105, 684, 839, 223, 101, 83
643379756, -4920, 10158, 11759, 1656, 2321, -1007, -3469, -8, 17, 15, 97, 269, 105, 684, 839, 223, 101, 83
643380564, -4920, 10158, 11759, 1656, 2321, -1007, -3469, -8, 17, 15, 97, 269, 105, 684, 839, 223, 101, 83
643381394, -4920, 10158, 11759, 1656, 2321, -1007, -3469, -8, 17, 15, 97, 269, 105, 684, 839, 223, 101, 83
643386466, -4920, 10158, 11759, 1656, 2321, -1007, -3469, -8, 17, 15, 97, 269, 105, 684, 839, 223, 101, 83
643387458, -4913, 10162, 11759, 1654, 2314, -1001, -3468, -30, 5, 2, 97, 269, 105, 684, 839, 223, 101, 83
643388222, -4913, 10162, 11759, 1654, 2314, -1001, -3468, -30, 5, 2, 100, 301, 94, 721, 902, 241, 104, 84
643389062, -4913, 10162, 11759, 1654, 2314, -1001, -3468, -30, 5, 2, 100, 301, 94, 721, 902, 241, 104, 84
643394041, -4913, 10162, 11759, 1654, 2314, -1001, -3468, -30, 5, 2, 100, 301, 94, 721, 902, 241, 104, 84
643394874, -4913, 10162, 11759, 1654, 2314, -1001, -3468, -30, 5, 2, 100, 301, 94, 721, 902, 241, 104, 84
643395702, -4913, 10162, 11759, 1654, 2314, -1001, -3468, -30, 5, 2, 100, 301, 94, 721, 902, 241, 104, 84
643396491, -4913, 10162, 11759, 1654, 2314, -1001, -3468, -30, 5, 2, 100, 301, 94, 721, 902, 241, 104, 84
643401444, -4913, 10162, 11759, 1654, 2314, -1001, -3468, -30, 5, 2, 100, 301, 94, 721, 902, 241, 104, 84
643402269, -4913, 10162, 11759, 1654, 2314, -1001, -3468, -30, 5, 2, 100, 301, 94, 721, 902, 241, 104, 84
643403095, -4913, 10162, 11759, 1654, 2314, -1001, -3468, -30, 5, 2, 100, 301, 94, 721, 902, 241, 104, 84
643403891, -4913, 10162, 11759, 1654, 2314, -1001, -3468, -30, 5, 2, 100, 301, 94, 721, 902, 241, 104, 84
643408992, -4913, 10162, 11759, 1654, 2314, -1001, -3468, -30, 5, 2, 100, 301, 94, 721, 902, 241, 104, 84
643409894, -4912, 10163, 11759, 1652, 2304, -1019, -3462, -16, -2, -1, 100, 301, 94, 721, 902, 241, 104, 84
643410756, -4912, 10163, 11759, 1652, 2304, -1019, -3462, -16, -2, -1, 110, 317, 85, 709, 983, 230, 100, 88
643411516, -4912, 10163, 11759, 1652, 2304, -1019, -3462, -16, -2, -1, 110, 317, 85, 709, 983, 230, 100, 88
643416532, -4912, 10163, 11759, 1652, 2304, -1019, -3462, -16, -2, -1, 110, 317, 85, 709, 983, 230, 100, 88
643417357, -4912, 10163, 11759, 1652, 2304, -1019, -3462, -16, -2, -1, 110, 317, 85, 709, 983, 230, 100, 88
643418125, -4912, 10163, 11759, 1652, 2304, -1019, -3462, -16, -2, -1, 110, 317, 85, 709, 983, 230, 100, 88
643418940, -4912, 10163, 11759, 1652, 2304, -1019, -3462, -16, -2, -1, 110, 317, 85, 709, 983, 230, 100, 88
643423918, -4912, 10163, 11759, 1652, 2304, -1019, -3462, -16, -2, -1, 110, 317, 85, 709, 983, 230, 100, 88
643424767, -4912, 10163, 11759, 1652, 2304, -1019, -3462, -16, -2, -1, 110, 317, 85, 709, 983, 230, 100, 88
643425541, -4912, 10163, 11759, 1652, 2304, -1019, -3462, -16, -2, -1, 110, 317, 85, 709, 983, 230, 100, 88
643426407, -4912, 10163, 11759, 1652, 2304, -1019, -3462, -16, -2, -1, 110, 317, 85, 709, 983, 230, 100, 88
643431444, -4912, 10163, 11759, 1652, 2304, -1019, -3462, -16, -2, -1, 110, 317, 85, 709, 983, 230, 100, 88
643432393, -4911, 10164, 11759, 1650, 2293, -1015, -3489, -2, -13, 1, 110, 317, 85, 709, 983, 230, 100, 88
643433237, -4911, 10164, 11759, 1650, 2293, -1015, -3489, -2, -13, 1, 108, 341, 89, 719, 933, 184, 89, 81
643433991, -4911, 10164, 11759, 1650, 2293, -1015, -3489, -2, -13, 1, 108, 341, 89, 719, 933, 184, 89, 81
643439044, -4911, 10164, 11759, 1650, 2293, -1015, -3489, -2, -13, 1, 108, 341, 89, 719, 933, 184, 89, 81
643439818, -4911, 10164, 11759, 1650, 2293, -1015, -3489, -2, -13, 1, 108, 341, 89, 719, 933, 184, 89, 81
643440668, -4911, 10164, 11759, 1650, 2293, -1015, -3489, -2, -13, 1, 108, 341, 89, 719, 933, 184, 89, 81
643441440, -4911, 10164, 11759, 1650, 2293, -1015, -3489, -2, -13, 1, 108, 341, 89, 719, 933, 184, 89, 81
643446411, -4911, 10164, 11759, 1650, 2293, -1015, -3489, -2, -13, 1, 108, 341, 89, 719, 933, 184, 89, 81
643447221, -4911, 10164, 11759, 1650, 2293, -1015, -3489, -2, -13, 1, 108, 341, 89, 719, 933, 184, 89, 81
643448023, -4911, 10164, 11759, 1650, 2293, -1015, -3489, -2, -13, 1, 108, 341, 89, 719, 933, 184, 89, 81
643448851, -4911, 10164, 11759, 1650, 2293, -1015, -3489, -2, -13, 1, 108, 341, 89, 719, 933, 184, 89, 81
643453979, -4911, 10164, 11759, 1650, 2293, -1015, -3489, -2, -13, 1, 108, 341, 89, 719, 933, 184, 89, 81
643454919, -4905, 10166, 11761, 1640, 2317, -1029, -3470, -5, -24, -9, 108, 341, 89, 719, 933, 184, 89, 81
643455756, -4905, 10166, 11761, 1640, 2317, -1029, -3470, -5, -24, -9, 125, 362, 89, 778, 926, 182, 87, 91
643456541, -4905, 10166, 11761, 1640, 2317, -1029, -3470, -5, -24, -9, 125, 362, 89, 778, 926, 182, 87, 91
643461559, -4905, 10166, 11761, 1640, 2317, -1029, -3470, -5, -24, -9, 125, 362, 89, 778, 926, 182, 87, 91
643462350, -4905, 10166, 11761, 1640, 2317, -1029, -3470, -5, -24, -9, 125, 362, 89, 778, 926, 182, 87, 91
643463144, -4905, 10166, 11761, 1640, 2317, -1029, -3470, -5, -24, -9, 125, 362, 89, 778, 926, 182, 87, 91
643463966, -4905, 10166, 11761, 1640, 2317, -1029, -3470, -5, -24, -9, 125, 362, 89, 778, 926, 182, 87, 91
643467615, -4905, 10166, 11761, 1640, 2317, -1029, -3470, -5, -24, -9, 125, 362, 89, 778, 926, 182, 87, 91
643468449, -4905, 10166, 11761, 1640, 2317, -1029, -3470, -5, -24, -9, 125, 362, 89, 778, 926, 182, 87, 91
643469244, -4905, 10166, 11761, 1640, 2317, -1029, -3470, -5, -24, -9, 125, 362, 89, 778, 926, 182, 87, 91
643481400, -5628, 9652, 11722, 2485, 2904, -801, -3487, 18, 206, 146, 125, 362, 89, 778, 926, 182, 87, 91
643489417, -5628, 9652, 11722, 2485, 2904, -801, -3487, 18, 206, 146, 602, 961, 380, 459, 662, 504, 317, 237
643490248, -5628, 9652, 11722, 2485, 2904, -801, -3487, 18, 206, 146, 602, 961, 380, 459, 662, 504, 317, 237
643496445, -5587, 9726, 11683, 2474, 2750, -782, -3533, -208, 17, 408, 602, 961, 380, 459, 662, 504, 317, 237
643504425, -5587, 9726, 11683, 2474, 2750, -782, -3533, -208, 17, 408, 574, 938, 347, 330, 695, 575, 400, 246
643505268, -5587, 9726, 11683, 2474, 2750, -782, -3533, -208, 17, 408, 574, 938, 347, 330, 695, 575, 400, 246
643518834, -5508, 9853, 11615, 2469, 2827, -795, -3519, -493, -162, 683, 574, 938, 347, 330, 695, 575, 400, 246
643526916, -5508, 9853, 11615, 2469, 2827, -795, -3519, -493, -162, 683, 533, 855, 327, 344, 864, 733, 468, 239
643527742, -5508, 9853, 11615, 2469, 2827, -795, -3519, -493, -162, 683, 533, 855, 327, 344, 864, 733, 468, 239
643541293, -5384, 10029, 11526, 2448, 2812, -820, -3591, -692, -410, 935, 533, 855, 327, 344, 864, 733, 468, 239
643549457, -5384, 10029, 11526, 2448, 2812, -820, -3591, -692, -410, 935, 417, 802, 280, 359, 890, 763, 458, 211
643550245, -5384, 10029, 11526, 2448, 2812, -820, -3591, -692, -410, 935, 417, 802, 280, 359, 890, 763, 458, 211
643556424, -5211, 10255, 11422, 2371, 2685, -973, -3746, -797, -770, 1197, 417, 802, 280, 359, 890, 763, 458, 211
643564416, -5211, 10255, 11422, 2371, 2685, -973, -3746, -797, -770, 1197, 392, 781, 259, 390, 948, 783, 454, 216
643565224, -5211, 10255, 11422, 2371, 2685, -973, -3746, -797, -770, 1197, 392, 781, 259, 390, 948, 783, 454, 216
643578887, -5008, 10504, 11323, 2192, 2422, -1058, -3840, -553, -1218, 1400, 392, 781, 259, 390, 948, 783, 454, 216
643586968, -5008, 10504, 11323, 2192, 2422, -1058, -3840, -553, -1218, 1400, 364, 746, 222, 414, 981, 809, 430, 214
643587766, -5008, 10504, 11323, 2192, 2422, -1058, -3840, -553, -1218, 1400, 364, 746, 222, 414, 981, 809, 430, 214
643601296, -4786, 10774, 11209, 1947, 2176, -1025, -3977, -391, -1681, 1695, 364, 746, 222, 414, 981, 809, 430, 214
643609453, -4786, 10774, 11209, 1947, 2176, -1025, -3977, -391, -1681, 1695, 394, 769, 232, 431, 930, 782, 387, 205
643610277, -4786, 10774, 11209, 1947, 2176, -1025, -3977, -391, -1681, 1695, 394, 769, 232, 431, 930, 782, 387, 205
643616424, -4484, 11086, 11078, 1641, 1822, -1043, -4067, -530, -2202, 1961, 394, 769, 232, 431, 930, 782, 387, 205
643624459, -4484, 11086, 11078, 1641, 1822, -1043, -4067, -530, -2202, 1961, 370, 851, 248, 385, 848, 657, 301, 192
643625268, -4484, 11086, 11078, 1641, 1822, -1043, -4067, -530, -2202, 1961, 370, 851, 248, 385, 848, 657, 301, 192
643638793, -4115, 11423, 10926, 1274, 1599, -1164, -4080, -609, -2688, 2187, 370, 851, 248, 385, 848, 657, 301, 192
643646968, -4115, 11423, 10926, 1274, 1599, -1164, -4080, -609, -2688, 2187, 380, 838, 250, 425, 909, 637, 305, 205
643647788, -4115, 11423, 10926, 1274, 1599, -1164, -4080, -609, -2688, 2187, 380, 838, 250, 425, 909, 637, 305, 205
643661287, -3686, 11760, 10764, 828, 1152, -1298, -4059, -573, -3199, 2305, 380, 838, 250, 425, 909, 637, 305, 205
643677662, -3686, 11760, 10764, 828, 1152, -1298, -4059, -573, -3199, 2305, 446, 873, 247, 424, 936, 619, 325, 249
643678441, -3686, 11760, 10764, 828, 1152, -1298, -4059, -573, -3199, 2305, 446, 873, 247, 424, 936, 619, 325, 249
643679435, -3245, 12076, 10581, 301, 953, -1399, -3898, -313, -3570, 2420, 446, 873, 247, 424, 936, 619, 325, 249
643686517, -3245, 12076, 10581, 301, 953, -1399, -3898, -313, -3570, 2420, 439, 874, 248, 425, 1006, 508, 318, 259
643687395, -3245, 12076, 10581, 301, 953, -1399, -3898, -313, -3570, 2420, 439, 874, 248, 425, 1006, 508, 318, 259
643688145, -3245, 12076, 10581, 301, 953, -1399, -3898, -313, -3570, 2420, 439, 874, 248, 425, 1006, 508, 318, 259
643689006, -3245, 12076, 10581, 301, 953, -1399, -3898, -313, -3570, 2420, 439, 874, 248, 425, 1006, 508, 318, 259
643693266, -3245, 12076, 10581, 301, 953, -1399, -3898, -313, -3570, 2420, 439, 874, 248, 425, 1006, 508, 318, 259
643694093, -3245, 12076, 10581, 301, 953, -1399, -3898, -313, -3570, 2420, 439, 874, 248, 425, 1006, 508, 318, 259
643694892, -3245, 12076, 10581, 301, 953, -1399, -3898, -313, -3570, 2420, 439, 874, 248, 425, 1006, 508, 318, 259
643695708, -3245, 12076, 10581, 301, 953, -1399, -3898, -313, -3570, 2420, 439, 874, 248, 425, 1006, 508, 318, 259
643698917, -2834, 12363, 10367, -273, 930, -1314, -3739, 14, -3675, 2511, 439, 874, 248, 425, 1006, 508, 318, 259
643706987, -2834, 12363, 10367, -273, 930, -1314, -3739, 14, -3675, 2511, 380, 882, 260, 431, 1046, 493, 299, 266
643707766, -2834, 12363, 10367, -273, 930, -1314, -3739, 14, -3675, 2511, 380, 882, 260, 431, 1046, 493, 299, 266
643721321, -2433, 12610, 10135, -875, 746, -1191, -3609, 214, -3763, 2492, 380, 882, 260, 431, 1046, 493, 299, 266
643729468, -2433, 12610, 10135, -875, 746, -1191, -3609, 214, -3763, 2492, 374, 806, 271, 460, 1047, 443, 328, 267
643730291, -2433, 12610, 10135, -875, 746, -1191, -3609, 214, -3763, 2492, 374, 806, 271, 460, 1047, 443, 328, 267
643736448, -2032, 12803, 9908, -1487, 754, -1172, -3602, 294, -3877, 2303, 374, 806, 271, 460, 1047, 443, 328, 267
643744512, -2032, 12803, 9908, -1487, 754, -1172, -3602, 294, -3877, 2303, 405, 828, 275, 467, 1140, 419, 320, 264
643745293, -2032, 12803, 9908, -1487, 754, -1172, -3602, 294, -3877, 2303, 405, 828, 275, 467, 1140, 419, 320, 264
643767664, -1633, 12958, 9666, -2100, 717, -1043, -3405, 358, -3920, 2253, 405, 828, 275, 467, 1140, 419, 320, 264
643768452, -1633, 12958, 9666, -2100, 717, -1043, -3405, 358, -3920, 2253, 417, 839, 279, 575, 1260, 454, 405, 334
643769246, -1633, 12958, 9666, -2100, 717, -1043, -3405, 358, -3920, 2253, 417, 839, 279, 575, 1260, 454, 405, 334
643790118, -1258, 13055, 9442, -2696, 658, -978, -3288, 430, -3844, 1969, 417, 839, 279, 575, 1260, 454, 405, 334
643790983, -1258, 13055, 9442, -2696, 658, -978, -3288, 430, -3844, 1969, 511, 864, 277, 651, 1220, 450, 441, 340
643791742, -1258, 13055, 9442, -2696, 658, -978, -3288, 430, -3844, 1969, 511, 864, 277, 651, 1220, 450, 441, 340
643803821, -945, 13108, 9221, -3267, 535, -964, -3150, 643, -3594, 1746, 511, 864, 277, 651, 1220, 450, 441, 340
643811949, -945, 13108, 9221, -3267, 535, -964, -3150, 643, -3594, 1746, 551, 793, 258, 730, 1218, 427, 437, 347
643812774, -945, 13108, 9221, -3267, 535, -964, -3150, 643, -3594, 1746, 551, 793, 258, 730, 1218, 427, 437, 347
643826302, -646, 13134, 8997, -3813, 487, -721, -3072, 670, -3485, 1650, 551, 793, 258, 730, 1218, 427, 437, 347
643834468, -646, 13134, 8997, -3813, 487, -721, -3072, 670, -3485, 1650, 633, 799, 228, 783, 1183, 438, 419, 398
643835256, -646, 13134, 8997, -3813, 487, -721, -3072, 670, -3485, 1650, 633, 799, 228, 783, 1183, 438, 419, 398
643850171, -392, 13136, 8786, -4302, 603, -830, -2875, 666, -3150, 1461, 633, 799, 228, 783, 1183, 438, 419, 398
643850987, -392, 13136, 8786, -4302, 603, -830, -2875, 666, -3150, 1461, 644, 825, 241, 918, 1132, 386, 418, 399
643851794, -392, 13136, 8786, -4302, 603, -830, -2875, 666, -3150, 1461, 644, 825, 241, 918, 1132, 386, 418, 399
643856406, -165, 13112, 8591, -4760, 552, -730, -2855, 690, -2985, 1268, 644, 825, 241, 918, 1132, 386, 418, 399
643864463, -165, 13112, 8591, -4760, 552, -730, -2855, 690, -2985, 1268, 677, 730, 237, 1077, 1074, 343, 356, 356
643865237, -165, 13112, 8591, -4760, 552, -730, -2855, 690, -2985, 1268, 677, 730, 237, 1077, 1074, 343, 356, 356
643878786, 20, 13064, 8435, -5158, 756, -587, -2769, 651, -2664, 949, 677, 730, 237, 1077, 1074, 343, 356, 356
643886938, 20, 13064, 8435, -5158, 756, -587, -2769, 651, -2664, 949, 621, 721, 249, 1086, 1143, 378, 309, 366
643887764, 20, 13064, 8435, -5158, 756, -587, -2769, 651, -2664, 949, 621, 721, 249, 1086, 1143, 378, 309, 366
643901368, 166, 12999, 8329, -5481, 773, -621, -2816, 522, -2267, 622, 621, 721, 249, 1086, 1143, 378, 309, 366
643909445, 166, 12999, 8329, -5481, 773, -621, -2816, 522, -2267, 622, 583, 776, 246, 1072, 1223, 381, 296, 349
643910254, 166, 12999, 8329, -5481, 773, -621, -2816, 522, -2267, 622, 583, 776, 246, 1072, 1223, 381, 296, 349
643916386, 284, 12921, 8269, -5745, 872, -431, -2615, 408, -1948, 324, 583, 776, 246, 1072, 1223, 381, 296, 349
643924414, 284, 12921, 8269, -5745, 872, -431, -2615, 408, -1948, 324, 518, 837, 270, 1095, 1285, 363, 289, 312
643925219, 284, 12921, 8269, -5745, 872, -431, -2615, 408, -1948, 324, 518, 837, 270, 1095, 1285, 363, 289, 312
643938821, 281, 12873, 8294, -5817, 957, -486, -2475, 409, -1573, 65, 518, 837, 270, 1095, 1285, 363, 289, 312
643954380, 281, 12873, 8294, -5817, 957, -486, -2475, 409, -1573, 65, 529, 834, 267, 1003, 1248, 346, 285, 308
643955217, 281, 12873, 8294, -5817, 957, -486, -2475, 409, -1573, 65, 529, 834, 267, 1003, 1248, 346, 285, 308
643961352, 258, 12825, 8348, -5847, 894, -363, -2457, 371, -1292, -145, 529, 834, 267, 1003, 1248, 346, 285, 308
643969416, 258, 12825, 8348, -5847, 894, -363, -2457, 371, -1292, -145, 575, 942, 322, 771, 1180, 321, 218, 270
643970231, 258, 12825, 8348, -5847, 894, -363, -2457, 371, -1292, -145, 575, 942, 322, 771, 1180, 321, 218, 270
643976390, 219, 12776, 8432, -5836, 836, -380, -2432, 268, -1032, -310, 575, 942, 322, 771, 1180, 321, 218, 270
643991924, 219, 12776, 8432, -5836, 836, -380, -2432, 268, -1032, -310, 597, 864, 312, 700, 1097, 268, 196, 251
643992715, 219, 12776, 8432, -5836, 836, -380, -2432, 268, -1032, -310, 597, 864, 312, 700, 1097, 268, 196, 251
643998893, 172, 12739, 8524, -5784, 742, -302, -2428, 205, -754, -359, 597, 864, 312, 700, 1097, 268, 196, 251
644014450, 172, 12739, 8524, -5784, 742, -302, -2428, 205, -754, -359, 657, 841, 294, 690, 1008, 269, 205, 251
644015299, 172, 12739, 8524, -5784, 742, -302, -2428, 205, -754, -359, 657, 841, 294, 690, 1008, 269, 205, 251
644021439, 127, 12717, 8613, -5700, 636, -286, -2384, 109, -524, -326, 657, 841, 294, 690, 1008, 269, 205, 251
644029419, 127, 12717, 8613, -5700, 636, -286, -2384, 109, -524, -326, 693, 769, 271, 574, 972, 284, 211, 243
644030219, 127, 12717, 8613, -5700, 636, -286, -2384, 109, -524, -326, 693, 769, 271, 574, 972, 284, 211, 243
644036392, 80, 12715, 8683, -5598, 522, -307, -2341, 93, -323, -207, 693, 769, 271, 574, 972, 284, 211, 243
644051943, 80, 12715, 8683, -5598, 522, -307, -2341, 93, -323, -207, 690, 721, 276, 522, 925, 295, 242, 254
644052792, 80, 12715, 8683, -5598, 522, -307, -2341, 93, -323, -207, 690, 721, 276, 522, 925, 295, 242, 254
644058922, 38, 12727, 8734, -5493, 414, -319, -2340, 90, -249, -93, 690, 721, 276, 522, 925, 295, 242, 254
644074461, 38, 12727, 8734, -5493, 414, -319, -2340, 90, -249, -93, 583, 576, 220, 548, 957, 282, 243, 237
644075267, 38, 12727, 8734, -5493, 414, -319, -2340, 90, -249, -93, 583, 576, 220, 548, 957, 282, 243, 237
644081442, -1, 12748, 8770, -5385, 387, -360, -2296, 66, -184, 10, 583, 576, 220, 548, 957, 282, 243, 237
644089392, -1, 12748, 8770, -5385, 387, -360, -2296, 66, -184, 10, 541, 586, 214, 524, 948, 281, 240, 220
644090221, -1, 12748, 8770, -5385, 387, -360, -2296, 66, -184, 10, 541, 586, 214, 524, 948, 281, 240, 220
644096418, -38, 12781, 8789, -5275, 318, -397, -2255, 57, -107, 117, 541, 586, 214, 524, 948, 281, 240, 220
644111954, -38, 12781, 8789, -5275, 318, -397, -2255, 57, -107, 117, 525, 615, 246, 547, 985, 273, 237, 233
644112766, -38, 12781, 8789, -5275, 318, -397, -2255, 57, -107, 117, 525, 615, 246, 547, 985, 273, 237, 233
644118949, -73, 12819, 8800, -5163, 317, -431, -2204, 24, -64, 175, 525, 615, 246, 547, 985, 273, 237, 233
644135101, -73, 12819, 8800, -5163, 317, -431, -2204, 24, -64, 175, 507, 595, 249, 553, 945, 253, 233, 210
644135917, -73, 12819, 8800, -5163, 317, -431, -2204, 24, -64, 175, 507, 595, 249, 553, 945, 253, 233, 210
644136884, -115, 12858, 8809, -5048, 295, -499, -2221, 18, -17, 190, 507, 595, 249, 553, 945, 253, 233, 210
644149438, -115, 12858, 8809, -5048, 295, -499, -2221, 18, -17, 190, 483, 591, 268, 562, 955, 216, 189, 195
644150257, -115, 12858, 8809, -5048, 295, -499, -2221, 18, -17, 190, 483, 591, 268, 562, 955, 216, 189, 195
644156406, -151, 12894, 8821, -4933, 286, -503, -2172, -30, -3, 168, 483, 591, 268, 562, 955, 216, 189, 195
644171931, -151, 12894, 8821, -4933, 286, -503, -2172, -30, -3, 168, 486, 669, 243, 508, 879, 204, 181, 203
644172718, -151, 12894, 8821, -4933, 286, -503, -2172, -30, -3, 168, 486, 669, 243, 508, 879, 204, 181, 203
644178895, -193, 12928, 8836, -4815, 266, -554, -2143, -55, 49, 147, 486, 669, 243, 508, 879, 204, 181, 203
644195115, -193, 12928, 8836, -4815, 266, -554, -2143, -55, 49, 147, 504, 725, 242, 522, 942, 196, 177, 223
644195968, -193, 12928, 8836, -4815, 266, -554, -2143, -55, 49, 147, 504, 725, 242, 522, 942, 196, 177, 223
644196908, -237, 12955, 8859, -4696, 227, -563, -2168, -66, 76, 78, 504, 725, 242, 522, 942, 196, 177, 223
644209419, -237, 12955, 8859, -4696, 227, -563, -2168, -66, 76, 78, 443, 743, 236, 466, 919, 192, 165, 192
644210219, -237, 12955, 8859, -4696, 227, -563, -2168, -66, 76, 78, 443, 743, 236, 466, 919, 192, 165, 192
644216409, -288, 12976, 8886, -4583, 168, -585, -2172, -33, 99, 15, 443, 743, 236, 466, 919, 192, 165, 192
644231941, -288, 12976, 8886, -4583, 168, -585, -2172, -33, 99, 15, 394, 748, 227, 484, 926, 197, 153, 198
644232807, -288, 12976, 8886, -4583, 168, -585, -2172, -33, 99, 15, 394, 748, 227, 484, 926, 197, 153, 198
644238920, -332, 12994, 8914, -4473, 119, -530, -2193, -35, 96, -5, 394, 748, 227, 484, 926, 197, 153, 198
644255117, -332, 12994, 8914, -4473, 119, -530, -2193, -35, 96, -5, 427, 734, 206, 482, 990, 220, 187, 217
644255917, -332, 12994, 8914, -4473, 119, -530, -2193, -35, 96, -5, 427, 734, 206, 482, 990, 220, 187, 217
644256853, -374, 13010, 8942, -4366, 121, -554, -2159, -58, 91, -12, 427, 734, 206, 482, 990, 220, 187, 217
644269448, -374, 13010, 8942, -4366, 121, -554, -2159, -58, 91, -12, 429, 664, 215, 518, 1036, 208, 161, 221
644270266, -374, 13010, 8942, -4366, 121, -554, -2159, -58, 91, -12, 429, 664, 215, 518, 1036, 208, 161, 221
644276405, -417, 13027, 8963, -4266, 101, -542, -2159, -24, 92, 16, 429, 664, 215, 518, 1036, 208, 161, 221
644291926, -417, 13027, 8963, -4266, 101, -542, -2159, -24, 92, 16, 392, 584, 221, 543, 1022, 204, 152, 207
644292716, -417, 13027, 8963, -4266, 101, -542, -2159, -24, 92, 16, 392, 584, 221, 543, 1022, 204, 152, 207
644298881, -451, 13042, 8984, -4172, 98, -516, -2170, -27, 43, 13, 392, 584, 221, 543, 1022, 204, 152, 207
644314391, -451, 13042, 8984, -4172, 98, -516, -2170, -27, 43, 13, 400, 582, 220, 541, 1005, 223, 159, 230
644315245, -451, 13042, 8984, -4172, 98, -516, -2170, -27, 43, 13, 400, 582, 220, 541, 1005, 223, 159, 230
644328794, -482, 13053, 9006, -4086, 108, -525, -2172, -28, 2, 6, 400, 582, 220, 541, 1005, 223, 159, 230
644336875, -482, 13053, 9006, -4086, 108, -525, -2172, -28, 2, 6, 427, 578, 236, 543, 1008, 229, 164, 226
644337704, -482, 13053, 9006, -4086, 108, -525, -2172, -28, 2, 6, 427, 578, 236, 543, 1008, 229, 164, 226
644351297, -513, 13062, 9028, -4002, 118, -522, -2175, -21, -2, -8, 427, 578, 236, 543, 1008, 229, 164, 226
644359399, -513, 13062, 9028, -4002, 118, -522, -2175, -21, -2, -8, 403, 637, 215, 506, 915, 212, 130, 218
644360194, -513, 13062, 9028, -4002, 118, -522, -2175, -21, -2, -8, 403, 637, 215, 506, 915, 212, 130, 218
644373772, -540, 13069, 9053, -3920, 129, -484, -2175, -28, -20, -25, 403, 637, 215, 506, 915, 212, 130, 218
644381939, -540, 13069, 9053, -3920, 129, -484, -2175, -28, -20, -25, 383, 611, 223, 475, 895, 213, 129, 193
644382742, -540, 13069, 9053, -3920, 129, -484, -2175, -28, -20, -25, 383, 611, 223, 475, 895, 213, 129, 193
644404495, -565, 13076, 9075, -3840, 118, -514, -2192, -35, -25, -14, 383, 611, 223, 475, 895, 213, 129, 193
644405275, -589, 13082, 9096, -3767, 124, -505, -2183, -21, -54, -5, 383, 611, 223, 475, 895, 213, 129, 193
644411944, -589, 13082, 9096, -3767, 124, -505, -2183, -21, -54, -5, 431, 664, 244, 444, 880, 233, 142, 182
644412752, -589, 13082, 9096, -3767, 124, -505, -2183, -21, -54, -5, 431, 664, 244, 444, 880, 233, 142, 182
644426321, -611, 13089, 9115, -3696, 140, -512, -2199, -27, -63, 8, 431, 664, 244, 444, 880, 233, 142, 182
644434416, -611, 13089, 9115, -3696, 140, -512, -2199, -27, -63, 8, 426, 618, 222, 401, 874, 217, 141, 154
644435258, -611, 13089, 9115, -3696, 140, -512, -2199, -27, -63, 8, 426, 618, 222, 401, 874, 217, 141, 154
644448796, -631, 13096, 9131, -3623, 160, -499, -2200, -33, -62, 22, 426, 618, 222, 401, 874, 217, 141, 154
644456917, -631, 13096, 9131, -3623, 160, -499, -2200, -33, -62, 22, 402, 617, 204, 397, 838, 203, 140, 157
644457715, -631, 13096, 9131, -3623, 160, -499, -2200, -33, -62, 22, 402, 617, 204, 397, 838, 203, 140, 157
644471311, -657, 13106, 9144, -3550, 181, -505, -2187, -10, -34, 37, 402, 617, 204, 397, 838, 203, 140, 157
644480109, -685, 13117, 9155, -3475, 189, -480, -2198, 1, -17, 48, 402, 617, 204, 397, 838, 203, 140, 157
644480918, -685, 13117, 9155, -3475, 189, -480, -2198, 1, -17, 48, 387, 571, 239, 409, 904, 194, 133, 132
644481742, -685, 13117, 9155, -3475, 189, -480, -2198, 1, -17, 48, 387, 571, 239, 409, 904, 194, 133, 132
644501270, -714, 13130, 9163, -3398, 202, -488, -2203, -4, 4, 58, 387, 571, 239, 409, 904, 194, 133, 132
