Timestamp, Orientation x, Orientation y, Orientation z, Orientation w, Acceleration x, Acceleration y, Acceleration z, Rotation x, Rotation y, Rotation z, EMG 0, EMG 1, EMG 2, EMG 3, EMG 4, EMG 5, EMG 6, EMG 7
570374398, -3068, 14046, 7447, 2498, 1789, -791, -3646, 4, 1, -9, 0, 0, 0, 0, 0, 0, 0, 0
570375198, -3068, 14046, 7447, 2498, 1779, -785, -3652, 1, -3, -3, 0, 0, 0, 0, 0, 0, 0, 0
570388749, -3069, 14047, 7447, 2497, 1775, -774, -3659, -9, -13, 4, 0, 0, 0, 0, 0, 0, 0, 0
570411194, -3065, 14048, 7446, 2494, 1780, -773, -3662, -20, -19, 5, 0, 0, 0, 0, 0, 0, 0, 0
570426222, -3066, 14048, 7446, 2494, 1786, -781, -3655, -9, -14, -4, 0, 0, 0, 0, 0, 0, 0, 0
570441855, -3066, 14048, 7446, 2494, 1786, -781, -3655, -9, -14, -4, 82, 159, 62, 196, 329, 172, 74, 59
570442681, -3066, 14048, 7446, 2494, 1786, -781, -3655, -9, -14, -4, 82, 159, 62, 196, 329, 172, 74, 59
570448805, -3066, 14048, 7445, 2494, 1772, -787, -3658, -4, -13, 6, 82, 159, 62, 196, 329, 172, 74, 59
570464377, -3066, 14048, 7445, 2494, 1772, -787, -3658, -4, -13, 6, 72, 130, 58, 188, 421, 177, 70, 54
570465154, -3066, 14048, 7445, 2494, 1772, -787, -3658, -4, -13, 6, 72, 130, 58, 188, 421, 177, 70, 54
570471312, -3067, 14049, 7445, 2493, 1762, -774, -3654, -14, -14, 10, 72, 130, 58, 188, 421, 177, 70, 54
570487564, -3067, 14049, 7445, 2493, 1762, -774, -3654, -14, -14, 10, 68, 125, 59, 197, 454, 137, 68, 51
570488367, -3067, 14049, 7445, 2493, 1762, -774, -3654, -14, -14, 10, 68, 125, 59, 197, 454, 137, 68, 51
570489395, -3064, 14052, 7443, 2487, 1740, -792, -3672, -19, -11, 11, 68, 125, 59, 197, 454, 137, 68, 51
570501816, -3064, 14052, 7443, 2487, 1740, -792, -3672, -19, -11, 11, 68, 128, 77, 316, 458, 138, 67, 51
570502644, -3064, 14052, 7443, 2487, 1740, -792, -3672, -19, -11, 11, 68, 128, 77, 316, 458, 138, 67, 51
570508768, -3039, 14060, 7441, 2476, 1645, -772, -3706, -107, -53, 2, 68, 128, 77, 316, 458, 138, 67, 51
570524387, -3039, 14060, 7441, 2476, 1645, -772, -3706, -107, -53, 2, 69, 134, 128, 441, 599, 131, 61, 44
570525169, -3039, 14060, 7441, 2476, 1645, -772, -3706, -107, -53, 2, 69, 134, 128, 441, 599, 131, 61, 44
570531377, -2989, 14077, 7439, 2444, 1502, -784, -3783, -192, -146, 6, 69, 134, 128, 441, 599, 131, 61, 44
570547545, -2989, 14077, 7439, 2444, 1502, -784, -3783, -192, -146, 6, 69, 154, 174, 696, 774, 234, 86, 59
570548367, -2989, 14077, 7439, 2444, 1502, -784, -3783, -192, -146, 6, 69, 154, 174, 696, 774, 234, 86, 59
570549298, -2934, 14102, 7434, 2383, 1333, -846, -3855, -185, -223, 38, 69, 154, 174, 696, 774, 234, 86, 59
570561838, -2934, 14102, 7434, 2383, 1333, -846, -3855, -185, -223, 38, 129, 302, 250, 766, 939, 251, 101, 89
570562662, -2934, 14102, 7434, 2383, 1333, -846, -3855, -185, -223, 38, 129, 302, 250, 766, 939, 251, 101, 89
570576315, -2879, 14133, 7420, 2310, 1246, -815, -3841, -154, -263, 113, 129, 302, 250, 766, 939, 251, 101, 89
570584397, -2879, 14133, 7420, 2310, 1246, -815, -3841, -154, -263, 113, 192, 450, 417, 880, 1126, 260, 107, 102
570585205, -2879, 14133, 7420, 2310, 1246, -815, -3841, -154, -263, 113, 192, 450, 417, 880, 1126, 260, 107, 102
570591382, -2808, 14171, 7388, 2263, 1295, -713, -3776, -283, -230, 207, 192, 450, 417, 880, 1126, 260, 107, 102
570607518, -2808, 14171, 7388, 2263, 1295, -713, -3776, -283, -230, 207, 230, 602, 473, 956, 1212, 284, 117, 122
570608379, -2808, 14171, 7388, 2263, 1295, -713, -3776, -283, -230, 207, 230, 602, 473, 956, 1212, 284, 117, 122
570609288, -2797, 14217, 7304, 2266, 1528, -826, -3661, -236, 67, 477, 230, 602, 473, 956, 1212, 284, 117, 122
570621839, -2797, 14217, 7304, 2266, 1528, -826, -3661, -236, 67, 477, 297, 712, 519, 1010, 1220, 313, 133, 141
570622674, -2797, 14217, 7304, 2266, 1528, -826, -3661, -236, 67, 477, 297, 712, 519, 1010, 1220, 313, 133, 141
570628795, -2846, 14271, 7163, 2313, 1592, -861, -3494, -122, 415, 780, 297, 712, 519, 1010, 1220, 313, 133, 141
570644373, -2846, 14271, 7163, 2313, 1592, -861, -3494, -122, 415, 780, 363, 879, 599, 981, 1227, 307, 131, 153
570645167, -2846, 14271, 7163, 2313, 1592, -861, -3494, -122, 415, 780, 363, 879, 599, 981, 1227, 307, 131, 153
570651345, -2903, 14302, 7046, 2406, 1712, -682, -3585, -49, 645, 621, 363, 879, 599, 981, 1227, 307, 131, 153
570667544, -2903, 14302, 7046, 2406, 1712, -682, -3585, -49, 645, 621, 485, 1002, 639, 1053, 1112, 312, 128, 164
570668367, -2903, 14302, 7046, 2406, 1712, -682, -3585, -49, 645, 621, 485, 1002, 639, 1053, 1112, 312, 128, 164
570669295, -2925, 14305, 6976, 2564, 1844, -456, -3760, -182, 870, 285, 485, 1002, 639, 1053, 1112, 312, 128, 164
570681793, -2925, 14305, 6976, 2564, 1844, -456, -3760, -182, 870, 285, 553, 1016, 698, 1097, 1004, 364, 150, 186
570682615, -2925, 14305, 6976, 2564, 1844, -456, -3760, -182, 870, 285, 553, 1016, 698, 1097, 1004, 364, 150, 186
570688815, -2953, 14304, 6893, 2754, 1870, -534, -3733, -287, 1091, 285, 553, 1016, 698, 1097, 1004, 364, 150, 186
570704364, -2953, 14304, 6893, 2754, 1870, -534, -3733, -287, 1091, 285, 602, 1008, 722, 1090, 952, 378, 159, 199
570705199, -2953, 14304, 6893, 2754, 1870, -534, -3733, -287, 1091, 285, 602, 1008, 722, 1090, 952, 378, 159, 199
570711390, -3013, 14298, 6793, 2960, 1916, -608, -3778, -214, 1314, 348, 602, 1008, 722, 1090, 952, 378, 159, 199
570727503, -3013, 14298, 6793, 2960, 1916, -608, -3778, -214, 1314, 348, 617, 1035, 777, 1064, 1033, 382, 155, 202
570728366, -3013, 14298, 6793, 2960, 1916, -608, -3778, -214, 1314, 348, 617, 1035, 777, 1064, 1033, 382, 155, 202
570729272, -3086, 14278, 6696, 3192, 2023, -543, -3737, -162, 1490, 301, 617, 1035, 777, 1064, 1033, 382, 155, 202
570741843, -3086, 14278, 6696, 3192, 2023, -543, -3737, -162, 1490, 301, 658, 979, 800, 1030, 1099, 366, 169, 234
570742654, -3086, 14278, 6696, 3192, 2023, -543, -3737, -162, 1490, 301, 658, 979, 800, 1030, 1099, 366, 169, 234
570748794, -3158, 14243, 6604, 3459, 2113, -460, -3678, -293, 1616, 178, 658, 979, 800, 1030, 1099, 366, 169, 234
570764377, -3158, 14243, 6604, 3459, 2113, -460, -3678, -293, 1616, 178, 635, 987, 815, 1024, 1221, 405, 191, 255
570765149, -3158, 14243, 6604, 3459, 2113, -460, -3678, -293, 1616, 178, 635, 987, 815, 1024, 1221, 405, 191, 255
570771319, -3164, 14216, 6501, 3748, 2061, -502, -3820, -694, 1622, 143, 635, 987, 815, 1024, 1221, 405, 191, 255
570787539, -3164, 14216, 6501, 3748, 2061, -502, -3820, -694, 1622, 143, 609, 975, 789, 946, 1279, 370, 183, 248
570788395, -3164, 14216, 6501, 3748, 2061, -502, -3820, -694, 1622, 143, 609, 975, 789, 946, 1279, 370, 183, 248
570789295, -3147, 14187, 6392, 4046, 2197, -730, -3806, -861, 1622, 100, 609, 975, 789, 946, 1279, 370, 183, 248
570801819, -3147, 14187, 6392, 4046, 2197, -730, -3806, -861, 1622, 100, 678, 1064, 824, 923, 1318, 372, 183, 276
570802616, -3147, 14187, 6392, 4046, 2197, -730, -3806, -861, 1622, 100, 678, 1064, 824, 923, 1318, 372, 183, 276
570808796, -3150, 14154, 6314, 4277, 2235, -756, -3695, -626, 1509, -31, 678, 1064, 824, 923, 1318, 372, 183, 276
570824383, -3150, 14154, 6314, 4277, 2235, -756, -3695, -626, 1509, -31, 704, 1078, 820, 947, 1241, 377, 189, 281
570825166, -3150, 14154, 6314, 4277, 2235, -756, -3695, -626, 1509, -31, 704, 1078, 820, 947, 1241, 377, 189, 281
570831384, -3171, 14109, 6268, 4474, 2407, -503, -3634, -308, 1327, -61, 704, 1078, 820, 947, 1241, 377, 189, 281
570847499, -3171, 14109, 6268, 4474, 2407, -503, -3634, -308, 1327, -61, 706, 1143, 856, 1057, 1235, 380, 175, 266
570848350, -3171, 14109, 6268, 4474, 2407, -503, -3634, -308, 1327, -61, 706, 1143, 856, 1057, 1235, 380, 175, 266
570849223, -3184, 14073, 6234, 4622, 2490, -497, -3600, -238, 1039, -64, 706, 1143, 856, 1057, 1235, 380, 175, 266
570861845, -3184, 14073, 6234, 4622, 2490, -497, -3600, -238, 1039, -64, 690, 1113, 924, 995, 1200, 337, 146, 240
570862644, -3184, 14073, 6234, 4622, 2490, -497, -3600, -238, 1039, -64, 690, 1113, 924, 995, 1200, 337, 146, 240
570868818, -3162, 14063, 6197, 4717, 2508, -493, -3645, -337, 708, -3, 690, 1113, 924, 995, 1200, 337, 146, 240
570884379, -3162, 14063, 6197, 4717, 2508, -493, -3645, -337, 708, -3, 699, 1115, 897, 1093, 1151, 346, 142, 237
570885144, -3162, 14063, 6197, 4717, 2508, -493, -3645, -337, 708, -3, 699, 1115, 897, 1093, 1151, 346, 142, 237
570891305, -3110, 14077, 6163, 4754, 2455, -626, -3745, -436, 388, -8, 699, 1115, 897, 1093, 1151, 346, 142, 237
570907541, -3110, 14077, 6163, 4754, 2455, -626, -3745, -436, 388, -8, 605, 1097, 956, 1147, 1124, 330, 135, 190
570908406, -3110, 14077, 6163, 4754, 2455, -626, -3745, -436, 388, -8, 605, 1097, 956, 1147, 1124, 330, 135, 190
570909373, -3083, 14096, 6153, 4728, 2357, -758, -3776, -211, 144, -60, 605, 1097, 956, 1147, 1124, 330, 135, 190
570921790, -3083, 14096, 6153, 4728, 2357, -758, -3776, -211, 144, -60, 630, 1049, 987, 1123, 1153, 318, 135, 194
570922643, -3083, 14096, 6153, 4728, 2357, -758, -3776, -211, 144, -60, 630, 1049, 987, 1123, 1153, 318, 135, 194
570928788, -3081, 14104, 6184, 4665, 2285, -556, -3766, 154, 2, -130, 630, 1049, 987, 1123, 1153, 318, 135, 194
570944289, -3081, 14104, 6184, 4665, 2285, -556, -3766, 154, 2, -130, 585, 936, 979, 1037, 1087, 322, 138, 184
570945157, -3081, 14104, 6184, 4665, 2285, -556, -3766, 154, 2, -130, 585, 936, 979, 1037, 1087, 322, 138, 184
570951396, -3053, 14114, 6222, 4603, 2260, -409, -3763, 97, -75, -148, 585, 936, 979, 1037, 1087, 322, 138, 184
570967499, -3053, 14114, 6222, 4603, 2260, -409, -3763, 97, -75, -148, 578, 955, 885, 1077, 1095, 331, 142, 175
570968366, -3053, 14114, 6222, 4603, 2260, -409, -3763, 97, -75, -148, 578, 955, 885, 1077, 1095, 331, 142, 175
570969275, -3017, 14131, 6242, 4544, 2285, -515, -3712, -38, -112, -96, 578, 955, 885, 1077, 1095, 331, 142, 175
570981857, -3017, 14131, 6242, 4544, 2285, -515, -3712, -38, -112, -96, 548, 997, 905, 967, 1078, 317, 138, 169
570982640, -3017, 14131, 6242, 4544, 2285, -515, -3712, -38, -112, -96, 548, 997, 905, 967, 1078, 317, 138, 169
570988821, -2988, 14149, 6259, 4483, 2256, -493, -3722, 0, -115, -66, 548, 997, 905, 967, 1078, 317, 138, 169
571004379, -2988, 14149, 6259, 4483, 2256, -493, -3722, 0, -115, -66, 536, 972, 855, 1005, 1090, 300, 128, 163
571005138, -2988, 14149, 6259, 4483, 2256, -493, -3722, 0, -115, -66, 536, 972, 855, 1005, 1090, 300, 128, 163
571011320, -2956, 14174, 6267, 4417, 2239, -561, -3737, -55, -158, -22, 536, 972, 855, 1005, 1090, 300, 128, 163
571027579, -2956, 14174, 6267, 4417, 2239, -561, -3737, -55, -158, -22, 431, 953, 809, 985, 1196, 288, 114, 133
571028381, -2956, 14174, 6267, 4417, 2239, -561, -3737, -55, -158, -22, 431, 953, 809, 985, 1196, 288, 114, 133
571029395, -2931, 14196, 6271, 4354, 2269, -557, -3773, -23, -138, -1, 431, 953, 809, 985, 1196, 288, 114, 133
571041815, -2931, 14196, 6271, 4354, 2269, -557, -3773, -23, -138, -1, 434, 1029, 790, 966, 1142, 258, 96, 114
571042638, -2931, 14196, 6271, 4354, 2269, -557, -3773, -23, -138, -1, 434, 1029, 790, 966, 1142, 258, 96, 114
571048775, -2909, 14215, 6275, 4302, 2273, -521, -3805, -15, -91, 8, 434, 1029, 790, 966, 1142, 258, 96, 114
571064302, -2909, 14215, 6275, 4302, 2273, -521, -3805, -15, -91, 8, 391, 921, 807, 966, 1024, 249, 103, 129
571065116, -2909, 14215, 6275, 4302, 2273, -521, -3805, -15, -91, 8, 391, 921, 807, 966, 1024, 249, 103, 129
571071309, -2886, 14233, 6272, 4262, 2287, -561, -3747, -75, -56, 6, 391, 921, 807, 966, 1024, 249, 103, 129
571087523, -2886, 14233, 6272, 4262, 2287, -561, -3747, -75, -56, 6, 385, 899, 787, 1019, 1015, 256, 107, 130
571088372, -2886, 14233, 6272, 4262, 2287, -561, -3747, -75, -56, 6, 385, 899, 787, 1019, 1015, 256, 107, 130
571089270, -2871, 14247, 6274, 4222, 2287, -557, -3762, -25, -54, -8, 385, 899, 787, 1019, 1015, 256, 107, 130
571101168, -2871, 14247, 6274, 4222, 2287, -557, -3762, -25, -54, -8, 394, 861, 842, 942, 940, 271, 110, 134
571109442, -2871, 14247, 6274, 4222, 2287, -557, -3762, -25, -54, -8, 394, 861, 842, 942, 940, 271, 110, 134
571110302, -2865, 14259, 6278, 4180, 2298, -574, -3793, 24, -53, -6, 394, 861, 842, 942, 940, 271, 110, 134
571124366, -2865, 14259, 6278, 4180, 2298, -574, -3793, 24, -53, -6, 406, 926, 898, 966, 780, 269, 106, 128
571125185, -2865, 14259, 6278, 4180, 2298, -574, -3793, 24, -53, -6, 406, 926, 898, 966, 780, 269, 106, 128
571131307, -2859, 14268, 6285, 4143, 2292, -522, -3802, 49, -26, -16, 406, 926, 898, 966, 780, 269, 106, 128
571147564, -2859, 14268, 6285, 4143, 2292, -522, -3802, 49, -26, -16, 430, 854, 865, 979, 932, 305, 124, 147
571148366, -2859, 14268, 6285, 4143, 2292, -522, -3802, 49, -26, -16, 430, 854, 865, 979, 932, 305, 124, 147
571149409, -2857, 14273, 6295, 4111, 2304, -528, -3765, 60, -22, -33, 430, 854, 865, 979, 932, 305, 124, 147
571170007, -2857, 14273, 6295, 4111, 2304, -528, -3765, 60, -22, -33, 437, 883, 900, 952, 988, 349, 131, 150
571170843, -2857, 14273, 6295, 4111, 2304, -528, -3765, 60, -22, -33, 437, 883, 900, 952, 988, 349, 131, 150
571171769, -2848, 14281, 6303, 4079, 2261, -475, -3795, 49, -21, -16, 437, 883, 900, 952, 988, 349, 131, 150
571184396, -2848, 14281, 6303, 4079, 2261, -475, -3795, 49, -21, -16, 422, 888, 877, 919, 1001, 362, 130, 147
571185166, -2848, 14281, 6303, 4079, 2261, -475, -3795, 49, -21, -16, 422, 888, 877, 919, 1001, 362, 130, 147
571191334, -2845, 14283, 6304, 4072, 2252, -512, -3819, 10, -1, -15, 422, 888, 877, 919, 1001, 362, 130, 147
571207491, -2845, 14283, 6304, 4072, 2252, -512, -3819, 10, -1, -15, 409, 864, 830, 942, 1069, 364, 131, 147
571208392, -2845, 14283, 6304, 4072, 2252, -512, -3819, 10, -1, -15, 409, 864, 830, 942, 1069, 364, 131, 147
571209246, -2840, 14289, 6310, 4046, 2240, -517, -3824, 40, 35, -22, 409, 864, 830, 942, 1069, 364, 131, 147
571230027, -2840, 14289, 6310, 4046, 2240, -517, -3824, 40, 35, -22, 393, 869, 753, 1000, 1058, 379, 137, 154
571230826, -2840, 14289, 6310, 4046, 2240, -517, -3824, 40, 35, -22, 393, 869, 753, 1000, 1058, 379, 137, 154
571231763, -2832, 14294, 6314, 4027, 2251, -489, -3801, 12, 42, -15, 393, 869, 753, 1000, 1058, 379, 137, 154
571244290, -2832, 14294, 6314, 4027, 2251, -489, -3801, 12, 42, -15, 344, 901, 884, 993, 994, 354, 132, 146
571245102, -2832, 14294, 6314, 4027, 2251, -489, -3801, 12, 42, -15, 344, 901, 884, 993, 994, 354, 132, 146
571251243, -2825, 14300, 6318, 4004, 2260, -528, -3805, 17, 15, -16, 344, 901, 884, 993, 994, 354, 132, 146
571267525, -2825, 14300, 6318, 4004, 2260, -528, -3805, 17, 15, -16, 320, 869, 907, 1021, 999, 311, 114, 126
571268370, -2825, 14300, 6318, 4004, 2260, -528, -3805, 17, 15, -16, 320, 869, 907, 1021, 999, 311, 114, 126
571269235, -2816, 14306, 6323, 3980, 2242, -495, -3833, 22, 13, -18, 320, 869, 907, 1021, 999, 311, 114, 126
571290063, -2816, 14306, 6323, 3980, 2242, -495, -3833, 22, 13, -18, 306, 795, 898, 1009, 975, 291, 106, 122
571290842, -2816, 14306, 6323, 3980, 2242, -495, -3833, 22, 13, -18, 306, 795, 898, 1009, 975, 291, 106, 122
571291798, -2813, 14308, 6324, 3974, 2257, -476, -3823, -7, 11, -13, 306, 795, 898, 1009, 975, 291, 106, 122
571304292, -2813, 14308, 6324, 3974, 2257, -476, -3823, -7, 11, -13, 340, 813, 810, 953, 956, 273, 100, 114
571305138, -2813, 14308, 6324, 3974, 2257, -476, -3823, -7, 11, -13, 340, 813, 810, 953, 956, 273, 100, 114
571311286, -2799, 14315, 6324, 3957, 2262, -515, -3807, -38, 9, -5, 340, 813, 810, 953, 956, 273, 100, 114
571327549, -2799, 14315, 6324, 3957, 2262, -515, -3807, -38, 9, -5, 344, 743, 809, 901, 1047, 240, 86, 104
571328371, -2799, 14315, 6324, 3957, 2262, -515, -3807, -38, 9, -5, 344, 743, 809, 901, 1047, 240, 86, 104
571329257, -2786, 14322, 6327, 3937, 2246, -509, -3808, -21, -1, -13, 344, 743, 809, 901, 1047, 240, 86, 104
571349966, -2786, 14322, 6327, 3937, 2246, -509, -3808, -21, -1, -13, 338, 693, 628, 924, 987, 224, 73, 93
571350875, -2786, 14322, 6327, 3937, 2246, -509, -3808, -21, -1, -13, 338, 693, 628, 924, 987, 224, 73, 93
571351728, -2779, 14328, 6332, 3911, 2263, -520, -3809, 23, -30, -17, 338, 693, 628, 924, 987, 224, 73, 93
