Timestamp, Orientation x, Orientation y, Orientation z, Orientation w, Acceleration x, Acceleration y, Acceleration z, Rotation x, Rotation y, Rotation z, EMG 0, EMG 1, EMG 2, EMG 3, EMG 4, EMG 5, EMG 6, EMG 7
272986764, 6865, 1918, -14713, -1082, 3948, -132, -1313, 428, 263, 313, 0, 0, 0, 0, 0, 0, 0, 0
272994215, 7037, 1851, -14653, -894, 3931, -152, -1294, 461, 275, 302, 0, 0, 0, 0, 0, 0, 0, 0
273001718, 7203, 1796, -14589, -708, 3929, -147, -1275, 499, 290, 284, 0, 0, 0, 0, 0, 0, 0, 0
273016740, 7366, 1739, -14522, -535, 3930, -140, -1227, 453, 305, 301, 0, 0, 0, 0, 0, 0, 0, 0
273039333, 7521, 1676, -14454, -382, 3927, -162, -1192, 353, 285, 311, 0, 0, 0, 0, 0, 0, 0, 0
273054848, 7521, 1676, -14454, -382, 3927, -162, -1192, 353, 285, 311, 61, 197, 66, 165, 62, 29, 25, 22
273055662, 7521, 1676, -14454, -382, 3927, -162, -1192, 353, 285, 311, 61, 197, 66, 165, 62, 29, 25, 22
273061813, 7674, 1600, -14385, -242, 3912, -223, -1128, 256, 288, 353, 61, 197, 66, 165, 62, 29, 25, 22
273078079, 7674, 1600, -14385, -242, 3912, -223, -1128, 256, 288, 353, 69, 244, 71, 198, 70, 35, 32, 25
273078875, 7674, 1600, -14385, -242, 3912, -223, -1128, 256, 288, 353, 69, 244, 71, 198, 70, 35, 32, 25
273079813, 7832, 1514, -14311, -86, 4005, -343, -1045, 286, 318, 418, 69, 244, 71, 198, 70, 35, 32, 25
273100558, 7832, 1514, -14311, -86, 4005, -343, -1045, 286, 318, 418, 61, 225, 70, 202, 72, 40, 39, 27
273101320, 7832, 1514, -14311, -86, 4005, -343, -1045, 286, 318, 418, 61, 225, 70, 202, 72, 40, 39, 27
273102294, 7986, 1428, -14234, 84, 4036, -385, -1083, 362, 365, 481, 61, 225, 70, 202, 72, 40, 39, 27
273114855, 7986, 1428, -14234, 84, 4036, -385, -1083, 362, 365, 481, 60, 311, 129, 199, 89, 44, 40, 27
273115670, 7986, 1428, -14234, 84, 4036, -385, -1083, 362, 365, 481, 60, 311, 129, 199, 89, 44, 40, 27
273121834, 8152, 1341, -14146, 272, 4017, -417, -1020, 453, 498, 563, 60, 311, 129, 199, 89, 44, 40, 27
273138047, 8152, 1341, -14146, 272, 4017, -417, -1020, 453, 498, 563, 63, 382, 401, 242, 97, 58, 42, 33
273138868, 8152, 1341, -14146, 272, 4017, -417, -1020, 453, 498, 563, 63, 382, 401, 242, 97, 58, 42, 33
273139793, 8330, 1255, -14044, 486, 3933, -418, -877, 594, 616, 681, 63, 382, 401, 242, 97, 58, 42, 33
273160546, 8330, 1255, -14044, 486, 3933, -418, -877, 594, 616, 681, 79, 401, 525, 211, 91, 59, 46, 37
273161347, 8330, 1255, -14044, 486, 3933, -418, -877, 594, 616, 681, 79, 401, 525, 211, 91, 59, 46, 37
273162293, 8504, 1148, -13939, 721, 3884, -531, -849, 639, 675, 843, 79, 401, 525, 211, 91, 59, 46, 37
273174846, 8504, 1148, -13939, 721, 3884, -531, -849, 639, 675, 843, 77, 392, 625, 208, 100, 58, 45, 43
273175667, 8504, 1148, -13939, 721, 3884, -531, -849, 639, 675, 843, 77, 392, 625, 208, 100, 58, 45, 43
273181820, 8674, 1056, -13823, 1004, 3882, -648, -866, 899, 778, 917, 77, 392, 625, 208, 100, 58, 45, 43
273198000, 8674, 1056, -13823, 1004, 3882, -648, -866, 899, 778, 917, 83, 407, 707, 210, 95, 54, 38, 45
273198817, 8674, 1056, -13823, 1004, 3882, -648, -866, 899, 778, 917, 83, 407, 707, 210, 95, 54, 38, 45
273199750, 8861, 1019, -13679, 1325, 3851, -479, -796, 1313, 974, 904, 83, 407, 707, 210, 95, 54, 38, 45
273220525, 8861, 1019, -13679, 1325, 3851, -479, -796, 1313, 974, 904, 113, 408, 743, 218, 80, 54, 39, 70
273221355, 8861, 1019, -13679, 1325, 3851, -479, -796, 1313, 974, 904, 113, 408, 743, 218, 80, 54, 39, 70
273222293, 9056, 997, -13521, 1619, 3797, -314, -727, 1289, 1094, 884, 113, 408, 743, 218, 80, 54, 39, 70
273234796, 9056, 997, -13521, 1619, 3797, -314, -727, 1289, 1094, 884, 124, 384, 780, 253, 83, 47, 41, 76
273235617, 9056, 997, -13521, 1619, 3797, -314, -727, 1289, 1094, 884, 124, 384, 780, 253, 83, 47, 41, 76
273241822, 9275, 937, -13345, 1853, 3778, -269, -612, 914, 1276, 931, 124, 384, 780, 253, 83, 47, 41, 76
273258027, 9275, 937, -13345, 1853, 3778, -269, -612, 914, 1276, 931, 140, 413, 797, 323, 87, 51, 45, 81
273258827, 9275, 937, -13345, 1853, 3778, -269, -612, 914, 1276, 931, 140, 413, 797, 323, 87, 51, 45, 81
273259770, 9489, 832, -13170, 2061, 3762, -455, -566, 631, 1334, 1004, 140, 413, 797, 323, 87, 51, 45, 81
273280566, 9489, 832, -13170, 2061, 3762, -455, -566, 631, 1334, 1004, 148, 425, 832, 416, 96, 62, 45, 97
273281346, 9489, 832, -13170, 2061, 3762, -455, -566, 631, 1334, 1004, 148, 425, 832, 416, 96, 62, 45, 97
273282297, 9698, 725, -12984, 2298, 3772, -552, -539, 764, 1424, 1114, 148, 425, 832, 416, 96, 62, 45, 97
273294824, 9698, 725, -12984, 2298, 3772, -552, -539, 764, 1424, 1114, 182, 416, 822, 451, 109, 69, 47, 263
273295618, 9698, 725, -12984, 2298, 3772, -552, -539, 764, 1424, 1114, 182, 416, 822, 451, 109, 69, 47, 263
273301774, 9903, 640, -12785, 2551, 3678, -527, -509, 942, 1513, 1124, 182, 416, 822, 451, 109, 69, 47, 263
273318024, 9903, 640, -12785, 2551, 3678, -527, -509, 942, 1513, 1124, 177, 388, 836, 457, 115, 78, 46, 273
273318851, 9903, 640, -12785, 2551, 3678, -527, -509, 942, 1513, 1124, 177, 388, 836, 457, 115, 78, 46, 273
273319771, 10097, 572, -12582, 2802, 3577, -553, -454, 1004, 1523, 1074, 177, 388, 836, 457, 115, 78, 46, 273
273340497, 10097, 572, -12582, 2802, 3577, -553, -454, 1004, 1523, 1074, 178, 406, 849, 475, 108, 81, 50, 296
273341317, 10097, 572, -12582, 2802, 3577, -553, -454, 1004, 1523, 1074, 178, 406, 849, 475, 108, 81, 50, 296
273342293, 10286, 535, -12369, 3057, 3625, -527, -405, 1152, 1558, 1018, 178, 406, 849, 475, 108, 81, 50, 296
273354827, 10286, 535, -12369, 3057, 3625, -527, -405, 1152, 1558, 1018, 167, 379, 790, 447, 108, 83, 48, 309
273355649, 10286, 535, -12369, 3057, 3625, -527, -405, 1152, 1558, 1018, 167, 379, 790, 447, 108, 83, 48, 309
273361803, 10472, 488, -12141, 3336, 3638, -452, -347, 1224, 1680, 1018, 167, 379, 790, 447, 108, 83, 48, 309
273378063, 10472, 488, -12141, 3336, 3638, -452, -347, 1224, 1680, 1018, 216, 438, 783, 489, 109, 129, 61, 362
273378840, 10472, 488, -12141, 3336, 3638, -452, -347, 1224, 1680, 1018, 216, 438, 783, 489, 109, 129, 61, 362
273379790, 10656, 429, -11900, 3617, 3543, -415, -312, 1210, 1754, 1085, 216, 438, 783, 489, 109, 129, 61, 362
273400527, 10656, 429, -11900, 3617, 3543, -415, -312, 1210, 1754, 1085, 195, 431, 748, 495, 125, 166, 74, 273
273401322, 10656, 429, -11900, 3617, 3543, -415, -312, 1210, 1754, 1085, 195, 431, 748, 495, 125, 166, 74, 273
273402294, 10834, 358, -11654, 3887, 3412, -495, -249, 1128, 1773, 1095, 195, 431, 748, 495, 125, 166, 74, 273
273414849, 10834, 358, -11654, 3887, 3412, -495, -249, 1128, 1773, 1095, 195, 435, 838, 497, 142, 224, 84, 268
273415647, 10834, 358, -11654, 3887, 3412, -495, -249, 1128, 1773, 1095, 195, 435, 838, 497, 142, 224, 84, 268
273421796, 10999, 319, -11400, 4170, 3415, -486, -211, 1309, 1720, 1038, 195, 435, 838, 497, 142, 224, 84, 268
273438072, 11159, 303, -11133, 4458, 3341, -345, -173, 1436, 1740, 1001, 195, 435, 838, 497, 142, 224, 84, 268
273438878, 11159, 303, -11133, 4458, 3341, -345, -173, 1436, 1740, 1001, 210, 439, 764, 492, 159, 303, 122, 253
273439712, 11159, 303, -11133, 4458, 3341, -345, -173, 1436, 1740, 1001, 210, 439, 764, 492, 159, 303, 122, 253
273460553, 11312, 298, -10866, 4724, 3214, -329, -161, 1399, 1705, 886, 210, 439, 764, 492, 159, 303, 122, 253
273461347, 11312, 298, -10866, 4724, 3214, -329, -161, 1399, 1705, 886, 225, 453, 816, 519, 169, 376, 150, 281
273462145, 11312, 298, -10866, 4724, 3214, -329, -161, 1399, 1705, 886, 225, 453, 816, 519, 169, 376, 150, 281
273483013, 11451, 308, -10598, 4989, 3131, -389, -67, 1454, 1635, 848, 225, 453, 816, 519, 169, 376, 150, 281
273483828, 11451, 308, -10598, 4989, 3131, -389, -67, 1454, 1635, 848, 176, 372, 860, 491, 168, 379, 157, 215
273484624, 11451, 308, -10598, 4989, 3131, -389, -67, 1454, 1635, 848, 176, 372, 860, 491, 168, 379, 157, 215
273498053, 11582, 361, -10315, 5270, 3166, -239, -43, 1704, 1610, 785, 176, 372, 860, 491, 168, 379, 157, 215
273498869, 11582, 361, -10315, 5270, 3166, -239, -43, 1704, 1610, 785, 171, 379, 893, 545, 171, 392, 168, 212
273499666, 11582, 361, -10315, 5270, 3166, -239, -43, 1704, 1610, 785, 171, 379, 893, 545, 171, 392, 168, 212
273520526, 11701, 422, -10042, 5522, 2963, -125, -38, 1610, 1522, 670, 171, 379, 893, 545, 171, 392, 168, 212
273521352, 11701, 422, -10042, 5522, 2963, -125, -38, 1610, 1522, 670, 163, 340, 851, 621, 159, 424, 183, 202
273522149, 11701, 422, -10042, 5522, 2963, -125, -38, 1610, 1522, 670, 163, 340, 851, 621, 159, 424, 183, 202
273543052, 11786, 535, -9850, 5676, 3077, -179, -166, 1397, 1411, 589, 163, 340, 851, 621, 159, 424, 183, 202
273543868, 11786, 535, -9850, 5676, 3077, -179, -166, 1397, 1411, 589, 138, 272, 845, 636, 153, 381, 168, 198
273544666, 11786, 535, -9850, 5676, 3077, -179, -166, 1397, 1411, 589, 138, 272, 845, 636, 153, 381, 168, 198
273558059, 11871, 648, -9679, 5778, 3025, -63, -246, 1181, 1390, 416, 138, 272, 845, 636, 153, 381, 168, 198
273558849, 11871, 648, -9679, 5778, 3025, -63, -246, 1181, 1390, 416, 129, 223, 851, 639, 164, 391, 192, 205
273559668, 11871, 648, -9679, 5778, 3025, -63, -246, 1181, 1390, 416, 129, 223, 851, 639, 164, 391, 192, 205
273580583, 11952, 739, -9525, 5858, 2849, -73, -206, 975, 1328, 353, 129, 223, 851, 639, 164, 391, 192, 205
273581353, 11952, 739, -9525, 5858, 2849, -73, -206, 975, 1328, 353, 158, 278, 749, 623, 158, 447, 191, 194
273582196, 11952, 739, -9525, 5858, 2849, -73, -206, 975, 1328, 353, 158, 278, 749, 623, 158, 447, 191, 194
273602836, 12026, 826, -9398, 5899, 2914, -90, -309, 802, 1281, 208, 158, 278, 749, 623, 158, 447, 191, 194
273603633, 12026, 826, -9398, 5899, 2914, -90, -309, 802, 1281, 208, 164, 257, 720, 601, 139, 444, 186, 191
273609212, 12026, 826, -9398, 5899, 2914, -90, -309, 802, 1281, 208, 164, 257, 720, 601, 139, 444, 186, 191
273617934, 12098, 904, -9294, 5906, 2864, 88, -326, 583, 1215, 170, 164, 257, 720, 601, 139, 444, 186, 191
273626841, 12098, 904, -9294, 5906, 2864, 88, -326, 583, 1215, 170, 223, 262, 620, 535, 160, 406, 177, 195
273627649, 12098, 904, -9294, 5906, 2864, 88, -326, 583, 1215, 170, 223, 262, 620, 535, 160, 406, 177, 195
273628468, 12098, 904, -9294, 5906, 2864, 88, -326, 583, 1215, 170, 223, 262, 620, 535, 160, 406, 177, 195
273629296, 12098, 904, -9294, 5906, 2864, 88, -326, 583, 1215, 170, 223, 262, 620, 535, 160, 406, 177, 195
273633003, 12098, 904, -9294, 5906, 2864, 88, -326, 583, 1215, 170, 223, 262, 620, 535, 160, 406, 177, 195
273633829, 12098, 904, -9294, 5906, 2864, 88, -326, 583, 1215, 170, 223, 262, 620, 535, 160, 406, 177, 195
273634648, 12098, 904, -9294, 5906, 2864, 88, -326, 583, 1215, 170, 223, 262, 620, 535, 160, 406, 177, 195
273649485, 12165, 946, -9240, 5845, 2749, 110, -352, 115, 1043, -2, 223, 262, 620, 535, 160, 406, 177, 195
273650307, 12165, 946, -9240, 5845, 2749, 110, -352, 115, 1043, -2, 415, 261, 561, 483, 153, 433, 175, 192
273651072, 12165, 946, -9240, 5845, 2749, 110, -352, 115, 1043, -2, 415, 261, 561, 483, 153, 433, 175, 192
273651905, 12165, 946, -9240, 5845, 2749, 110, -352, 115, 1043, -2, 415, 261, 561, 483, 153, 433, 175, 192
273656782, 12165, 946, -9240, 5845, 2749, 110, -352, 115, 1043, -2, 415, 261, 561, 483, 153, 433, 175, 192
273657607, 12165, 946, -9240, 5845, 2749, 110, -352, 115, 1043, -2, 415, 261, 561, 483, 153, 433, 175, 192
273658409, 12165, 946, -9240, 5845, 2749, 110, -352, 115, 1043, -2, 415, 261, 561, 483, 153, 433, 175, 192
273659312, 12165, 946, -9240, 5845, 2749, 110, -352, 115, 1043, -2, 415, 261, 561, 483, 153, 433, 175, 192
273664390, 12165, 946, -9240, 5845, 2749, 110, -352, 115, 1043, -2, 415, 261, 561, 483, 153, 433, 175, 192
273665308, 12218, 972, -9244, 5722, 2924, 174, -420, -265, 843, -120, 415, 261, 561, 483, 153, 433, 175, 192
273666101, 12218, 972, -9244, 5722, 2924, 174, -420, -265, 843, -120, 478, 253, 446, 447, 131, 364, 146, 123
273666917, 12218, 972, -9244, 5722, 2924, 174, -420, -265, 843, -120, 478, 253, 446, 447, 131, 364, 146, 123
273671919, 12218, 972, -9244, 5722, 2924, 174, -420, -265, 843, -120, 478, 253, 446, 447, 131, 364, 146, 123
273672742, 12218, 972, -9244, 5722, 2924, 174, -420, -265, 843, -120, 478, 253, 446, 447, 131, 364, 146, 123
273673541, 12218, 972, -9244, 5722, 2924, 174, -420, -265, 843, -120, 478, 253, 446, 447, 131, 364, 146, 123
273674386, 12218, 972, -9244, 5722, 2924, 174, -420, -265, 843, -120, 478, 253, 446, 447, 131, 364, 146, 123
273679338, 12218, 972, -9244, 5722, 2924, 174, -420, -265, 843, -120, 478, 253, 446, 447, 131, 364, 146, 123
273680133, 12218, 972, -9244, 5722, 2924, 174, -420, -265, 843, -120, 478, 253, 446, 447, 131, 364, 146, 123
273680946, 12218, 972, -9244, 5722, 2924, 174, -420, -265, 843, -120, 478, 253, 446, 447, 131, 364, 146, 123
273681743, 12218, 972, -9244, 5722, 2924, 174, -420, -265, 843, -120, 478, 253, 446, 447, 131, 364, 146, 123
273694346, 12218, 972, -9244, 5722, 2924, 174, -420, -265, 843, -120, 478, 253, 446, 447, 131, 364, 146, 123
273695322, 12253, 915, -9315, 5539, 2959, -10, -567, -866, 712, -152, 478, 253, 446, 447, 131, 364, 146, 123
273696001, 12253, 915, -9315, 5539, 2959, -10, -567, -866, 712, -152, 728, 263, 427, 389, 139, 310, 189, 304
273696883, 12253, 915, -9315, 5539, 2959, -10, -567, -866, 712, -152, 728, 263, 427, 389, 139, 310, 189, 304
273701873, 12253, 915, -9315, 5539, 2959, -10, -567, -866, 712, -152, 728, 263, 427, 389, 139, 310, 189, 304
273702694, 12253, 915, -9315, 5539, 2959, -10, -567, -866, 712, -152, 728, 263, 427, 389, 139, 310, 189, 304
273703491, 12253, 915, -9315, 5539, 2959, -10, -567, -866, 712, -152, 728, 263, 427, 389, 139, 310, 189, 304
273704331, 12253, 915, -9315, 5539, 2959, -10, -567, -866, 712, -152, 728, 263, 427, 389, 139, 310, 189, 304
273709339, 12253, 915, -9315, 5539, 2959, -10, -567, -866, 712, -152, 728, 263, 427, 389, 139, 310, 189, 304
273710157, 12253, 915, -9315, 5539, 2959, -10, -567, -866, 712, -152, 728, 263, 427, 389, 139, 310, 189, 304
273710952, 12253, 915, -9315, 5539, 2959, -10, -567, -866, 712, -152, 728, 263, 427, 389, 139, 310, 189, 304
273711778, 12253, 915, -9315, 5539, 2959, -10, -567, -866, 712, -152, 728, 263, 427, 389, 139, 310, 189, 304
273716849, 12253, 915, -9315, 5539, 2959, -10, -567, -866, 712, -152, 728, 263, 427, 389, 139, 310, 189, 304
273717770, 12271, 834, -9419, 5332, 2899, -144, -585, -1071, 539, -217, 728, 263, 427, 389, 139, 310, 189, 304
273718591, 12271, 834, -9419, 5332, 2899, -144, -585, -1071, 539, -217, 906, 317, 413, 346, 158, 356, 208, 328
273719391, 12271, 834, -9419, 5332, 2899, -144, -585, -1071, 539, -217, 906, 317, 413, 346, 158, 356, 208, 328
273724397, 12271, 834, -9419, 5332, 2899, -144, -585, -1071, 539, -217, 906, 317, 413, 346, 158, 356, 208, 328
273725303, 12271, 834, -9419, 5332, 2899, -144, -585, -1071, 539, -217, 906, 317, 413, 346, 158, 356, 208, 328
273725985, 12271, 834, -9419, 5332, 2899, -144, -585, -1071, 539, -217, 906, 317, 413, 346, 158, 356, 208, 328
273726877, 12271, 834, -9419, 5332, 2899, -144, -585, -1071, 539, -217, 906, 317, 413, 346, 158, 356, 208, 328
273731831, 12271, 834, -9419, 5332, 2899, -144, -585, -1071, 539, -217, 906, 317, 413, 346, 158, 356, 208, 328
273732630, 12271, 834, -9419, 5332, 2899, -144, -585, -1071, 539, -217, 906, 317, 413, 346, 158, 356, 208, 328
273733417, 12271, 834, -9419, 5332, 2899, -144, -585, -1071, 539, -217, 906, 317, 413, 346, 158, 356, 208, 328
273734291, 12271, 834, -9419, 5332, 2899, -144, -585, -1071, 539, -217, 906, 317, 413, 346, 158, 356, 208, 328
273737747, 12271, 834, -9419, 5332, 2899, -144, -585, -1071, 539, -217, 906, 317, 413, 346, 158, 356, 208, 328
273738694, 12299, 803, -9493, 5137, 3136, 5, -396, -836, 546, -249, 906, 317, 413, 346, 158, 356, 208, 328
273746889, 12299, 803, -9493, 5137, 3136, 5, -396, -836, 546, -249, 949, 337, 535, 332, 141, 363, 257, 337
273747699, 12299, 803, -9493, 5137, 3136, 5, -396, -836, 546, -249, 949, 337, 535, 332, 141, 363, 257, 337
273748517, 12299, 803, -9493, 5137, 3136, 5, -396, -836, 546, -249, 949, 337, 535, 332, 141, 363, 257, 337
273749316, 12299, 803, -9493, 5137, 3136, 5, -396, -836, 546, -249, 949, 337, 535, 332, 141, 363, 257, 337
273754329, 12299, 803, -9493, 5137, 3136, 5, -396, -836, 546, -249, 949, 337, 535, 332, 141, 363, 257, 337
273755148, 12299, 803, -9493, 5137, 3136, 5, -396, -836, 546, -249, 949, 337, 535, 332, 141, 363, 257, 337
273755988, 12299, 803, -9493, 5137, 3136, 5, -396, -836, 546, -249, 949, 337, 535, 332, 141, 363, 257, 337
273756813, 12299, 803, -9493, 5137, 3136, 5, -396, -836, 546, -249, 949, 337, 535, 332, 141, 363, 257, 337
273762074, 12326, 749, -9572, 4931, 2945, 242, -451, -1009, 535, -140, 949, 337, 535, 332, 141, 363, 257, 337
273762847, 12326, 749, -9572, 4931, 2945, 242, -451, -1009, 535, -140, 968, 427, 607, 362, 164, 358, 298, 388
273763696, 12326, 749, -9572, 4931, 2945, 242, -451, -1009, 535, -140, 968, 427, 607, 362, 164, 358, 298, 388
273764460, 12326, 749, -9572, 4931, 2945, 242, -451, -1009, 535, -140, 968, 427, 607, 362, 164, 358, 298, 388
273769354, 12326, 749, -9572, 4931, 2945, 242, -451, -1009, 535, -140, 968, 427, 607, 362, 164, 358, 298, 388
273770133, 12326, 749, -9572, 4931, 2945, 242, -451, -1009, 535, -140, 968, 427, 607, 362, 164, 358, 298, 388
273770928, 12326, 749, -9572, 4931, 2945, 242, -451, -1009, 535, -140, 968, 427, 607, 362, 164, 358, 298, 388
273771773, 12326, 749, -9572, 4931, 2945, 242, -451, -1009, 535, -140, 968, 427, 607, 362, 164, 358, 298, 388
273776883, 12326, 749, -9572, 4931, 2945, 242, -451, -1009, 535, -140, 968, 427, 607, 362, 164, 358, 298, 388
273777774, 12362, 521, -9632, 4750, 2764, 146, -472, -1646, 376, 64, 968, 427, 607, 362, 164, 358, 298, 388
273778599, 12362, 521, -9632, 4750, 2764, 146, -472, -1646, 376, 64, 1126, 493, 676, 356, 206, 369, 464, 527
273779395, 12362, 521, -9632, 4750, 2764, 146, -472, -1646, 376, 64, 1126, 493, 676, 356, 206, 369, 464, 527
273784435, 12362, 521, -9632, 4750, 2764, 146, -472, -1646, 376, 64, 1126, 493, 676, 356, 206, 369, 464, 527
273785219, 12362, 521, -9632, 4750, 2764, 146, -472, -1646, 376, 64, 1126, 493, 676, 356, 206, 369, 464, 527
273786018, 12362, 521, -9632, 4750, 2764, 146, -472, -1646, 376, 64, 1126, 493, 676, 356, 206, 369, 464, 527
273786817, 12362, 521, -9632, 4750, 2764, 146, -472, -1646, 376, 64, 1126, 493, 676, 356, 206, 369, 464, 527
273791779, 12362, 521, -9632, 4750, 2764, 146, -472, -1646, 376, 64, 1126, 493, 676, 356, 206, 369, 464, 527
273792640, 12362, 521, -9632, 4750, 2764, 146, -472, -1646, 376, 64, 1126, 493, 676, 356, 206, 369, 464, 527
273793419, 12362, 521, -9632, 4750, 2764, 146, -472, -1646, 376, 64, 1126, 493, 676, 356, 206, 369, 464, 527
273794325, 12362, 521, -9632, 4750, 2764, 146, -472, -1646, 376, 64, 1126, 493, 676, 356, 206, 369, 464, 527
273799384, 12362, 521, -9632, 4750, 2764, 146, -472, -1646, 376, 64, 1126, 493, 676, 356, 206, 369, 464, 527
273800305, 12350, 247, -9761, 4536, 2634, 87, -852, -2040, 33, 153, 1126, 493, 676, 356, 206, 369, 464, 527
273801109, 12350, 247, -9761, 4536, 2634, 87, -852, -2040, 33, 153, 1139, 623, 871, 424, 266, 471, 791, 553
273801920, 12350, 247, -9761, 4536, 2634, 87, -852, -2040, 33, 153, 1139, 623, 871, 424, 266, 471, 791, 553
273806920, 12350, 247, -9761, 4536, 2634, 87, -852, -2040, 33, 153, 1139, 623, 871, 424, 266, 471, 791, 553
273807753, 12350, 247, -9761, 4536, 2634, 87, -852, -2040, 33, 153, 1139, 623, 871, 424, 266, 471, 791, 553
273808556, 12350, 247, -9761, 4536, 2634, 87, -852, -2040, 33, 153, 1139, 623, 871, 424, 266, 471, 791, 553
273809397, 12350, 247, -9761, 4536, 2634, 87, -852, -2040, 33, 153, 1139, 623, 871, 424, 266, 471, 791, 553
273814334, 12350, 247, -9761, 4536, 2634, 87, -852, -2040, 33, 153, 1139, 623, 871, 424, 266, 471, 791, 553
273815128, 12350, 247, -9761, 4536, 2634, 87, -852, -2040, 33, 153, 1139, 623, 871, 424, 266, 471, 791, 553
273815942, 12350, 247, -9761, 4536, 2634, 87, -852, -2040, 33, 153, 1139, 623, 871, 424, 266, 471, 791, 553
273816741, 12350, 247, -9761, 4536, 2634, 87, -852, -2040, 33, 153, 1139, 623, 871, 424, 266, 471, 791, 553
273821826, 12350, 247, -9761, 4536, 2634, 87, -852, -2040, 33, 153, 1139, 623, 871, 424, 266, 471, 791, 553
273822773, 12281, -13, -9955, 4302, 2369, -26, -979, -2128, -458, 97, 1139, 623, 871, 424, 266, 471, 791, 553
273823567, 12281, -13, -9955, 4302, 2369, -26, -979, -2128, -458, 97, 1150, 692, 894, 517, 365, 562, 983, 672
273824392, 12281, -13, -9955, 4302, 2369, -26, -979, -2128, -458, 97, 1150, 692, 894, 517, 365, 562, 983, 672
273829399, 12281, -13, -9955, 4302, 2369, -26, -979, -2128, -458, 97, 1150, 692, 894, 517, 365, 562, 983, 672
273830207, 12281, -13, -9955, 4302, 2369, -26, -979, -2128, -458, 97, 1150, 692, 894, 517, 365, 562, 983, 672
273831023, 12281, -13, -9955, 4302, 2369, -26, -979, -2128, -458, 97, 1150, 692, 894, 517, 365, 562, 983, 672
273831849, 12281, -13, -9955, 4302, 2369, -26, -979, -2128, -458, 97, 1150, 692, 894, 517, 365, 562, 983, 672
273836810, 12281, -13, -9955, 4302, 2369, -26, -979, -2128, -458, 97, 1150, 692, 894, 517, 365, 562, 983, 672
273837598, 12281, -13, -9955, 4302, 2369, -26, -979, -2128, -458, 97, 1150, 692, 894, 517, 365, 562, 983, 672
273838439, 12281, -13, -9955, 4302, 2369, -26, -979, -2128, -458, 97, 1150, 692, 894, 517, 365, 562, 983, 672
273839318, 12281, -13, -9955, 4302, 2369, -26, -979, -2128, -458, 97, 1150, 692, 894, 517, 365, 562, 983, 672
273844348, 12281, -13, -9955, 4302, 2369, -26, -979, -2128, -458, 97, 1150, 692, 894, 517, 365, 562, 983, 672
273845363, 12228, -194, -10123, 4047, 2979, -397, -493, -1840, -461, -298, 1150, 692, 894, 517, 365, 562, 983, 672
273846092, 12228, -194, -10123, 4047, 2979, -397, -493, -1840, -461, -298, 1342, 809, 843, 514, 386, 578, 1184, 807
273846919, 12228, -194, -10123, 4047, 2979, -397, -493, -1840, -461, -298, 1342, 809, 843, 514, 386, 578, 1184, 807
273851909, 12228, -194, -10123, 4047, 2979, -397, -493, -1840, -461, -298, 1342, 809, 843, 514, 386, 578, 1184, 807
273852695, 12228, -194, -10123, 4047, 2979, -397, -493, -1840, -461, -298, 1342, 809, 843, 514, 386, 578, 1184, 807
273853515, 12228, -194, -10123, 4047, 2979, -397, -493, -1840, -461, -298, 1342, 809, 843, 514, 386, 578, 1184, 807
273854331, 12228, -194, -10123, 4047, 2979, -397, -493, -1840, -461, -298, 1342, 809, 843, 514, 386, 578, 1184, 807
273859323, 12228, -194, -10123, 4047, 2979, -397, -493, -1840, -461, -298, 1342, 809, 843, 514, 386, 578, 1184, 807
273860157, 12228, -194, -10123, 4047, 2979, -397, -493, -1840, -461, -298, 1342, 809, 843, 514, 386, 578, 1184, 807
273860949, 12228, -194, -10123, 4047, 2979, -397, -493, -1840, -461, -298, 1342, 809, 843, 514, 386, 578, 1184, 807
273861767, 12228, -194, -10123, 4047, 2979, -397, -493, -1840, -461, -298, 1342, 809, 843, 514, 386, 578, 1184, 807
273866854, 12228, -194, -10123, 4047, 2979, -397, -493, -1840, -461, -298, 1342, 809, 843, 514, 386, 578, 1184, 807
273867774, 12213, -315, -10217, 3846, 3035, -330, 56, -1299, 84, -38, 1342, 809, 843, 514, 386, 578, 1184, 807
273868591, 12213, -315, -10217, 3846, 3035, -330, 56, -1299, 84, -38, 1345, 803, 816, 534, 403, 662, 1353, 969
273869391, 12213, -315, -10217, 3846, 3035, -330, 56, -1299, 84, -38, 1345, 803, 816, 534, 403, 662, 1353, 969
273874428, 12213, -315, -10217, 3846, 3035, -330, 56, -1299, 84, -38, 1345, 803, 816, 534, 403, 662, 1353, 969
273875294, 12213, -315, -10217, 3846, 3035, -330, 56, -1299, 84, -38, 1345, 803, 816, 534, 403, 662, 1353, 969
273875996, 12213, -315, -10217, 3846, 3035, -330, 56, -1299, 84, -38, 1345, 803, 816, 534, 403, 662, 1353, 969
273876866, 12213, -315, -10217, 3846, 3035, -330, 56, -1299, 84, -38, 1345, 803, 816, 534, 403, 662, 1353, 969
273881804, 12213, -315, -10217, 3846, 3035, -330, 56, -1299, 84, -38, 1345, 803, 816, 534, 403, 662, 1353, 969
273882622, 12213, -315, -10217, 3846, 3035, -330, 56, -1299, 84, -38, 1345, 803, 816, 534, 403, 662, 1353, 969
273883449, 12213, -315, -10217, 3846, 3035, -330, 56, -1299, 84, -38, 1345, 803, 816, 534, 403, 662, 1353, 969
273884292, 12213, -315, -10217, 3846, 3035, -330, 56, -1299, 84, -38, 1345, 803, 816, 534, 403, 662, 1353, 969
273889329, 12213, -315, -10217, 3846, 3035, -330, 56, -1299, 84, -38, 1345, 803, 816, 534, 403, 662, 1353, 969
273890294, 12241, -477, -10254, 3633, 2643, 400, -60, -1501, 534, 300, 1345, 803, 816, 534, 403, 662, 1353, 969
273891083, 12241, -477, -10254, 3633, 2643, 400, -60, -1501, 534, 300, 1312, 782, 769, 638, 422, 675, 1375, 958
273891895, 12241, -477, -10254, 3633, 2643, 400, -60, -1501, 534, 300, 1312, 782, 769, 638, 422, 675, 1375, 958
273896894, 12241, -477, -10254, 3633, 2643, 400, -60, -1501, 534, 300, 1312, 782, 769, 638, 422, 675, 1375, 958
273897697, 12241, -477, -10254, 3633, 2643, 400, -60, -1501, 534, 300, 1312, 782, 769, 638, 422, 675, 1375, 958
273898517, 12241, -477, -10254, 3633, 2643, 400, -60, -1501, 534, 300, 1312, 782, 769, 638, 422, 675, 1375, 958
273899341, 12241, -477, -10254, 3633, 2643, 400, -60, -1501, 534, 300, 1312, 782, 769, 638, 422, 675, 1375, 958
273904295, 12241, -477, -10254, 3633, 2643, 400, -60, -1501, 534, 300, 1312, 782, 769, 638, 422, 675, 1375, 958
273905095, 12241, -477, -10254, 3633, 2643, 400, -60, -1501, 534, 300, 1312, 782, 769, 638, 422, 675, 1375, 958
273905916, 12241, -477, -10254, 3633, 2643, 400, -60, -1501, 534, 300, 1312, 782, 769, 638, 422, 675, 1375, 958
273906715, 12241, -477, -10254, 3633, 2643, 400, -60, -1501, 534, 300, 1312, 782, 769, 638, 422, 675, 1375, 958
273911796, 12241, -477, -10254, 3633, 2643, 400, -60, -1501, 534, 300, 1312, 782, 769, 638, 422, 675, 1375, 958
273912718, 12241, -961, -10324, 3329, 2514, 190, -877, -3142, 540, 549, 1312, 782, 769, 638, 422, 675, 1375, 958
273913547, 12241, -961, -10324, 3329, 2514, 190, -877, -3142, 540, 549, 1234, 699, 542, 588, 412, 614, 1235, 911
273914369, 12241, -961, -10324, 3329, 2514, 190, -877, -3142, 540, 549, 1234, 699, 542, 588, 412, 614, 1235, 911
273919367, 12241, -961, -10324, 3329, 2514, 190, -877, -3142, 540, 549, 1234, 699, 542, 588, 412, 614, 1235, 911
273920169, 12241, -961, -10324, 3329, 2514, 190, -877, -3142, 540, 549, 1234, 699, 542, 588, 412, 614, 1235, 911
273920996, 12241, -961, -10324, 3329, 2514, 190, -877, -3142, 540, 549, 1234, 699, 542, 588, 412, 614, 1235, 911
273921816, 12241, -961, -10324, 3329, 2514, 190, -877, -3142, 540, 549, 1234, 699, 542, 588, 412, 614, 1235, 911
273926820, 12241, -961, -10324, 3329, 2514, 190, -877, -3142, 540, 549, 1234, 699, 542, 588, 412, 614, 1235, 911
273927645, 12241, -961, -10324, 3329, 2514, 190, -877, -3142, 540, 549, 1234, 699, 542, 588, 412, 614, 1235, 911
273928441, 12241, -961, -10324, 3329, 2514, 190, -877, -3142, 540, 549, 1234, 699, 542, 588, 412, 614, 1235, 911
273929290, 12241, -961, -10324, 3329, 2514, 190, -877, -3142, 540, 549, 1234, 699, 542, 588, 412, 614, 1235, 911
273934322, 12241, -961, -10324, 3329, 2514, 190, -877, -3142, 540, 549, 1234, 699, 542, 588, 412, 614, 1235, 911
273935294, 12233, -1493, -10400, 2898, 1947, -1279, -604, -3775, 522, -15, 1234, 699, 542, 588, 412, 614, 1235, 911
273936072, 12233, -1493, -10400, 2898, 1947, -1279, -604, -3775, 522, -15, 1213, 724, 482, 683, 341, 500, 1184, 830
273936891, 12233, -1493, -10400, 2898, 1947, -1279, -604, -3775, 522, -15, 1213, 724, 482, 683, 341, 500, 1184, 830
273941896, 12233, -1493, -10400, 2898, 1947, -1279, -604, -3775, 522, -15, 1213, 724, 482, 683, 341, 500, 1184, 830
273942718, 12233, -1493, -10400, 2898, 1947, -1279, -604, -3775, 522, -15, 1213, 724, 482, 683, 341, 500, 1184, 830
273943545, 12233, -1493, -10400, 2898, 1947, -1279, -604, -3775, 522, -15, 1213, 724, 482, 683, 341, 500, 1184, 830
273944344, 12233, -1493, -10400, 2898, 1947, -1279, -604, -3775, 522, -15, 1213, 724, 482, 683, 341, 500, 1184, 830
273949291, 12233, -1493, -10400, 2898, 1947, -1279, -604, -3775, 522, -15, 1213, 724, 482, 683, 341, 500, 1184, 830
273950120, 12233, -1493, -10400, 2898, 1947, -1279, -604, -3775, 522, -15, 1213, 724, 482, 683, 341, 500, 1184, 830
273950921, 12233, -1493, -10400, 2898, 1947, -1279, -604, -3775, 522, -15, 1213, 724, 482, 683, 341, 500, 1184, 830
273951741, 12233, -1493, -10400, 2898, 1947, -1279, -604, -3775, 522, -15, 1213, 724, 482, 683, 341, 500, 1184, 830
273956866, 12233, -1493, -10400, 2898, 1947, -1279, -604, -3775, 522, -15, 1213, 724, 482, 683, 341, 500, 1184, 830
273957798, 12254, -1727, -10384, 2732, 2629, -1350, 219, -1458, 594, -23, 1213, 724, 482, 683, 341, 500, 1184, 830
273958601, 12254, -1727, -10384, 2732, 2629, -1350, 219, -1458, 594, -23, 1138, 607, 449, 702, 325, 569, 1091, 730
273959398, 12254, -1727, -10384, 2732, 2629, -1350, 219, -1458, 594, -23, 1138, 607, 449, 702, 325, 569, 1091, 730
273971910, 12254, -1727, -10384, 2732, 2629, -1350, 219, -1458, 594, -23, 1138, 607, 449, 702, 325, 569, 1091, 730
273972705, 12254, -1727, -10384, 2732, 2629, -1350, 219, -1458, 594, -23, 1138, 607, 449, 702, 325, 569, 1091, 730
273973536, 12254, -1727, -10384, 2732, 2629, -1350, 219, -1458, 594, -23, 1138, 607, 449, 702, 325, 569, 1091, 730
273974331, 12254, -1727, -10384, 2732, 2629, -1350, 219, -1458, 594, -23, 1138, 607, 449, 702, 325, 569, 1091, 730
273979330, 12254, -1727, -10384, 2732, 2629, -1350, 219, -1458, 594, -23, 1138, 607, 449, 702, 325, 569, 1091, 730
273980076, 12254, -1727, -10384, 2732, 2629, -1350, 219, -1458, 594, -23, 1138, 607, 449, 702, 325, 569, 1091, 730
273980894, 12254, -1727, -10384, 2732, 2629, -1350, 219, -1458, 594, -23, 1138, 607, 449, 702, 325, 569, 1091, 730
273981717, 12254, -1727, -10384, 2732, 2629, -1350, 219, -1458, 594, -23, 1138, 607, 449, 702, 325, 569, 1091, 730
273986857, 12254, -1727, -10384, 2732, 2629, -1350, 219, -1458, 594, -23, 1138, 607, 449, 702, 325, 569, 1091, 730
273987773, 12291, -1819, -10358, 2601, 2176, -650, -113, -717, 673, -131, 1138, 607, 449, 702, 325, 569, 1091, 730
273988594, 12291, -1819, -10358, 2601, 2176, -650, -113, -717, 673, -131, 1142, 588, 388, 751, 326, 528, 1029, 468
273989391, 12291, -1819, -10358, 2601, 2176, -650, -113, -717, 673, -131, 1142, 588, 388, 751, 326, 528, 1029, 468
273994425, 12291, -1819, -10358, 2601, 2176, -650, -113, -717, 673, -131, 1142, 588, 388, 751, 326, 528, 1029, 468
273995306, 12291, -1819, -10358, 2601, 2176, -650, -113, -717, 673, -131, 1142, 588, 388, 751, 326, 528, 1029, 468
273996000, 12291, -1819, -10358, 2601, 2176, -650, -113, -717, 673, -131, 1142, 588, 388, 751, 326, 528, 1029, 468
273996867, 12291, -1819, -10358, 2601, 2176, -650, -113, -717, 673, -131, 1142, 588, 388, 751, 326, 528, 1029, 468
274001810, 12291, -1819, -10358, 2601, 2176, -650, -113, -717, 673, -131, 1142, 588, 388, 751, 326, 528, 1029, 468
274002618, 12291, -1819, -10358, 2601, 2176, -650, -113, -717, 673, -131, 1142, 588, 388, 751, 326, 528, 1029, 468
274003443, 12291, -1819, -10358, 2601, 2176, -650, -113, -717, 673, -131, 1142, 588, 388, 751, 326, 528, 1029, 468
274004291, 12291, -1819, -10358, 2601, 2176, -650, -113, -717, 673, -131, 1142, 588, 388, 751, 326, 528, 1029, 468
274009321, 12291, -1819, -10358, 2601, 2176, -650, -113, -717, 673, -131, 1142, 588, 388, 751, 326, 528, 1029, 468
274010294, 12315, -1944, -10362, 2368, 2413, -144, -200, -1280, 658, -158, 1142, 588, 388, 751, 326, 528, 1029, 468
274011071, 12315, -1944, -10362, 2368, 2413, -144, -200, -1280, 658, -158, 1106, 641, 404, 758, 311, 521, 1011, 346
274011891, 12315, -1944, -10362, 2368, 2413, -144, -200, -1280, 658, -158, 1106, 641, 404, 758, 311, 521, 1011, 346
274016904, 12315, -1944, -10362, 2368, 2413, -144, -200, -1280, 658, -158, 1106, 641, 404, 758, 311, 521, 1011, 346
274017697, 12315, -1944, -10362, 2368, 2413, -144, -200, -1280, 658, -158, 1106, 641, 404, 758, 311, 521, 1011, 346
274018516, 12315, -1944, -10362, 2368, 2413, -144, -200, -1280, 658, -158, 1106, 641, 404, 758, 311, 521, 1011, 346
274019340, 12315, -1944, -10362, 2368, 2413, -144, -200, -1280, 658, -158, 1106, 641, 404, 758, 311, 521, 1011, 346
274024297, 12315, -1944, -10362, 2368, 2413, -144, -200, -1280, 658, -158, 1106, 641, 404, 758, 311, 521, 1011, 346
274025101, 12315, -1944, -10362, 2368, 2413, -144, -200, -1280, 658, -158, 1106, 641, 404, 758, 311, 521, 1011, 346
274025920, 12315, -1944, -10362, 2368, 2413, -144, -200, -1280, 658, -158, 1106, 641, 404, 758, 311, 521, 1011, 346
274026716, 12315, -1944, -10362, 2368, 2413, -144, -200, -1280, 658, -158, 1106, 641, 404, 758, 311, 521, 1011, 346
274031796, 12315, -1944, -10362, 2368, 2413, -144, -200, -1280, 658, -158, 1106, 641, 404, 758, 311, 521, 1011, 346
274032724, 12296, -2310, -10393, 1974, 2063, -939, -667, -2919, 485, -385, 1106, 641, 404, 758, 311, 521, 1011, 346
274033541, 12296, -2310, -10393, 1974, 2063, -939, -667, -2919, 485, -385, 1249, 694, 401, 923, 345, 538, 1056, 342
274034365, 12296, -2310, -10393, 1974, 2063, -939, -667, -2919, 485, -385, 1249, 694, 401, 923, 345, 538, 1056, 342
274039369, 12296, -2310, -10393, 1974, 2063, -939, -667, -2919, 485, -385, 1249, 694, 401, 923, 345, 538, 1056, 342
274040207, 12296, -2310, -10393, 1974, 2063, -939, -667, -2919, 485, -385, 1249, 694, 401, 923, 345, 538, 1056, 342
274041250, 12296, -2310, -10393, 1974, 2063, -939, -667, -2919, 485, -385, 1249, 694, 401, 923, 345, 538, 1056, 342
274041851, 12296, -2310, -10393, 1974, 2063, -939, -667, -2919, 485, -385, 1249, 694, 401, 923, 345, 538, 1056, 342
274046785, 12296, -2310, -10393, 1974, 2063, -939, -667, -2919, 485, -385, 1249, 694, 401, 923, 345, 538, 1056, 342
274047579, 12296, -2310, -10393, 1974, 2063, -939, -667, -2919, 485, -385, 1249, 694, 401, 923, 345, 538, 1056, 342
274048402, 12296, -2310, -10393, 1974, 2063, -939, -667, -2919, 485, -385, 1249, 694, 401, 923, 345, 538, 1056, 342
274049205, 12296, -2310, -10393, 1974, 2063, -939, -667, -2919, 485, -385, 1249, 694, 401, 923, 345, 538, 1056, 342
274054356, 12296, -2310, -10393, 1974, 2063, -939, -667, -2919, 485, -385, 1249, 694, 401, 923, 345, 538, 1056, 342
274055313, 12276, -2645, -10394, 1646, 2136, -1727, -235, -2549, 476, -283, 1249, 694, 401, 923, 345, 538, 1056, 342
274056084, 12276, -2645, -10394, 1646, 2136, -1727, -235, -2549, 476, -283, 1216, 602, 401, 842, 361, 612, 1099, 396
274056903, 12276, -2645, -10394, 1646, 2136, -1727, -235, -2549, 476, -283, 1216, 602, 401, 842, 361, 612, 1099, 396
274061904, 12276, -2645, -10394, 1646, 2136, -1727, -235, -2549, 476, -283, 1216, 602, 401, 842, 361, 612, 1099, 396
274062729, 12276, -2645, -10394, 1646, 2136, -1727, -235, -2549, 476, -283, 1216, 602, 401, 842, 361, 612, 1099, 396
274063563, 12276, -2645, -10394, 1646, 2136, -1727, -235, -2549, 476, -283, 1216, 602, 401, 842, 361, 612, 1099, 396
274064365, 12276, -2645, -10394, 1646, 2136, -1727, -235, -2549, 476, -283, 1216, 602, 401, 842, 361, 612, 1099, 396
274070118, 12276, -2645, -10394, 1646, 2136, -1727, -235, -2549, 476, -283, 1216, 602, 401, 842, 361, 612, 1099, 396
274070906, 12276, -2645, -10394, 1646, 2136, -1727, -235, -2549, 476, -283, 1216, 602, 401, 842, 361, 612, 1099, 396
274071584, 12276, -2645, -10394, 1646, 2136, -1727, -235, -2549, 476, -283, 1216, 602, 401, 842, 361, 612, 1099, 396
274071764, 12276, -2645, -10394, 1646, 2136, -1727, -235, -2549, 476, -283, 1216, 602, 401, 842, 361, 612, 1099, 396
274076870, 12276, -2645, -10394, 1646, 2136, -1727, -235, -2549, 476, -283, 1216, 602, 401, 842, 361, 612, 1099, 396
274077749, 12264, -2787, -10402, 1430, 2236, -1054, -332, -1230, 534, -496, 1216, 602, 401, 842, 361, 612, 1099, 396
274078567, 12264, -2787, -10402, 1430, 2236, -1054, -332, -1230, 534, -496, 1250, 691, 415, 881, 371, 578, 1068, 509
274079366, 12264, -2787, -10402, 1430, 2236, -1054, -332, -1230, 534, -496, 1250, 691, 415, 881, 371, 578, 1068, 509
274084387, 12264, -2787, -10402, 1430, 2236, -1054, -332, -1230, 534, -496, 1250, 691, 415, 881, 371, 578, 1068, 509
274085213, 12264, -2787, -10402, 1430, 2236, -1054, -332, -1230, 534, -496, 1250, 691, 415, 881, 371, 578, 1068, 509
274086018, 12264, -2787, -10402, 1430, 2236, -1054, -332, -1230, 534, -496, 1250, 691, 415, 881, 371, 578, 1068, 509
274086818, 12264, -2787, -10402, 1430, 2236, -1054, -332, -1230, 534, -496, 1250, 691, 415, 881, 371, 578, 1068, 509
274091776, 12264, -2787, -10402, 1430, 2236, -1054, -332, -1230, 534, -496, 1250, 691, 415, 881, 371, 578, 1068, 509
274092595, 12264, -2787, -10402, 1430, 2236, -1054, -332, -1230, 534, -496, 1250, 691, 415, 881, 371, 578, 1068, 509
274093392, 12264, -2787, -10402, 1430, 2236, -1054, -332, -1230, 534, -496, 1250, 691, 415, 881, 371, 578, 1068, 509
274094290, 12264, -2787, -10402, 1430, 2236, -1054, -332, -1230, 534, -496, 1250, 691, 415, 881, 371, 578, 1068, 509
274099292, 12264, -2787, -10402, 1430, 2236, -1054, -332, -1230, 534, -496, 1250, 691, 415, 881, 371, 578, 1068, 509
274100294, 12212, -2927, -10461, 1143, 1979, -823, -602, -1508, 350, -778, 1250, 691, 415, 881, 371, 578, 1068, 509
274100972, 12212, -2927, -10461, 1143, 1979, -823, -602, -1508, 350, -778, 1284, 745, 503, 835, 360, 594, 974, 522
274101841, 12212, -2927, -10461, 1143, 1979, -823, -602, -1508, 350, -778, 1284, 745, 503, 835, 360, 594, 974, 522
274106870, 12212, -2927, -10461, 1143, 1979, -823, -602, -1508, 350, -778, 1284, 745, 503, 835, 360, 594, 974, 522
274107669, 12212, -2927, -10461, 1143, 1979, -823, -602, -1508, 350, -778, 1284, 745, 503, 835, 360, 594, 974, 522
274108491, 12212, -2927, -10461, 1143, 1979, -823, -602, -1508, 350, -778, 1284, 745, 503, 835, 360, 594, 974, 522
274109290, 12212, -2927, -10461, 1143, 1979, -823, -602, -1508, 350, -778, 1284, 745, 503, 835, 360, 594, 974, 522
274114322, 12212, -2927, -10461, 1143, 1979, -823, -602, -1508, 350, -778, 1284, 745, 503, 835, 360, 594, 974, 522
274115119, 12212, -2927, -10461, 1143, 1979, -823, -602, -1508, 350, -778, 1284, 745, 503, 835, 360, 594, 974, 522
274115941, 12212, -2927, -10461, 1143, 1979, -823, -602, -1508, 350, -778, 1284, 745, 503, 835, 360, 594, 974, 522
274116745, 12212, -2927, -10461, 1143, 1979, -823, -602, -1508, 350, -778, 1284, 745, 503, 835, 360, 594, 974, 522
274121822, 12212, -2927, -10461, 1143, 1979, -823, -602, -1508, 350, -778, 1284, 745, 503, 835, 360, 594, 974, 522
274122769, 12130, -3152, -10526, 759, 2266, -1085, -888, -2361, 44, -865, 1284, 745, 503, 835, 360, 594, 974, 522
274123565, 12130, -3152, -10526, 759, 2266, -1085, -888, -2361, 44, -865, 1352, 813, 477, 759, 338, 599, 979, 590
274124391, 12130, -3152, -10526, 759, 2266, -1085, -888, -2361, 44, -865, 1352, 813, 477, 759, 338, 599, 979, 590
274127185, 12130, -3152, -10526, 759, 2266, -1085, -888, -2361, 44, -865, 1352, 813, 477, 759, 338, 599, 979, 590
274136772, 12130, -3152, -10526, 759, 2266, -1085, -888, -2361, 44, -865, 1352, 813, 477, 759, 338, 599, 979, 590
274137592, 12130, -3152, -10526, 759, 2266, -1085, -888, -2361, 44, -865, 1352, 813, 477, 759, 338, 599, 979, 590
274138415, 12130, -3152, -10526, 759, 2266, -1085, -888, -2361, 44, -865, 1352, 813, 477, 759, 338, 599, 979, 590
274139290, 12130, -3152, -10526, 759, 2266, -1085, -888, -2361, 44, -865, 1352, 813, 477, 759, 338, 599, 979, 590
274144296, 12130, -3152, -10526, 759, 2266, -1085, -888, -2361, 44, -865, 1352, 813, 477, 759, 338, 599, 979, 590
274145094, 12130, -3152, -10526, 759, 2266, -1085, -888, -2361, 44, -865, 1352, 813, 477, 759, 338, 599, 979, 590
274145915, 12130, -3152, -10526, 759, 2266, -1085, -888, -2361, 44, -865, 1352, 813, 477, 759, 338, 599, 979, 590
274146741, 12130, -3152, -10526, 759, 2266, -1085, -888, -2361, 44, -865, 1352, 813, 477, 759, 338, 599, 979, 590
274151922, 12130, -3152, -10526, 759, 2266, -1085, -888, -2361, 44, -865, 1334, 1032, 447, 587, 277, 593, 967, 617
274152719, 12130, -3152, -10526, 759, 2266, -1085, -888, -2361, 44, -865, 1334, 1032, 447, 587, 277, 593, 967, 617
274153552, 12130, -3152, -10526, 759, 2266, -1085, -888, -2361, 44, -865, 1334, 1032, 447, 587, 277, 593, 967, 617
274154380, 12130, -3152, -10526, 759, 2266, -1085, -888, -2361, 44, -865, 1334, 1032, 447, 587, 277, 593, 967, 617
274157102, 12130, -3152, -10526, 759, 2266, -1085, -888, -2361, 44, -865, 1334, 1032, 447, 587, 277, 593, 967, 617
274166827, 12130, -3152, -10526, 759, 2266, -1085, -888, -2361, 44, -865, 1334, 1032, 447, 587, 277, 593, 967, 617
274167620, 12130, -3152, -10526, 759, 2266, -1085, -888, -2361, 44, -865, 1334, 1032, 447, 587, 277, 593, 967, 617
274168441, 12130, -3152, -10526, 759, 2266, -1085, -888, -2361, 44, -865, 1334, 1032, 447, 587, 277, 593, 967, 617
274169290, 12130, -3152, -10526, 759, 2266, -1085, -888, -2361, 44, -865, 1334, 1032, 447, 587, 277, 593, 967, 617
274174453, 11936, -3643, -10615, 9, 2367, -1887, -616, -2110, 94, -749, 1334, 1032, 447, 587, 277, 593, 967, 617
274175294, 11936, -3643, -10615, 9, 2367, -1887, -616, -2110, 94, -749, 1341, 1086, 482, 550, 265, 565, 880, 586
274176069, 11936, -3643, -10615, 9, 2367, -1887, -616, -2110, 94, -749, 1341, 1086, 482, 550, 265, 565, 880, 586
274176899, 11936, -3643, -10615, 9, 2367, -1887, -616, -2110, 94, -749, 1341, 1086, 482, 550, 265, 565, 880, 586
274181767, 11936, -3643, -10615, 9, 2367, -1887, -616, -2110, 94, -749, 1341, 1086, 482, 550, 265, 565, 880, 586
274182591, 11936, -3643, -10615, 9, 2367, -1887, -616, -2110, 94, -749, 1341, 1086, 482, 550, 265, 565, 880, 586
274183399, 11936, -3643, -10615, 9, 2367, -1887, -616, -2110, 94, -749, 1341, 1086, 482, 550, 265, 565, 880, 586
274184302, 11936, -3643, -10615, 9, 2367, -1887, -616, -2110, 94, -749, 1341, 1086, 482, 550, 265, 565, 880, 586
274189295, 11936, -3643, -10615, 9, 2367, -1887, -616, -2110, 94, -749, 1341, 1086, 482, 550, 265, 565, 880, 586
274190295, 11851, -3799, -10653, -256, 2225, -1592, -721, -1661, -31, -676, 1341, 1086, 482, 550, 265, 565, 880, 586
274190971, 11851, -3799, -10653, -256, 2225, -1592, -721, -1661, -31, -676, 1196, 1034, 521, 539, 254, 526, 902, 479
274191841, 11851, -3799, -10653, -256, 2225, -1592, -721, -1661, -31, -676, 1196, 1034, 521, 539, 254, 526, 902, 479
274196872, 11851, -3799, -10653, -256, 2225, -1592, -721, -1661, -31, -676, 1196, 1034, 521, 539, 254, 526, 902, 479
274197667, 11851, -3799, -10653, -256, 2225, -1592, -721, -1661, -31, -676, 1196, 1034, 521, 539, 254, 526, 902, 479
274198491, 11851, -3799, -10653, -256, 2225, -1592, -721, -1661, -31, -676, 1196, 1034, 521, 539, 254, 526, 902, 479
274199291, 11851, -3799, -10653, -256, 2225, -1592, -721, -1661, -31, -676, 1196, 1034, 521, 539, 254, 526, 902, 479
274204330, 11851, -3799, -10653, -256, 2225, -1592, -721, -1661, -31, -676, 1196, 1034, 521, 539, 254, 526, 902, 479
274205120, 11851, -3799, -10653, -256, 2225, -1592, -721, -1661, -31, -676, 1196, 1034, 521, 539, 254, 526, 902, 479
274205941, 11851, -3799, -10653, -256, 2225, -1592, -721, -1661, -31, -676, 1196, 1034, 521, 539, 254, 526, 902, 479
274206741, 11851, -3799, -10653, -256, 2225, -1592, -721, -1661, -31, -676, 1196, 1034, 521, 539, 254, 526, 902, 479
274211840, 11851, -3799, -10653, -256, 2225, -1592, -721, -1661, -31, -676, 1196, 1034, 521, 539, 254, 526, 902, 479
274212777, 11753, -3961, -10694, -498, 2330, -1549, -783, -1623, -115, -556, 1196, 1034, 521, 539, 254, 526, 902, 479
274213610, 11753, -3961, -10694, -498, 2330, -1549, -783, -1623, -115, -556, 1216, 988, 447, 599, 240, 431, 912, 508
274214409, 11753, -3961, -10694, -498, 2330, -1549, -783, -1623, -115, -556, 1216, 988, 447, 599, 240, 431, 912, 508
274219399, 11753, -3961, -10694, -498, 2330, -1549, -783, -1623, -115, -556, 1216, 988, 447, 599, 240, 431, 912, 508
274220300, 11753, -3961, -10694, -498, 2330, -1549, -783, -1623, -115, -556, 1216, 988, 447, 599, 240, 431, 912, 508
274220973, 11753, -3961, -10694, -498, 2330, -1549, -783, -1623, -115, -556, 1216, 988, 447, 599, 240, 431, 912, 508
274221842, 11753, -3961, -10694, -498, 2330, -1549, -783, -1623, -115, -556, 1216, 988, 447, 599, 240, 431, 912, 508
274226796, 11753, -3961, -10694, -498, 2330, -1549, -783, -1623, -115, -556, 1216, 988, 447, 599, 240, 431, 912, 508
274227601, 11753, -3961, -10694, -498, 2330, -1549, -783, -1623, -115, -556, 1216, 988, 447, 599, 240, 431, 912, 508
274228417, 11753, -3961, -10694, -498, 2330, -1549, -783, -1623, -115, -556, 1216, 988, 447, 599, 240, 431, 912, 508
274229291, 11753, -3961, -10694, -498, 2330, -1549, -783, -1623, -115, -556, 1216, 988, 447, 599, 240, 431, 912, 508
274234302, 11753, -3961, -10694, -498, 2330, -1549, -783, -1623, -115, -556, 1216, 988, 447, 599, 240, 431, 912, 508
274235297, 11611, -4166, -10761, -679, 2460, -1561, -802, -1520, -150, -507, 1216, 988, 447, 599, 240, 431, 912, 508
274236046, 11611, -4166, -10761, -679, 2460, -1561, -802, -1520, -150, -507, 1214, 906, 473, 649, 241, 467, 916, 613
274236866, 11611, -4166, -10761, -679, 2460, -1561, -802, -1520, -150, -507, 1214, 906, 473, 649, 241, 467, 916, 613
274249383, 11611, -4166, -10761, -679, 2460, -1561, -802, -1520, -150, -507, 1214, 906, 473, 649, 241, 467, 916, 613
274250173, 11611, -4166, -10761, -679, 2460, -1561, -802, -1520, -150, -507, 1214, 906, 473, 649, 241, 467, 916, 613
274250991, 11611, -4166, -10761, -679, 2460, -1561, -802, -1520, -150, -507, 1214, 906, 473, 649, 241, 467, 916, 613
274251816, 11611, -4166, -10761, -679, 2460, -1561, -802, -1520, -150, -507, 1214, 906, 473, 649, 241, 467, 916, 613
274256776, 11611, -4166, -10761, -679, 2460, -1561, -802, -1520, -150, -507, 1214, 906, 473, 649, 241, 467, 916, 613
274257574, 11611, -4166, -10761, -679, 2460, -1561, -802, -1520, -150, -507, 1214, 906, 473, 649, 241, 467, 916, 613
274258393, 11611, -4166, -10761, -679, 2460, -1561, -802, -1520, -150, -507, 1214, 906, 473, 649, 241, 467, 916, 613
274259194, 11611, -4166, -10761, -679, 2460, -1561, -802, -1520, -150, -507, 1214, 906, 473, 649, 241, 467, 916, 613
274264321, 11611, -4166, -10761, -679, 2460, -1561, -802, -1520, -150, -507, 1214, 906, 473, 649, 241, 467, 916, 613
274265307, 11471, -4356, -10823, -862, 2478, -1534, -819, -1478, -134, -548, 1214, 906, 473, 649, 241, 467, 916, 613
274266103, 11471, -4356, -10823, -862, 2478, -1534, -819, -1478, -134, -548, 1140, 545, 495, 746, 232, 428, 987, 594
274266908, 11471, -4356, -10823, -862, 2478, -1534, -819, -1478, -134, -548, 1140, 545, 495, 746, 232, 428, 987, 594
274271901, 11471, -4356, -10823, -862, 2478, -1534, -819, -1478, -134, -548, 1140, 545, 495, 746, 232, 428, 987, 594
274272721, 11471, -4356, -10823, -862, 2478, -1534, -819, -1478, -134, -548, 1140, 545, 495, 746, 232, 428, 987, 594
274273548, 11471, -4356, -10823, -862, 2478, -1534, -819, -1478, -134, -548, 1140, 545, 495, 746, 232, 428, 987, 594
274274358, 11471, -4356, -10823, -862, 2478, -1534, -819, -1478, -134, -548, 1140, 545, 495, 746, 232, 428, 987, 594
274279334, 11471, -4356, -10823, -862, 2478, -1534, -819, -1478, -134, -548, 1140, 545, 495, 746, 232, 428, 987, 594
274280126, 11471, -4356, -10823, -862, 2478, -1534, -819, -1478, -134, -548, 1140, 545, 495, 746, 232, 428, 987, 594
274280917, 11471, -4356, -10823, -862, 2478, -1534, -819, -1478, -134, -548, 1140, 545, 495, 746, 232, 428, 987, 594
274281741, 11471, -4356, -10823, -862, 2478, -1534, -819, -1478, -134, -548, 1140, 545, 495, 746, 232, 428, 987, 594
274286827, 11471, -4356, -10823, -862, 2478, -1534, -819, -1478, -134, -548, 1140, 545, 495, 746, 232, 428, 987, 594
274287753, 11342, -4533, -10875, -996, 2472, -1642, -875, -1245, -127, -447, 1140, 545, 495, 746, 232, 428, 987, 594
274288568, 11342, -4533, -10875, -996, 2472, -1642, -875, -1245, -127, -447, 1100, 384, 484, 786, 210, 355, 969, 611
274289366, 11342, -4533, -10875, -996, 2472, -1642, -875, -1245, -127, -447, 1100, 384, 484, 786, 210, 355, 969, 611
274294374, 11342, -4533, -10875, -996, 2472, -1642, -875, -1245, -127, -447, 1100, 384, 484, 786, 210, 355, 969, 611
274295197, 11342, -4533, -10875, -996, 2472, -1642, -875, -1245, -127, -447, 1100, 384, 484, 786, 210, 355, 969, 611
274296016, 11342, -4533, -10875, -996, 2472, -1642, -875, -1245, -127, -447, 1100, 384, 484, 786, 210, 355, 969, 611
274296818, 11342, -4533, -10875, -996, 2472, -1642, -875, -1245, -127, -447, 1100, 384, 484, 786, 210, 355, 969, 611
274301779, 11342, -4533, -10875, -996, 2472, -1642, -875, -1245, -127, -447, 1100, 384, 484, 786, 210, 355, 969, 611
274302595, 11342, -4533, -10875, -996, 2472, -1642, -875, -1245, -127, -447, 1100, 384, 484, 786, 210, 355, 969, 611
274303392, 11342, -4533, -10875, -996, 2472, -1642, -875, -1245, -127, -447, 1100, 384, 484, 786, 210, 355, 969, 611
274304297, 11342, -4533, -10875, -996, 2472, -1642, -875, -1245, -127, -447, 1100, 384, 484, 786, 210, 355, 969, 611
274309291, 11342, -4533, -10875, -996, 2472, -1642, -875, -1245, -127, -447, 1100, 384, 484, 786, 210, 355, 969, 611
274310298, 11226, -4659, -10934, -1082, 2523, -1567, -952, -857, -141, -407, 1100, 384, 484, 786, 210, 355, 969, 611
274310973, 11226, -4659, -10934, -1082, 2523, -1567, -952, -857, -141, -407, 1128, 325, 431, 743, 196, 349, 934, 584
274311842, 11226, -4659, -10934, -1082, 2523, -1567, -952, -857, -141, -407, 1128, 325, 431, 743, 196, 349, 934, 584
274316874, 11226, -4659, -10934, -1082, 2523, -1567, -952, -857, -141, -407, 1128, 325, 431, 743, 196, 349, 934, 584
274317672, 11226, -4659, -10934, -1082, 2523, -1567, -952, -857, -141, -407, 1128, 325, 431, 743, 196, 349, 934, 584
274318492, 11226, -4659, -10934, -1082, 2523, -1567, -952, -857, -141, -407, 1128, 325, 431, 743, 196, 349, 934, 584
274319298, 11226, -4659, -10934, -1082, 2523, -1567, -952, -857, -141, -407, 1128, 325, 431, 743, 196, 349, 934, 584
274324295, 11226, -4659, -10934, -1082, 2523, -1567, -952, -857, -141, -407, 1128, 325, 431, 743, 196, 349, 934, 584
274325070, 11226, -4659, -10934, -1082, 2523, -1567, -952, -857, -141, -407, 1128, 325, 431, 743, 196, 349, 934, 584
274325890, 11226, -4659, -10934, -1082, 2523, -1567, -952, -857, -141, -407, 1128, 325, 431, 743, 196, 349, 934, 584
274326690, 11226, -4659, -10934, -1082, 2523, -1567, -952, -857, -141, -407, 1128, 325, 431, 743, 196, 349, 934, 584
274331839, 11226, -4659, -10934, -1082, 2523, -1567, -952, -857, -141, -407, 1128, 325, 431, 743, 196, 349, 934, 584
274332846, 11117, -4755, -10998, -1132, 2542, -1541, -1158, -568, -99, -367, 1128, 325, 431, 743, 196, 349, 934, 584
274333600, 11117, -4755, -10998, -1132, 2542, -1541, -1158, -568, -99, -367, 1128, 334, 411, 754, 187, 376, 897, 548
274334398, 11117, -4755, -10998, -1132, 2542, -1541, -1158, -568, -99, -367, 1128, 334, 411, 754, 187, 376, 897, 548
274339393, 11117, -4755, -10998, -1132, 2542, -1541, -1158, -568, -99, -367, 1128, 334, 411, 754, 187, 376, 897, 548
274340308, 11117, -4755, -10998, -1132, 2542, -1541, -1158, -568, -99, -367, 1128, 334, 411, 754, 187, 376, 897, 548
274340978, 11117, -4755, -10998, -1132, 2542, -1541, -1158, -568, -99, -367, 1128, 334, 411, 754, 187, 376, 897, 548
274341841, 11117, -4755, -10998, -1132, 2542, -1541, -1158, -568, -99, -367, 1128, 334, 411, 754, 187, 376, 897, 548
274346798, 11117, -4755, -10998, -1132, 2542, -1541, -1158, -568, -99, -367, 1128, 334, 411, 754, 187, 376, 897, 548
274347592, 11117, -4755, -10998, -1132, 2542, -1541, -1158, -568, -99, -367, 1128, 334, 411, 754, 187, 376, 897, 548
274348416, 11117, -4755, -10998, -1132, 2542, -1541, -1158, -568, -99, -367, 1128, 334, 411, 754, 187, 376, 897, 548
274349290, 11117, -4755, -10998, -1132, 2542, -1541, -1158, -568, -99, -367, 1128, 334, 411, 754, 187, 376, 897, 548
274354303, 11117, -4755, -10998, -1132, 2542, -1541, -1158, -568, -99, -367, 1128, 334, 411, 754, 187, 376, 897, 548
274355301, 11024, -4857, -11044, -1162, 2650, -1530, -1100, -514, -60, -206, 1128, 334, 411, 754, 187, 376, 897, 548
274356048, 11024, -4857, -11044, -1162, 2650, -1530, -1100, -514, -60, -206, 992, 270, 388, 951, 187, 358, 939, 345
274356866, 11024, -4857, -11044, -1162, 2650, -1530, -1100, -514, -60, -206, 992, 270, 388, 951, 187, 358, 939, 345
274361875, 11024, -4857, -11044, -1162, 2650, -1530, -1100, -514, -60, -206, 992, 270, 388, 951, 187, 358, 939, 345
274362694, 11024, -4857, -11044, -1162, 2650, -1530, -1100, -514, -60, -206, 992, 270, 388, 951, 187, 358, 939, 345
274363491, 11024, -4857, -11044, -1162, 2650, -1530, -1100, -514, -60, -206, 992, 270, 388, 951, 187, 358, 939, 345
274364321, 11024, -4857, -11044, -1162, 2650, -1530, -1100, -514, -60, -206, 992, 270, 388, 951, 187, 358, 939, 345
274369298, 11024, -4857, -11044, -1162, 2650, -1530, -1100, -514, -60, -206, 992, 270, 388, 951, 187, 358, 939, 345
274370074, 11024, -4857, -11044, -1162, 2650, -1530, -1100, -514, -60, -206, 992, 270, 388, 951, 187, 358, 939, 345
274370894, 11024, -4857, -11044, -1162, 2650, -1530, -1100, -514, -60, -206, 992, 270, 388, 951, 187, 358, 939, 345
274371716, 11024, -4857, -11044, -1162, 2650, -1530, -1100, -514, -60, -206, 992, 270, 388, 951, 187, 358, 939, 345
274376771, 11024, -4857, -11044, -1162, 2650, -1530, -1100, -514, -60, -206, 992, 270, 388, 951, 187, 358, 939, 345
274377719, 10950, -4956, -11072, -1172, 2563, -1569, -1077, -424, 22, -131, 992, 270, 388, 951, 187, 358, 939, 345
274378526, 10950, -4956, -11072, -1172, 2563, -1569, -1077, -424, 22, -131, 956, 254, 354, 982, 198, 356, 937, 371
274379345, 10950, -4956, -11072, -1172, 2563, -1569, -1077, -424, 22, -131, 956, 254, 354, 982, 198, 356, 937, 371
274384355, 10950, -4956, -11072, -1172, 2563, -1569, -1077, -424, 22, -131, 956, 254, 354, 982, 198, 356, 937, 371
274385175, 10950, -4956, -11072, -1172, 2563, -1569, -1077, -424, 22, -131, 956, 254, 354, 982, 198, 356, 937, 371
274385967, 10950, -4956, -11072, -1172, 2563, -1569, -1077, -424, 22, -131, 956, 254, 354, 982, 198, 356, 937, 371
274386793, 10950, -4956, -11072, -1172, 2563, -1569, -1077, -424, 22, -131, 956, 254, 354, 982, 198, 356, 937, 371
274391792, 10950, -4956, -11072, -1172, 2563, -1569, -1077, -424, 22, -131, 956, 254, 354, 982, 198, 356, 937, 371
274392616, 10950, -4956, -11072, -1172, 2563, -1569, -1077, -424, 22, -131, 956, 254, 354, 982, 198, 356, 937, 371
274393416, 10950, -4956, -11072, -1172, 2563, -1569, -1077, -424, 22, -131, 956, 254, 354, 982, 198, 356, 937, 371
274394297, 10950, -4956, -11072, -1172, 2563, -1569, -1077, -424, 22, -131, 956, 254, 354, 982, 198, 356, 937, 371
274399319, 10950, -4956, -11072, -1172, 2563, -1569, -1077, -424, 22, -131, 956, 254, 354, 982, 198, 356, 937, 371
274400294, 10886, -5043, -11098, -1156, 2578, -1529, -1123, -258, 32, -37, 956, 254, 354, 982, 198, 356, 937, 371
274401071, 10886, -5043, -11098, -1156, 2578, -1529, -1123, -258, 32, -37, 951, 240, 299, 990, 177, 361, 935, 322
274401866, 10886, -5043, -11098, -1156, 2578, -1529, -1123, -258, 32, -37, 951, 240, 299, 990, 177, 361, 935, 322
274406898, 10886, -5043, -11098, -1156, 2578, -1529, -1123, -258, 32, -37, 951, 240, 299, 990, 177, 361, 935, 322
274407696, 10886, -5043, -11098, -1156, 2578, -1529, -1123, -258, 32, -37, 951, 240, 299, 990, 177, 361, 935, 322
274408517, 10886, -5043, -11098, -1156, 2578, -1529, -1123, -258, 32, -37, 951, 240, 299, 990, 177, 361, 935, 322
274409316, 10886, -5043, -11098, -1156, 2578, -1529, -1123, -258, 32, -37, 951, 240, 299, 990, 177, 361, 935, 322
274414294, 10886, -5043, -11098, -1156, 2578, -1529, -1123, -258, 32, -37, 951, 240, 299, 990, 177, 361, 935, 322
274415095, 10886, -5043, -11098, -1156, 2578, -1529, -1123, -258, 32, -37, 951, 240, 299, 990, 177, 361, 935, 322
274415916, 10886, -5043, -11098, -1156, 2578, -1529, -1123, -258, 32, -37, 951, 240, 299, 990, 177, 361, 935, 322
274416716, 10886, -5043, -11098, -1156, 2578, -1529, -1123, -258, 32, -37, 951, 240, 299, 990, 177, 361, 935, 322
274421795, 10886, -5043, -11098, -1156, 2578, -1529, -1123, -258, 32, -37, 951, 240, 299, 990, 177, 361, 935, 322
274422723, 10835, -5119, -11117, -1113, 2594, -1619, -1159, -98, 71, 11, 951, 240, 299, 990, 177, 361, 935, 322
274423541, 10835, -5119, -11117, -1113, 2594, -1619, -1159, -98, 71, 11, 902, 242, 281, 1000, 190, 334, 961, 348
274424371, 10835, -5119, -11117, -1113, 2594, -1619, -1159, -98, 71, 11, 902, 242, 281, 1000, 190, 334, 961, 348
274429373, 10835, -5119, -11117, -1113, 2594, -1619, -1159, -98, 71, 11, 902, 242, 281, 1000, 190, 334, 961, 348
274430174, 10835, -5119, -11117, -1113, 2594, -1619, -1159, -98, 71, 11, 902, 242, 281, 1000, 190, 334, 961, 348
274430995, 10835, -5119, -11117, -1113, 2594, -1619, -1159, -98, 71, 11, 902, 242, 281, 1000, 190, 334, 961, 348
274431816, 10835, -5119, -11117, -1113, 2594, -1619, -1159, -98, 71, 11, 902, 242, 281, 1000, 190, 334, 961, 348
274436771, 10835, -5119, -11117, -1113, 2594, -1619, -1159, -98, 71, 11, 902, 242, 281, 1000, 190, 334, 961, 348
274437566, 10835, -5119, -11117, -1113, 2594, -1619, -1159, -98, 71, 11, 902, 242, 281, 1000, 190, 334, 961, 348
274438391, 10835, -5119, -11117, -1113, 2594, -1619, -1159, -98, 71, 11, 902, 242, 281, 1000, 190, 334, 961, 348
274439194, 10835, -5119, -11117, -1113, 2594, -1619, -1159, -98, 71, 11, 902, 242, 281, 1000, 190, 334, 961, 348
274443446, 10835, -5119, -11117, -1113, 2594, -1619, -1159, -98, 71, 11, 902, 242, 281, 1000, 190, 334, 961, 348
274444387, 10789, -5174, -11143, -1051, 2529, -1578, -1205, 75, 49, 17, 902, 242, 281, 1000, 190, 334, 961, 348
274445176, 10789, -5174, -11143, -1051, 2529, -1578, -1205, 75, 49, 17, 826, 163, 293, 987, 183, 304, 967, 348
274451906, 10789, -5174, -11143, -1051, 2529, -1578, -1205, 75, 49, 17, 826, 163, 293, 987, 183, 304, 967, 348
274452720, 10789, -5174, -11143, -1051, 2529, -1578, -1205, 75, 49, 17, 826, 163, 293, 987, 183, 304, 967, 348
274453522, 10789, -5174, -11143, -1051, 2529, -1578, -1205, 75, 49, 17, 826, 163, 293, 987, 183, 304, 967, 348
274454359, 10789, -5174, -11143, -1051, 2529, -1578, -1205, 75, 49, 17, 826, 163, 293, 987, 183, 304, 967, 348
274459301, 10789, -5174, -11143, -1051, 2529, -1578, -1205, 75, 49, 17, 826, 163, 293, 987, 183, 304, 967, 348
274460096, 10789, -5174, -11143, -1051, 2529, -1578, -1205, 75, 49, 17, 826, 163, 293, 987, 183, 304, 967, 348
274460916, 10789, -5174, -11143, -1051, 2529, -1578, -1205, 75, 49, 17, 826, 163, 293, 987, 183, 304, 967, 348
274461741, 10789, -5174, -11143, -1051, 2529, -1578, -1205, 75, 49, 17, 826, 163, 293, 987, 183, 304, 967, 348
274466936, 10735, -5229, -11175, -988, 2481, -1533, -1238, 70, 8, 32, 826, 163, 293, 987, 183, 304, 967, 348
274467746, 10735, -5229, -11175, -988, 2481, -1533, -1238, 70, 8, 32, 880, 120, 271, 835, 197, 251, 949, 350
274468546, 10735, -5229, -11175, -988, 2481, -1533, -1238, 70, 8, 32, 880, 120, 271, 835, 197, 251, 949, 350
274469367, 10735, -5229, -11175, -988, 2481, -1533, -1238, 70, 8, 32, 880, 120, 271, 835, 197, 251, 949, 350
274474306, 10735, -5229, -11175, -988, 2481, -1533, -1238, 70, 8, 32, 880, 120, 271, 835, 197, 251, 949, 350
274475076, 10735, -5229, -11175, -988, 2481, -1533, -1238, 70, 8, 32, 880, 120, 271, 835, 197, 251, 949, 350
274475896, 10735, -5229, -11175, -988, 2481, -1533, -1238, 70, 8, 32, 880, 120, 271, 835, 197, 251, 949, 350
274476692, 10735, -5229, -11175, -988, 2481, -1533, -1238, 70, 8, 32, 880, 120, 271, 835, 197, 251, 949, 350
274481766, 10735, -5229, -11175, -988, 2481, -1533, -1238, 70, 8, 32, 880, 120, 271, 835, 197, 251, 949, 350
274482719, 10669, -5291, -11212, -953, 2522, -1461, -1283, -78, -17, 3, 880, 120, 271, 835, 197, 251, 949, 350
274483517, 10669, -5291, -11212, -953, 2522, -1461, -1283, -78, -17, 3, 809, 113, 246, 704, 181, 269, 855, 296
274484346, 10669, -5291, -11212, -953, 2522, -1461, -1283, -78, -17, 3, 809, 113, 246, 704, 181, 269, 855, 296
274489342, 10669, -5291, -11212, -953, 2522, -1461, -1283, -78, -17, 3, 809, 113, 246, 704, 181, 269, 855, 296
274490168, 10669, -5291, -11212, -953, 2522, -1461, -1283, -78, -17, 3, 809, 113, 246, 704, 181, 269, 855, 296
274490965, 10669, -5291, -11212, -953, 2522, -1461, -1283, -78, -17, 3, 809, 113, 246, 704, 181, 269, 855, 296
274491790, 10669, -5291, -11212, -953, 2522, -1461, -1283, -78, -17, 3, 809, 113, 246, 704, 181, 269, 855, 296
274496798, 10669, -5291, -11212, -953, 2522, -1461, -1283, -78, -17, 3, 809, 113, 246, 704, 181, 269, 855, 296
274497618, 10669, -5291, -11212, -953, 2522, -1461, -1283, -78, -17, 3, 809, 113, 246, 704, 181, 269, 855, 296
274498415, 10669, -5291, -11212, -953, 2522, -1461, -1283, -78, -17, 3, 809, 113, 246, 704, 181, 269, 855, 296
274499290, 10669, -5291, -11212, -953, 2522, -1461, -1283, -78, -17, 3, 809, 113, 246, 704, 181, 269, 855, 296
274504318, 10669, -5291, -11212, -953, 2522, -1461, -1283, -78, -17, 3, 809, 113, 246, 704, 181, 269, 855, 296
274505294, 10603, -5379, -11233, -949, 2510, -1550, -1173, -324, 25, -29, 809, 113, 246, 704, 181, 269, 855, 296
274506046, 10603, -5379, -11233, -949, 2510, -1550, -1173, -324, 25, -29, 792, 107, 243, 641, 192, 355, 876, 338
274506865, 10603, -5379, -11233, -949, 2510, -1550, -1173, -324, 25, -29, 792, 107, 243, 641, 192, 355, 876, 338
274511891, 10603, -5379, -11233, -949, 2510, -1550, -1173, -324, 25, -29, 792, 107, 243, 641, 192, 355, 876, 338
274512699, 10603, -5379, -11233, -949, 2510, -1550, -1173, -324, 25, -29, 792, 107, 243, 641, 192, 355, 876, 338
274513520, 10603, -5379, -11233, -949, 2510, -1550, -1173, -324, 25, -29, 792, 107, 243, 641, 192, 355, 876, 338
274514321, 10603, -5379, -11233, -949, 2510, -1550, -1173, -324, 25, -29, 792, 107, 243, 641, 192, 355, 876, 338
274526747, 10603, -5379, -11233, -949, 2510, -1550, -1173, -324, 25, -29, 792, 107, 243, 641, 192, 355, 876, 338
274527573, 10603, -5379, -11233, -949, 2510, -1550, -1173, -324, 25, -29, 792, 107, 243, 641, 192, 355, 876, 338
274528374, 10603, -5379, -11233, -949, 2510, -1550, -1173, -324, 25, -29, 792, 107, 243, 641, 192, 355, 876, 338
274529197, 10603, -5379, -11233, -949, 2510, -1550, -1173, -324, 25, -29, 792, 107, 243, 641, 192, 355, 876, 338
274534317, 10603, -5379, -11233, -949, 2510, -1550, -1173, -324, 25, -29, 792, 107, 243, 641, 192, 355, 876, 338
274535294, 10550, -5457, -11247, -936, 2465, -1629, -1128, -256, 47, -53, 792, 107, 243, 641, 192, 355, 876, 338
274536073, 10550, -5457, -11247, -936, 2465, -1629, -1128, -256, 47, -53, 794, 90, 269, 715, 181, 376, 914, 346
274536890, 10550, -5457, -11247, -936, 2465, -1629, -1128, -256, 47, -53, 794, 90, 269, 715, 181, 376, 914, 346
274541890, 10550, -5457, -11247, -936, 2465, -1629, -1128, -256, 47, -53, 794, 90, 269, 715, 181, 376, 914, 346
274542723, 10550, -5457, -11247, -936, 2465, -1629, -1128, -256, 47, -53, 794, 90, 269, 715, 181, 376, 914, 346
274543519, 10550, -5457, -11247, -936, 2465, -1629, -1128, -256, 47, -53, 794, 90, 269, 715, 181, 376, 914, 346
274544346, 10550, -5457, -11247, -936, 2465, -1629, -1128, -256, 47, -53, 794, 90, 269, 715, 181, 376, 914, 346
274549291, 10550, -5457, -11247, -936, 2465, -1629, -1128, -256, 47, -53, 794, 90, 269, 715, 181, 376, 914, 346
274550093, 10550, -5457, -11247, -936, 2465, -1629, -1128, -256, 47, -53, 794, 90, 269, 715, 181, 376, 914, 346
274550915, 10550, -5457, -11247, -936, 2465, -1629, -1128, -256, 47, -53, 794, 90, 269, 715, 181, 376, 914, 346
274551716, 10550, -5457, -11247, -936, 2465, -1629, -1128, -256, 47, -53, 794, 90, 269, 715, 181, 376, 914, 346
274556796, 10550, -5457, -11247, -936, 2465, -1629, -1128, -256, 47, -53, 794, 90, 269, 715, 181, 376, 914, 346
274557758, 10507, -5499, -11270, -886, 2509, -1601, -1174, 48, 5, -35, 794, 90, 269, 715, 181, 376, 914, 346
274558546, 10507, -5499, -11270, -886, 2509, -1601, -1174, 48, 5, -35, 851, 75, 257, 680, 185, 370, 908, 385
274559366, 10507, -5499, -11270, -886, 2509, -1601, -1174, 48, 5, -35, 851, 75, 257, 680, 185, 370, 908, 385
274564371, 10507, -5499, -11270, -886, 2509, -1601, -1174, 48, 5, -35, 851, 75, 257, 680, 185, 370, 908, 385
274565170, 10507, -5499, -11270, -886, 2509, -1601, -1174, 48, 5, -35, 851, 75, 257, 680, 185, 370, 908, 385
274565991, 10507, -5499, -11270, -886, 2509, -1601, -1174, 48, 5, -35, 851, 75, 257, 680, 185, 370, 908, 385
274566815, 10507, -5499, -11270, -886, 2509, -1601, -1174, 48, 5, -35, 851, 75, 257, 680, 185, 370, 908, 385
274571771, 10507, -5499, -11270, -886, 2509, -1601, -1174, 48, 5, -35, 851, 75, 257, 680, 185, 370, 908, 385
274572572, 10507, -5499, -11270, -886, 2509, -1601, -1174, 48, 5, -35, 851, 75, 257, 680, 185, 370, 908, 385
274573392, 10507, -5499, -11270, -886, 2509, -1601, -1174, 48, 5, -35, 851, 75, 257, 680, 185, 370, 908, 385
274574203, 10507, -5499, -11270, -886, 2509, -1601, -1174, 48, 5, -35, 851, 75, 257, 680, 185, 370, 908, 385
274579297, 10507, -5499, -11270, -886, 2509, -1601, -1174, 48, 5, -35, 851, 75, 257, 680, 185, 370, 908, 385
274580295, 10468, -5521, -11302, -819, 2589, -1513, -1229, 213, -27, 6, 851, 75, 257, 680, 185, 370, 908, 385
274580971, 10468, -5521, -11302, -819, 2589, -1513, -1229, 213, -27, 6, 858, 63, 273, 613, 155, 365, 836, 383
274581841, 10468, -5521, -11302, -819, 2589, -1513, -1229, 213, -27, 6, 858, 63, 273, 613, 155, 365, 836, 383
274586847, 10468, -5521, -11302, -819, 2589, -1513, -1229, 213, -27, 6, 858, 63, 273, 613, 155, 365, 836, 383
274587674, 10468, -5521, -11302, -819, 2589, -1513, -1229, 213, -27, 6, 858, 63, 273, 613, 155, 365, 836, 383
274588467, 10468, -5521, -11302, -819, 2589, -1513, -1229, 213, -27, 6, 858, 63, 273, 613, 155, 365, 836, 383
274589291, 10468, -5521, -11302, -819, 2589, -1513, -1229, 213, -27, 6, 858, 63, 273, 613, 155, 365, 836, 383
274594294, 10468, -5521, -11302, -819, 2589, -1513, -1229, 213, -27, 6, 858, 63, 273, 613, 155, 365, 836, 383
274595046, 10468, -5521, -11302, -819, 2589, -1513, -1229, 213, -27, 6, 858, 63, 273, 613, 155, 365, 836, 383
274595866, 10468, -5521, -11302, -819, 2589, -1513, -1229, 213, -27, 6, 858, 63, 273, 613, 155, 365, 836, 383
274596671, 10468, -5521, -11302, -819, 2589, -1513, -1229, 213, -27, 6, 858, 63, 273, 613, 155, 365, 836, 383
274601818, 10468, -5521, -11302, -819, 2589, -1513, -1229, 213, -27, 6, 858, 63, 273, 613, 155, 365, 836, 383
274602745, 10426, -5546, -11332, -751, 2524, -1485, -1241, 199, -31, 36, 858, 63, 273, 613, 155, 365, 836, 383
274603566, 10426, -5546, -11332, -751, 2524, -1485, -1241, 199, -31, 36, 854, 67, 286, 632, 147, 361, 799, 373
274604378, 10426, -5546, -11332, -751, 2524, -1485, -1241, 199, -31, 36, 854, 67, 286, 632, 147, 361, 799, 373
274609394, 10426, -5546, -11332, -751, 2524, -1485, -1241, 199, -31, 36, 854, 67, 286, 632, 147, 361, 799, 373
274610194, 10426, -5546, -11332, -751, 2524, -1485, -1241, 199, -31, 36, 854, 67, 286, 632, 147, 361, 799, 373
274611015, 10426, -5546, -11332, -751, 2524, -1485, -1241, 199, -31, 36, 854, 67, 286, 632, 147, 361, 799, 373
274611816, 10426, -5546, -11332, -751, 2524, -1485, -1241, 199, -31, 36, 854, 67, 286, 632, 147, 361, 799, 373
274616767, 10426, -5546, -11332, -751, 2524, -1485, -1241, 199, -31, 36, 854, 67, 286, 632, 147, 361, 799, 373
274617591, 10426, -5546, -11332, -751, 2524, -1485, -1241, 199, -31, 36, 854, 67, 286, 632, 147, 361, 799, 373
274618415, 10426, -5546, -11332, -751, 2524, -1485, -1241, 199, -31, 36, 854, 67, 286, 632, 147, 361, 799, 373
274619290, 10426, -5546, -11332, -751, 2524, -1485, -1241, 199, -31, 36, 854, 67, 286, 632, 147, 361, 799, 373
274624292, 10426, -5546, -11332, -751, 2524, -1485, -1241, 199, -31, 36, 854, 67, 286, 632, 147, 361, 799, 373
274625293, 10387, -5575, -11358, -688, 2565, -1492, -1236, 172, -27, 52, 854, 67, 286, 632, 147, 361, 799, 373
274625971, 10387, -5575, -11358, -688, 2565, -1492, -1236, 172, -27, 52, 853, 66, 296, 668, 140, 295, 725, 329
274626840, 10387, -5575, -11358, -688, 2565, -1492, -1236, 172, -27, 52, 853, 66, 296, 668, 140, 295, 725, 329
274631877, 10387, -5575, -11358, -688, 2565, -1492, -1236, 172, -27, 52, 853, 66, 296, 668, 140, 295, 725, 329
274632676, 10387, -5575, -11358, -688, 2565, -1492, -1236, 172, -27, 52, 853, 66, 296, 668, 140, 295, 725, 329
274633496, 10387, -5575, -11358, -688, 2565, -1492, -1236, 172, -27, 52, 853, 66, 296, 668, 140, 295, 725, 329
274634316, 10387, -5575, -11358, -688, 2565, -1492, -1236, 172, -27, 52, 853, 66, 296, 668, 140, 295, 725, 329
274639296, 10387, -5575, -11358, -688, 2565, -1492, -1236, 172, -27, 52, 853, 66, 296, 668, 140, 295, 725, 329
274640070, 10387, -5575, -11358, -688, 2565, -1492, -1236, 172, -27, 52, 853, 66, 296, 668, 140, 295, 725, 329
274640891, 10387, -5575, -11358, -688, 2565, -1492, -1236, 172, -27, 52, 853, 66, 296, 668, 140, 295, 725, 329
274641691, 10387, -5575, -11358, -688, 2565, -1492, -1236, 172, -27, 52, 853, 66, 296, 668, 140, 295, 725, 329
274646772, 10387, -5575, -11358, -688, 2565, -1492, -1236, 172, -27, 52, 853, 66, 296, 668, 140, 295, 725, 329
274647695, 10344, -5611, -11382, -640, 2544, -1490, -1207, 71, -27, 43, 853, 66, 296, 668, 140, 295, 725, 329
274648519, 10344, -5611, -11382, -640, 2544, -1490, -1207, 71, -27, 43, 852, 59, 285, 664, 170, 282, 541, 280
274649316, 10344, -5611, -11382, -640, 2544, -1490, -1207, 71, -27, 43, 852, 59, 285, 664, 170, 282, 541, 280
274654349, 10344, -5611, -11382, -640, 2544, -1490, -1207, 71, -27, 43, 852, 59, 285, 664, 170, 282, 541, 280
274655153, 10344, -5611, -11382, -640, 2544, -1490, -1207, 71, -27, 43, 852, 59, 285, 664, 170, 282, 541, 280
274655966, 10344, -5611, -11382, -640, 2544, -1490, -1207, 71, -27, 43, 852, 59, 285, 664, 170, 282, 541, 280
274656791, 10344, -5611, -11382, -640, 2544, -1490, -1207, 71, -27, 43, 852, 59, 285, 664, 170, 282, 541, 280
274661805, 10344, -5611, -11382, -640, 2544, -1490, -1207, 71, -27, 43, 852, 59, 285, 664, 170, 282, 541, 280
274662602, 10344, -5611, -11382, -640, 2544, -1490, -1207, 71, -27, 43, 852, 59, 285, 664, 170, 282, 541, 280
274663421, 10344, -5611, -11382, -640, 2544, -1490, -1207, 71, -27, 43, 852, 59, 285, 664, 170, 282, 541, 280
274664291, 10344, -5611, -11382, -640, 2544, -1490, -1207, 71, -27, 43, 852, 59, 285, 664, 170, 282, 541, 280
274669349, 10344, -5611, -11382, -640, 2544, -1490, -1207, 71, -27, 43, 852, 59, 285, 664, 170, 282, 541, 280
274670337, 10302, -5657, -11399, -602, 2509, -1544, -1151, -23, -17, 32, 852, 59, 285, 664, 170, 282, 541, 280
274671093, 10302, -5657, -11399, -602, 2509, -1544, -1151, -23, -17, 32, 779, 54, 299, 660, 165, 348, 495, 194
