Timestamp, Orientation x, Orientation y, Orientation z, Orientation w, Acceleration x, Acceleration y, Acceleration z, Rotation x, Rotation y, Rotation z, EMG 0, EMG 1, EMG 2, EMG 3, EMG 4, EMG 5, EMG 6, EMG 7
400114717, 9448, -2738, -11900, 5482, 1738, -1165, -604, 35, 45, 203, 0, 0, 0, 0, 0, 0, 0, 0
400122149, 9434, -2756, -11923, 5448, 1732, -1177, -563, -112, 50, 145, 0, 0, 0, 0, 0, 0, 0, 0
400137190, 9422, -2778, -11942, 5416, 1757, -1268, -565, -125, 68, 135, 0, 0, 0, 0, 0, 0, 0, 0
400152154, 9417, -2787, -11953, 5396, 1744, -1286, -581, -5, 95, 109, 0, 0, 0, 0, 0, 0, 0, 0
400174725, 9419, -2783, -11957, 5386, 1706, -1170, -570, 95, 109, 111, 0, 0, 0, 0, 0, 0, 0, 0
400182815, 9419, -2783, -11957, 5386, 1706, -1170, -570, 95, 109, 111, 47, 104, 303, 126, 46, 142, 63, 28
400183596, 9419, -2783, -11957, 5386, 1706, -1170, -570, 95, 109, 111, 47, 104, 303, 126, 46, 142, 63, 28
400197296, 9412, -2801, -11970, 5360, 1696, -1164, -573, -61, 100, 151, 47, 104, 303, 126, 46, 142, 63, 28
400205332, 9412, -2801, -11970, 5360, 1696, -1164, -573, -61, 100, 151, 76, 116, 303, 138, 50, 179, 74, 34
400206072, 9412, -2801, -11970, 5360, 1696, -1164, -573, -61, 100, 151, 76, 116, 303, 138, 50, 179, 74, 34
400229934, 9408, -2826, -11980, 5332, 1702, -1221, -523, -109, 113, 156, 76, 116, 303, 138, 50, 179, 74, 34
400230722, 9408, -2826, -11980, 5332, 1702, -1221, -523, -109, 113, 156, 79, 132, 269, 151, 48, 172, 71, 35
400231544, 9408, -2826, -11980, 5332, 1702, -1221, -523, -109, 113, 156, 79, 132, 269, 151, 48, 172, 71, 35
400232341, 9408, -2826, -11980, 5332, 1702, -1221, -523, -109, 113, 156, 79, 132, 269, 151, 48, 172, 71, 35
400237293, 9408, -2826, -11980, 5332, 1702, -1221, -523, -109, 113, 156, 79, 132, 269, 151, 48, 172, 71, 35
400238120, 9408, -2826, -11980, 5332, 1702, -1221, -523, -109, 113, 156, 79, 132, 269, 151, 48, 172, 71, 35
400238916, 9408, -2826, -11980, 5332, 1702, -1221, -523, -109, 113, 156, 79, 132, 269, 151, 48, 172, 71, 35
400239741, 9408, -2826, -11980, 5332, 1702, -1221, -523, -109, 113, 156, 79, 132, 269, 151, 48, 172, 71, 35
400244822, 9408, -2826, -11980, 5332, 1702, -1221, -523, -109, 113, 156, 79, 132, 269, 151, 48, 172, 71, 35
400245744, 9405, -2854, -11982, 5318, 1653, -1305, -522, -54, 136, 167, 79, 132, 269, 151, 48, 172, 71, 35
400246566, 9405, -2854, -11982, 5318, 1653, -1305, -522, -54, 136, 167, 80, 127, 293, 134, 51, 199, 75, 39
400247367, 9405, -2854, -11982, 5318, 1653, -1305, -522, -54, 136, 167, 80, 127, 293, 134, 51, 199, 75, 39
400252392, 9405, -2854, -11982, 5318, 1653, -1305, -522, -54, 136, 167, 80, 127, 293, 134, 51, 199, 75, 39
400253222, 9405, -2854, -11982, 5318, 1653, -1305, -522, -54, 136, 167, 80, 127, 293, 134, 51, 199, 75, 39
400254032, 9405, -2854, -11982, 5318, 1653, -1305, -522, -54, 136, 167, 80, 127, 293, 134, 51, 199, 75, 39
400254818, 9405, -2854, -11982, 5318, 1653, -1305, -522, -54, 136, 167, 80, 127, 293, 134, 51, 199, 75, 39
400259766, 9405, -2854, -11982, 5318, 1653, -1305, -522, -54, 136, 167, 80, 127, 293, 134, 51, 199, 75, 39
400260596, 9405, -2854, -11982, 5318, 1653, -1305, -522, -54, 136, 167, 80, 127, 293, 134, 51, 199, 75, 39
400261420, 9405, -2854, -11982, 5318, 1653, -1305, -522, -54, 136, 167, 80, 127, 293, 134, 51, 199, 75, 39
400262292, 9405, -2854, -11982, 5318, 1653, -1305, -522, -54, 136, 167, 80, 127, 293, 134, 51, 199, 75, 39
400267313, 9405, -2854, -11982, 5318, 1653, -1305, -522, -54, 136, 167, 80, 127, 293, 134, 51, 199, 75, 39
400268295, 9403, -2875, -11971, 5333, 1599, -1287, -511, 113, 142, 227, 80, 127, 293, 134, 51, 199, 75, 39
400268971, 9403, -2875, -11971, 5333, 1599, -1287, -511, 113, 142, 227, 77, 125, 319, 135, 55, 238, 84, 38
400269842, 9403, -2875, -11971, 5333, 1599, -1287, -511, 113, 142, 227, 77, 125, 319, 135, 55, 238, 84, 38
400274872, 9403, -2875, -11971, 5333, 1599, -1287, -511, 113, 142, 227, 77, 125, 319, 135, 55, 238, 84, 38
400275669, 9403, -2875, -11971, 5333, 1599, -1287, -511, 113, 142, 227, 77, 125, 319, 135, 55, 238, 84, 38
400276491, 9403, -2875, -11971, 5333, 1599, -1287, -511, 113, 142, 227, 77, 125, 319, 135, 55, 238, 84, 38
400277316, 9403, -2875, -11971, 5333, 1599, -1287, -511, 113, 142, 227, 77, 125, 319, 135, 55, 238, 84, 38
400282298, 9403, -2875, -11971, 5333, 1599, -1287, -511, 113, 142, 227, 77, 125, 319, 135, 55, 238, 84, 38
400283069, 9403, -2875, -11971, 5333, 1599, -1287, -511, 113, 142, 227, 77, 125, 319, 135, 55, 238, 84, 38
400283901, 9403, -2875, -11971, 5333, 1599, -1287, -511, 113, 142, 227, 77, 125, 319, 135, 55, 238, 84, 38
400284700, 9403, -2875, -11971, 5333, 1599, -1287, -511, 113, 142, 227, 77, 125, 319, 135, 55, 238, 84, 38
400289817, 9403, -2875, -11971, 5333, 1599, -1287, -511, 113, 142, 227, 77, 125, 319, 135, 55, 238, 84, 38
400290770, 9408, -2891, -11960, 5342, 1599, -1175, -518, 119, 167, 228, 77, 125, 319, 135, 55, 238, 84, 38
400291567, 9408, -2891, -11960, 5342, 1599, -1175, -518, 119, 167, 228, 77, 128, 322, 144, 56, 272, 85, 42
400292396, 9408, -2891, -11960, 5342, 1599, -1175, -518, 119, 167, 228, 77, 128, 322, 144, 56, 272, 85, 42
400297391, 9408, -2891, -11960, 5342, 1599, -1175, -518, 119, 167, 228, 77, 128, 322, 144, 56, 272, 85, 42
400298291, 9408, -2891, -11960, 5342, 1599, -1175, -518, 119, 167, 228, 77, 128, 322, 144, 56, 272, 85, 42
400298969, 9408, -2891, -11960, 5342, 1599, -1175, -518, 119, 167, 228, 77, 128, 322, 144, 56, 272, 85, 42
400299840, 9408, -2891, -11960, 5342, 1599, -1175, -518, 119, 167, 228, 77, 128, 322, 144, 56, 272, 85, 42
400304798, 9408, -2891, -11960, 5342, 1599, -1175, -518, 119, 167, 228, 77, 128, 322, 144, 56, 272, 85, 42
400305616, 9408, -2891, -11960, 5342, 1599, -1175, -518, 119, 167, 228, 77, 128, 322, 144, 56, 272, 85, 42
400306416, 9408, -2891, -11960, 5342, 1599, -1175, -518, 119, 167, 228, 77, 128, 322, 144, 56, 272, 85, 42
400307290, 9408, -2891, -11960, 5342, 1599, -1175, -518, 119, 167, 228, 77, 128, 322, 144, 56, 272, 85, 42
400312292, 9408, -2891, -11960, 5342, 1599, -1175, -518, 119, 167, 228, 77, 128, 322, 144, 56, 272, 85, 42
400313293, 9405, -2930, -11948, 5353, 1521, -1180, -508, 46, 182, 310, 77, 128, 322, 144, 56, 272, 85, 42
400314046, 9405, -2930, -11948, 5353, 1521, -1180, -508, 46, 182, 310, 56, 126, 316, 133, 55, 260, 78, 41
400314866, 9405, -2930, -11948, 5353, 1521, -1180, -508, 46, 182, 310, 56, 126, 316, 133, 55, 260, 78, 41
400319865, 9405, -2930, -11948, 5353, 1521, -1180, -508, 46, 182, 310, 56, 126, 316, 133, 55, 260, 78, 41
400320694, 9405, -2930, -11948, 5353, 1521, -1180, -508, 46, 182, 310, 56, 126, 316, 133, 55, 260, 78, 41
400321517, 9405, -2930, -11948, 5353, 1521, -1180, -508, 46, 182, 310, 56, 126, 316, 133, 55, 260, 78, 41
400322455, 9405, -2930, -11948, 5353, 1521, -1180, -508, 46, 182, 310, 56, 126, 316, 133, 55, 260, 78, 41
400327296, 9405, -2930, -11948, 5353, 1521, -1180, -508, 46, 182, 310, 56, 126, 316, 133, 55, 260, 78, 41
400328096, 9405, -2930, -11948, 5353, 1521, -1180, -508, 46, 182, 310, 56, 126, 316, 133, 55, 260, 78, 41
400328891, 9405, -2930, -11948, 5353, 1521, -1180, -508, 46, 182, 310, 56, 126, 316, 133, 55, 260, 78, 41
400329716, 9405, -2930, -11948, 5353, 1521, -1180, -508, 46, 182, 310, 56, 126, 316, 133, 55, 260, 78, 41
400334793, 9405, -2930, -11948, 5353, 1521, -1180, -508, 46, 182, 310, 56, 126, 316, 133, 55, 260, 78, 41
400335720, 9399, -2979, -11934, 5366, 1465, -1209, -533, 30, 207, 346, 56, 126, 316, 133, 55, 260, 78, 41
400336541, 9399, -2979, -11934, 5366, 1465, -1209, -533, 30, 207, 346, 67, 133, 303, 130, 57, 247, 77, 49
400337357, 9399, -2979, -11934, 5366, 1465, -1209, -533, 30, 207, 346, 67, 133, 303, 130, 57, 247, 77, 49
400342347, 9399, -2979, -11934, 5366, 1465, -1209, -533, 30, 207, 346, 67, 133, 303, 130, 57, 247, 77, 49
400343170, 9399, -2979, -11934, 5366, 1465, -1209, -533, 30, 207, 346, 67, 133, 303, 130, 57, 247, 77, 49
400343994, 9399, -2979, -11934, 5366, 1465, -1209, -533, 30, 207, 346, 67, 133, 303, 130, 57, 247, 77, 49
400344790, 9399, -2979, -11934, 5366, 1465, -1209, -533, 30, 207, 346, 67, 133, 303, 130, 57, 247, 77, 49
400349741, 9399, -2979, -11934, 5366, 1465, -1209, -533, 30, 207, 346, 67, 133, 303, 130, 57, 247, 77, 49
400350565, 9399, -2979, -11934, 5366, 1465, -1209, -533, 30, 207, 346, 67, 133, 303, 130, 57, 247, 77, 49
400351365, 9399, -2979, -11934, 5366, 1465, -1209, -533, 30, 207, 346, 67, 133, 303, 130, 57, 247, 77, 49
400352193, 9399, -2979, -11934, 5366, 1465, -1209, -533, 30, 207, 346, 67, 133, 303, 130, 57, 247, 77, 49
400357332, 9399, -2979, -11934, 5366, 1465, -1209, -533, 30, 207, 346, 67, 133, 303, 130, 57, 247, 77, 49
400358307, 9414, -3030, -11905, 5376, 1489, -1187, -471, 42, 318, 339, 67, 133, 303, 130, 57, 247, 77, 49
400359074, 9414, -3030, -11905, 5376, 1489, -1187, -471, 42, 318, 339, 70, 133, 235, 135, 64, 232, 82, 48
400359890, 9414, -3030, -11905, 5376, 1489, -1187, -471, 42, 318, 339, 70, 133, 235, 135, 64, 232, 82, 48
400364898, 9414, -3030, -11905, 5376, 1489, -1187, -471, 42, 318, 339, 70, 133, 235, 135, 64, 232, 82, 48
400365702, 9414, -3030, -11905, 5376, 1489, -1187, -471, 42, 318, 339, 70, 133, 235, 135, 64, 232, 82, 48
400366517, 9414, -3030, -11905, 5376, 1489, -1187, -471, 42, 318, 339, 70, 133, 235, 135, 64, 232, 82, 48
400367341, 9414, -3030, -11905, 5376, 1489, -1187, -471, 42, 318, 339, 70, 133, 235, 135, 64, 232, 82, 48
400372291, 9414, -3030, -11905, 5376, 1489, -1187, -471, 42, 318, 339, 70, 133, 235, 135, 64, 232, 82, 48
400373102, 9414, -3030, -11905, 5376, 1489, -1187, -471, 42, 318, 339, 70, 133, 235, 135, 64, 232, 82, 48
400373919, 9414, -3030, -11905, 5376, 1489, -1187, -471, 42, 318, 339, 70, 133, 235, 135, 64, 232, 82, 48
400374715, 9414, -3030, -11905, 5376, 1489, -1187, -471, 42, 318, 339, 70, 133, 235, 135, 64, 232, 82, 48
400379820, 9414, -3030, -11905, 5376, 1489, -1187, -471, 42, 318, 339, 70, 133, 235, 135, 64, 232, 82, 48
400380777, 9425, -3085, -11873, 5396, 1469, -1241, -551, 102, 342, 374, 70, 133, 235, 135, 64, 232, 82, 48
400381576, 9425, -3085, -11873, 5396, 1469, -1241, -551, 102, 342, 374, 85, 135, 186, 140, 67, 198, 71, 51
400382418, 9425, -3085, -11873, 5396, 1469, -1241, -551, 102, 342, 374, 85, 135, 186, 140, 67, 198, 71, 51
400387458, 9425, -3085, -11873, 5396, 1469, -1241, -551, 102, 342, 374, 85, 135, 186, 140, 67, 198, 71, 51
400388189, 9425, -3085, -11873, 5396, 1469, -1241, -551, 102, 342, 374, 85, 135, 186, 140, 67, 198, 71, 51
400389014, 9425, -3085, -11873, 5396, 1469, -1241, -551, 102, 342, 374, 85, 135, 186, 140, 67, 198, 71, 51
400389819, 9425, -3085, -11873, 5396, 1469, -1241, -551, 102, 342, 374, 85, 135, 186, 140, 67, 198, 71, 51
400394773, 9425, -3085, -11873, 5396, 1469, -1241, -551, 102, 342, 374, 85, 135, 186, 140, 67, 198, 71, 51
400395567, 9425, -3085, -11873, 5396, 1469, -1241, -551, 102, 342, 374, 85, 135, 186, 140, 67, 198, 71, 51
400396391, 9425, -3085, -11873, 5396, 1469, -1241, -551, 102, 342, 374, 85, 135, 186, 140, 67, 198, 71, 51
400397194, 9425, -3085, -11873, 5396, 1469, -1241, -551, 102, 342, 374, 85, 135, 186, 140, 67, 198, 71, 51
400402332, 9425, -3085, -11873, 5396, 1469, -1241, -551, 102, 342, 374, 85, 135, 186, 140, 67, 198, 71, 51
400403311, 9450, -3137, -11834, 5409, 1438, -1155, -541, 118, 430, 351, 85, 135, 186, 140, 67, 198, 71, 51
400404050, 9450, -3137, -11834, 5409, 1438, -1155, -541, 118, 430, 351, 102, 135, 113, 128, 69, 156, 80, 51
400404858, 9450, -3137, -11834, 5409, 1438, -1155, -541, 118, 430, 351, 102, 135, 113, 128, 69, 156, 80, 51
400409844, 9450, -3137, -11834, 5409, 1438, -1155, -541, 118, 430, 351, 102, 135, 113, 128, 69, 156, 80, 51
400410668, 9450, -3137, -11834, 5409, 1438, -1155, -541, 118, 430, 351, 102, 135, 113, 128, 69, 156, 80, 51
400411466, 9450, -3137, -11834, 5409, 1438, -1155, -541, 118, 430, 351, 102, 135, 113, 128, 69, 156, 80, 51
400412290, 9450, -3137, -11834, 5409, 1438, -1155, -541, 118, 430, 351, 102, 135, 113, 128, 69, 156, 80, 51
400417306, 9450, -3137, -11834, 5409, 1438, -1155, -541, 118, 430, 351, 102, 135, 113, 128, 69, 156, 80, 51
400418052, 9450, -3137, -11834, 5409, 1438, -1155, -541, 118, 430, 351, 102, 135, 113, 128, 69, 156, 80, 51
400418867, 9450, -3137, -11834, 5409, 1438, -1155, -541, 118, 430, 351, 102, 135, 113, 128, 69, 156, 80, 51
400419706, 9450, -3137, -11834, 5409, 1438, -1155, -541, 118, 430, 351, 102, 135, 113, 128, 69, 156, 80, 51
400424823, 9450, -3137, -11834, 5409, 1438, -1155, -541, 118, 430, 351, 102, 135, 113, 128, 69, 156, 80, 51
400425745, 9477, -3195, -11799, 5404, 1473, -1198, -575, 29, 462, 308, 102, 135, 113, 128, 69, 156, 80, 51
400426566, 9477, -3195, -11799, 5404, 1473, -1198, -575, 29, 462, 308, 109, 121, 108, 152, 73, 142, 79, 55
400427366, 9477, -3195, -11799, 5404, 1473, -1198, -575, 29, 462, 308, 109, 121, 108, 152, 73, 142, 79, 55
400432392, 9477, -3195, -11799, 5404, 1473, -1198, -575, 29, 462, 308, 109, 121, 108, 152, 73, 142, 79, 55
400433194, 9477, -3195, -11799, 5404, 1473, -1198, -575, 29, 462, 308, 109, 121, 108, 152, 73, 142, 79, 55
400434016, 9477, -3195, -11799, 5404, 1473, -1198, -575, 29, 462, 308, 109, 121, 108, 152, 73, 142, 79, 55
400434837, 9477, -3195, -11799, 5404, 1473, -1198, -575, 29, 462, 308, 109, 121, 108, 152, 73, 142, 79, 55
400439771, 9477, -3195, -11799, 5404, 1473, -1198, -575, 29, 462, 308, 109, 121, 108, 152, 73, 142, 79, 55
400440592, 9477, -3195, -11799, 5404, 1473, -1198, -575, 29, 462, 308, 109, 121, 108, 152, 73, 142, 79, 55
400441415, 9477, -3195, -11799, 5404, 1473, -1198, -575, 29, 462, 308, 109, 121, 108, 152, 73, 142, 79, 55
400442290, 9477, -3195, -11799, 5404, 1473, -1198, -575, 29, 462, 308, 109, 121, 108, 152, 73, 142, 79, 55
400447301, 9477, -3195, -11799, 5404, 1473, -1198, -575, 29, 462, 308, 109, 121, 108, 152, 73, 142, 79, 55
400448297, 9493, -3267, -11763, 5411, 1378, -1204, -630, 50, 469, 394, 109, 121, 108, 152, 73, 142, 79, 55
400448972, 9493, -3267, -11763, 5411, 1378, -1204, -630, 50, 469, 394, 117, 81, 106, 218, 83, 143, 111, 63
400449841, 9493, -3267, -11763, 5411, 1378, -1204, -630, 50, 469, 394, 117, 81, 106, 218, 83, 143, 111, 63
400454870, 9493, -3267, -11763, 5411, 1378, -1204, -630, 50, 469, 394, 117, 81, 106, 218, 83, 143, 111, 63
400455667, 9493, -3267, -11763, 5411, 1378, -1204, -630, 50, 469, 394, 117, 81, 106, 218, 83, 143, 111, 63
400456491, 9493, -3267, -11763, 5411, 1378, -1204, -630, 50, 469, 394, 117, 81, 106, 218, 83, 143, 111, 63
400457314, 9493, -3267, -11763, 5411, 1378, -1204, -630, 50, 469, 394, 117, 81, 106, 218, 83, 143, 111, 63
400462329, 9493, -3267, -11763, 5411, 1378, -1204, -630, 50, 469, 394, 117, 81, 106, 218, 83, 143, 111, 63
400463089, 9493, -3267, -11763, 5411, 1378, -1204, -630, 50, 469, 394, 117, 81, 106, 218, 83, 143, 111, 63
400463896, 9493, -3267, -11763, 5411, 1378, -1204, -630, 50, 469, 394, 117, 81, 106, 218, 83, 143, 111, 63
400464692, 9493, -3267, -11763, 5411, 1378, -1204, -630, 50, 469, 394, 117, 81, 106, 218, 83, 143, 111, 63
400469769, 9493, -3267, -11763, 5411, 1378, -1204, -630, 50, 469, 394, 117, 81, 106, 218, 83, 143, 111, 63
400470695, 9503, -3334, -11737, 5411, 1330, -1174, -683, 39, 428, 346, 117, 81, 106, 218, 83, 143, 111, 63
400471517, 9503, -3334, -11737, 5411, 1330, -1174, -683, 39, 428, 346, 179, 74, 112, 237, 78, 146, 124, 68
400472342, 9503, -3334, -11737, 5411, 1330, -1174, -683, 39, 428, 346, 179, 74, 112, 237, 78, 146, 124, 68
400477347, 9503, -3334, -11737, 5411, 1330, -1174, -683, 39, 428, 346, 179, 74, 112, 237, 78, 146, 124, 68
400478144, 9503, -3334, -11737, 5411, 1330, -1174, -683, 39, 428, 346, 179, 74, 112, 237, 78, 146, 124, 68
400478966, 9503, -3334, -11737, 5411, 1330, -1174, -683, 39, 428, 346, 179, 74, 112, 237, 78, 146, 124, 68
400479791, 9503, -3334, -11737, 5411, 1330, -1174, -683, 39, 428, 346, 179, 74, 112, 237, 78, 146, 124, 68
400484796, 9503, -3334, -11737, 5411, 1330, -1174, -683, 39, 428, 346, 179, 74, 112, 237, 78, 146, 124, 68
400485737, 9503, -3334, -11737, 5411, 1330, -1174, -683, 39, 428, 346, 179, 74, 112, 237, 78, 146, 124, 68
400486425, 9503, -3334, -11737, 5411, 1330, -1174, -683, 39, 428, 346, 179, 74, 112, 237, 78, 146, 124, 68
400487293, 9503, -3334, -11737, 5411, 1330, -1174, -683, 39, 428, 346, 179, 74, 112, 237, 78, 146, 124, 68
400492305, 9503, -3334, -11737, 5411, 1330, -1174, -683, 39, 428, 346, 179, 74, 112, 237, 78, 146, 124, 68
400493302, 9506, -3392, -11716, 5413, 1326, -1202, -753, 83, 391, 320, 179, 74, 112, 237, 78, 146, 124, 68
400494053, 9506, -3392, -11716, 5413, 1326, -1202, -753, 83, 391, 320, 179, 77, 122, 435, 129, 146, 139, 71
400494868, 9506, -3392, -11716, 5413, 1326, -1202, -753, 83, 391, 320, 179, 77, 122, 435, 129, 146, 139, 71
400507372, 9506, -3392, -11716, 5413, 1326, -1202, -753, 83, 391, 320, 179, 77, 122, 435, 129, 146, 139, 71
400508196, 9506, -3392, -11716, 5413, 1326, -1202, -753, 83, 391, 320, 179, 77, 122, 435, 129, 146, 139, 71
400508991, 9506, -3392, -11716, 5413, 1326, -1202, -753, 83, 391, 320, 179, 77, 122, 435, 129, 146, 139, 71
400509815, 9506, -3392, -11716, 5413, 1326, -1202, -753, 83, 391, 320, 179, 77, 122, 435, 129, 146, 139, 71
400514765, 9506, -3392, -11716, 5413, 1326, -1202, -753, 83, 391, 320, 179, 77, 122, 435, 129, 146, 139, 71
400515566, 9506, -3392, -11716, 5413, 1326, -1202, -753, 83, 391, 320, 179, 77, 122, 435, 129, 146, 139, 71
400516390, 9506, -3392, -11716, 5413, 1326, -1202, -753, 83, 391, 320, 179, 77, 122, 435, 129, 146, 139, 71
400517292, 9506, -3392, -11716, 5413, 1326, -1202, -753, 83, 391, 320, 179, 77, 122, 435, 129, 146, 139, 71
400522302, 9506, -3392, -11716, 5413, 1326, -1202, -753, 83, 391, 320, 179, 77, 122, 435, 129, 146, 139, 71
400523297, 9512, -3421, -11698, 5423, 1380, -1079, -791, 229, 345, 289, 179, 77, 122, 435, 129, 146, 139, 71
400523972, 9512, -3421, -11698, 5423, 1380, -1079, -791, 229, 345, 289, 181, 99, 154, 631, 173, 145, 179, 75
400524840, 9512, -3421, -11698, 5423, 1380, -1079, -791, 229, 345, 289, 181, 99, 154, 631, 173, 145, 179, 75
400529852, 9512, -3421, -11698, 5423, 1380, -1079, -791, 229, 345, 289, 181, 99, 154, 631, 173, 145, 179, 75
400530669, 9512, -3421, -11698, 5423, 1380, -1079, -791, 229, 345, 289, 181, 99, 154, 631, 173, 145, 179, 75
400531465, 9512, -3421, -11698, 5423, 1380, -1079, -791, 229, 345, 289, 181, 99, 154, 631, 173, 145, 179, 75
400532291, 9512, -3421, -11698, 5423, 1380, -1079, -791, 229, 345, 289, 181, 99, 154, 631, 173, 145, 179, 75
400537292, 9512, -3421, -11698, 5423, 1380, -1079, -791, 229, 345, 289, 181, 99, 154, 631, 173, 145, 179, 75
400538044, 9512, -3421, -11698, 5423, 1380, -1079, -791, 229, 345, 289, 181, 99, 154, 631, 173, 145, 179, 75
400538865, 9512, -3421, -11698, 5423, 1380, -1079, -791, 229, 345, 289, 181, 99, 154, 631, 173, 145, 179, 75
400539691, 9512, -3421, -11698, 5423, 1380, -1079, -791, 229, 345, 289, 181, 99, 154, 631, 173, 145, 179, 75
400544827, 9512, -3421, -11698, 5423, 1380, -1079, -791, 229, 345, 289, 181, 99, 154, 631, 173, 145, 179, 75
400545746, 9526, -3419, -11693, 5411, 1376, -860, -810, 254, 308, 146, 181, 99, 154, 631, 173, 145, 179, 75
400546566, 9526, -3419, -11693, 5411, 1376, -860, -810, 254, 308, 146, 179, 166, 167, 816, 254, 209, 305, 81
400547366, 9526, -3419, -11693, 5411, 1376, -860, -810, 254, 308, 146, 179, 166, 167, 816, 254, 209, 305, 81
400552399, 9526, -3419, -11693, 5411, 1376, -860, -810, 254, 308, 146, 179, 166, 167, 816, 254, 209, 305, 81
400553197, 9526, -3419, -11693, 5411, 1376, -860, -810, 254, 308, 146, 179, 166, 167, 816, 254, 209, 305, 81
400554043, 9526, -3419, -11693, 5411, 1376, -860, -810, 254, 308, 146, 179, 166, 167, 816, 254, 209, 305, 81
400554824, 9526, -3419, -11693, 5411, 1376, -860, -810, 254, 308, 146, 179, 166, 167, 816, 254, 209, 305, 81
400559787, 9526, -3419, -11693, 5411, 1376, -860, -810, 254, 308, 146, 179, 166, 167, 816, 254, 209, 305, 81
400560606, 9526, -3419, -11693, 5411, 1376, -860, -810, 254, 308, 146, 179, 166, 167, 816, 254, 209, 305, 81
400561425, 9526, -3419, -11693, 5411, 1376, -860, -810, 254, 308, 146, 179, 166, 167, 816, 254, 209, 305, 81
400562300, 9526, -3419, -11693, 5411, 1376, -860, -810, 254, 308, 146, 179, 166, 167, 816, 254, 209, 305, 81
400567319, 9526, -3419, -11693, 5411, 1376, -860, -810, 254, 308, 146, 179, 166, 167, 816, 254, 209, 305, 81
400568308, 9516, -3425, -11710, 5389, 1312, -936, -871, 133, 197, 106, 179, 166, 167, 816, 254, 209, 305, 81
400568982, 9516, -3425, -11710, 5389, 1312, -936, -871, 133, 197, 106, 209, 382, 343, 1004, 330, 304, 463, 121
400569876, 9516, -3425, -11710, 5389, 1312, -936, -871, 133, 197, 106, 209, 382, 343, 1004, 330, 304, 463, 121
400574896, 9516, -3425, -11710, 5389, 1312, -936, -871, 133, 197, 106, 209, 382, 343, 1004, 330, 304, 463, 121
400575684, 9516, -3425, -11710, 5389, 1312, -936, -871, 133, 197, 106, 209, 382, 343, 1004, 330, 304, 463, 121
400576503, 9516, -3425, -11710, 5389, 1312, -936, -871, 133, 197, 106, 209, 382, 343, 1004, 330, 304, 463, 121
400577331, 9516, -3425, -11710, 5389, 1312, -936, -871, 133, 197, 106, 209, 382, 343, 1004, 330, 304, 463, 121
400582320, 9516, -3425, -11710, 5389, 1312, -936, -871, 133, 197, 106, 209, 382, 343, 1004, 330, 304, 463, 121
400583080, 9516, -3425, -11710, 5389, 1312, -936, -871, 133, 197, 106, 209, 382, 343, 1004, 330, 304, 463, 121
400583906, 9516, -3425, -11710, 5389, 1312, -936, -871, 133, 197, 106, 209, 382, 343, 1004, 330, 304, 463, 121
400584703, 9516, -3425, -11710, 5389, 1312, -936, -871, 133, 197, 106, 209, 382, 343, 1004, 330, 304, 463, 121
400589772, 9516, -3425, -11710, 5389, 1312, -936, -871, 133, 197, 106, 209, 382, 343, 1004, 330, 304, 463, 121
400590698, 9468, -3423, -11753, 5380, 1179, -872, -972, 160, -35, 133, 209, 382, 343, 1004, 330, 304, 463, 121
400591518, 9468, -3423, -11753, 5380, 1179, -872, -972, 160, -35, 133, 173, 582, 451, 1171, 578, 487, 681, 158
400592341, 9468, -3423, -11753, 5380, 1179, -872, -972, 160, -35, 133, 173, 582, 451, 1171, 578, 487, 681, 158
400597348, 9468, -3423, -11753, 5380, 1179, -872, -972, 160, -35, 133, 173, 582, 451, 1171, 578, 487, 681, 158
400598148, 9468, -3423, -11753, 5380, 1179, -872, -972, 160, -35, 133, 173, 582, 451, 1171, 578, 487, 681, 158
400598967, 9468, -3423, -11753, 5380, 1179, -872, -972, 160, -35, 133, 173, 582, 451, 1171, 578, 487, 681, 158
400599792, 9468, -3423, -11753, 5380, 1179, -872, -972, 160, -35, 133, 173, 582, 451, 1171, 578, 487, 681, 158
400604747, 9468, -3423, -11753, 5380, 1179, -872, -972, 160, -35, 133, 173, 582, 451, 1171, 578, 487, 681, 158
400605542, 9468, -3423, -11753, 5380, 1179, -872, -972, 160, -35, 133, 173, 582, 451, 1171, 578, 487, 681, 158
400606365, 9468, -3423, -11753, 5380, 1179, -872, -972, 160, -35, 133, 173, 582, 451, 1171, 578, 487, 681, 158
400607172, 9468, -3423, -11753, 5380, 1179, -872, -972, 160, -35, 133, 173, 582, 451, 1171, 578, 487, 681, 158
400612303, 9468, -3423, -11753, 5380, 1179, -872, -972, 160, -35, 133, 173, 582, 451, 1171, 578, 487, 681, 158
400613295, 9403, -3408, -11813, 5371, 1299, -919, -944, 129, -204, 117, 173, 582, 451, 1171, 578, 487, 681, 158
400614046, 9403, -3408, -11813, 5371, 1299, -919, -944, 129, -204, 117, 342, 779, 637, 1242, 596, 622, 1013, 266
400614866, 9403, -3408, -11813, 5371, 1299, -919, -944, 129, -204, 117, 342, 779, 637, 1242, 596, 622, 1013, 266
400619873, 9403, -3408, -11813, 5371, 1299, -919, -944, 129, -204, 117, 342, 779, 637, 1242, 596, 622, 1013, 266
400620694, 9403, -3408, -11813, 5371, 1299, -919, -944, 129, -204, 117, 342, 779, 637, 1242, 596, 622, 1013, 266
400621516, 9403, -3408, -11813, 5371, 1299, -919, -944, 129, -204, 117, 342, 779, 637, 1242, 596, 622, 1013, 266
400622321, 9403, -3408, -11813, 5371, 1299, -919, -944, 129, -204, 117, 342, 779, 637, 1242, 596, 622, 1013, 266
400627295, 9403, -3408, -11813, 5371, 1299, -919, -944, 129, -204, 117, 342, 779, 637, 1242, 596, 622, 1013, 266
400628075, 9403, -3408, -11813, 5371, 1299, -919, -944, 129, -204, 117, 342, 779, 637, 1242, 596, 622, 1013, 266
400628891, 9403, -3408, -11813, 5371, 1299, -919, -944, 129, -204, 117, 342, 779, 637, 1242, 596, 622, 1013, 266
400629717, 9403, -3408, -11813, 5371, 1299, -919, -944, 129, -204, 117, 342, 779, 637, 1242, 596, 622, 1013, 266
400633229, 9403, -3408, -11813, 5371, 1299, -919, -944, 129, -204, 117, 342, 779, 637, 1242, 596, 622, 1013, 266
400634176, 9322, -3387, -11888, 5362, 1204, -936, -882, 67, -354, 64, 342, 779, 637, 1242, 596, 622, 1013, 266
400642354, 9322, -3387, -11888, 5362, 1204, -936, -882, 67, -354, 64, 519, 954, 749, 1425, 715, 733, 1175, 406
400643178, 9322, -3387, -11888, 5362, 1204, -936, -882, 67, -354, 64, 519, 954, 749, 1425, 715, 733, 1175, 406
400643974, 9322, -3387, -11888, 5362, 1204, -936, -882, 67, -354, 64, 519, 954, 749, 1425, 715, 733, 1175, 406
400644791, 9322, -3387, -11888, 5362, 1204, -936, -882, 67, -354, 64, 519, 954, 749, 1425, 715, 733, 1175, 406
400649749, 9322, -3387, -11888, 5362, 1204, -936, -882, 67, -354, 64, 519, 954, 749, 1425, 715, 733, 1175, 406
400650542, 9322, -3387, -11888, 5362, 1204, -936, -882, 67, -354, 64, 519, 954, 749, 1425, 715, 733, 1175, 406
400651365, 9322, -3387, -11888, 5362, 1204, -936, -882, 67, -354, 64, 519, 954, 749, 1425, 715, 733, 1175, 406
400652193, 9322, -3387, -11888, 5362, 1204, -936, -882, 67, -354, 64, 519, 954, 749, 1425, 715, 733, 1175, 406
400657325, 9322, -3387, -11888, 5362, 1204, -936, -882, 67, -354, 64, 519, 954, 749, 1425, 715, 733, 1175, 406
400658307, 9193, -3386, -12032, 5263, 1308, -1263, -772, -627, -693, -220, 519, 954, 749, 1425, 715, 733, 1175, 406
400659073, 9193, -3386, -12032, 5263, 1308, -1263, -772, -627, -693, -220, 543, 1000, 814, 1398, 726, 804, 1341, 561
400659867, 9193, -3386, -12032, 5263, 1308, -1263, -772, -627, -693, -220, 543, 1000, 814, 1398, 726, 804, 1341, 561
400664903, 9193, -3386, -12032, 5263, 1308, -1263, -772, -627, -693, -220, 543, 1000, 814, 1398, 726, 804, 1341, 561
400665696, 9193, -3386, -12032, 5263, 1308, -1263, -772, -627, -693, -220, 543, 1000, 814, 1398, 726, 804, 1341, 561
400666516, 9193, -3386, -12032, 5263, 1308, -1263, -772, -627, -693, -220, 543, 1000, 814, 1398, 726, 804, 1341, 561
400667316, 9193, -3386, -12032, 5263, 1308, -1263, -772, -627, -693, -220, 543, 1000, 814, 1398, 726, 804, 1341, 561
400672292, 9193, -3386, -12032, 5263, 1308, -1263, -772, -627, -693, -220, 543, 1000, 814, 1398, 726, 804, 1341, 561
400673103, 9193, -3386, -12032, 5263, 1308, -1263, -772, -627, -693, -220, 543, 1000, 814, 1398, 726, 804, 1341, 561
400673919, 9193, -3386, -12032, 5263, 1308, -1263, -772, -627, -693, -220, 543, 1000, 814, 1398, 726, 804, 1341, 561
400674716, 9193, -3386, -12032, 5263, 1308, -1263, -772, -627, -693, -220, 543, 1000, 814, 1398, 726, 804, 1341, 561
400679798, 9193, -3386, -12032, 5263, 1308, -1263, -772, -627, -693, -220, 543, 1000, 814, 1398, 726, 804, 1341, 561
400680720, 8988, -3415, -12194, 5224, 1380, -1494, -1133, -498, -979, 149, 543, 1000, 814, 1398, 726, 804, 1341, 561
400681550, 8988, -3415, -12194, 5224, 1380, -1494, -1133, -498, -979, 149, 532, 945, 775, 1342, 717, 831, 1359, 560
400682366, 8988, -3415, -12194, 5224, 1380, -1494, -1133, -498, -979, 149, 532, 945, 775, 1342, 717, 831, 1359, 560
400687387, 8988, -3415, -12194, 5224, 1380, -1494, -1133, -498, -979, 149, 532, 945, 775, 1342, 717, 831, 1359, 560
400688180, 8988, -3415, -12194, 5224, 1380, -1494, -1133, -498, -979, 149, 532, 945, 775, 1342, 717, 831, 1359, 560
400688992, 8988, -3415, -12194, 5224, 1380, -1494, -1133, -498, -979, 149, 532, 945, 775, 1342, 717, 831, 1359, 560
400689816, 8988, -3415, -12194, 5224, 1380, -1494, -1133, -498, -979, 149, 532, 945, 775, 1342, 717, 831, 1359, 560
400694830, 8988, -3415, -12194, 5224, 1380, -1494, -1133, -498, -979, 149, 532, 945, 775, 1342, 717, 831, 1359, 560
400695610, 8988, -3415, -12194, 5224, 1380, -1494, -1133, -498, -979, 149, 532, 945, 775, 1342, 717, 831, 1359, 560
400696424, 8988, -3415, -12194, 5224, 1380, -1494, -1133, -498, -979, 149, 532, 945, 775, 1342, 717, 831, 1359, 560
400697200, 8988, -3415, -12194, 5224, 1380, -1494, -1133, -498, -979, 149, 532, 945, 775, 1342, 717, 831, 1359, 560
400702371, 8988, -3415, -12194, 5224, 1380, -1494, -1133, -498, -979, 149, 532, 945, 775, 1342, 717, 831, 1359, 560
400703213, 8869, -3506, -12120, 5530, 257, -3323, 1625, 5, -1081, 504, 532, 945, 775, 1342, 717, 831, 1359, 560
400704032, 8869, -3506, -12120, 5530, 257, -3323, 1625, 5, -1081, 504, 534, 911, 734, 1219, 555, 803, 1340, 557
400704844, 8869, -3506, -12120, 5530, 257, -3323, 1625, 5, -1081, 504, 534, 911, 734, 1219, 555, 803, 1340, 557
400717362, 8869, -3506, -12120, 5530, 257, -3323, 1625, 5, -1081, 504, 534, 911, 734, 1219, 555, 803, 1340, 557
400718146, 8869, -3506, -12120, 5530, 257, -3323, 1625, 5, -1081, 504, 534, 911, 734, 1219, 555, 803, 1340, 557
400718967, 8869, -3506, -12120, 5530, 257, -3323, 1625, 5, -1081, 504, 534, 911, 734, 1219, 555, 803, 1340, 557
400719791, 8869, -3506, -12120, 5530, 257, -3323, 1625, 5, -1081, 504, 534, 911, 734, 1219, 555, 803, 1340, 557
400724754, 8869, -3506, -12120, 5530, 257, -3323, 1625, 5, -1081, 504, 534, 911, 734, 1219, 555, 803, 1340, 557
400725545, 8869, -3506, -12120, 5530, 257, -3323, 1625, 5, -1081, 504, 534, 911, 734, 1219, 555, 803, 1340, 557
400726366, 8869, -3506, -12120, 5530, 257, -3323, 1625, 5, -1081, 504, 534, 911, 734, 1219, 555, 803, 1340, 557
400727168, 8869, -3506, -12120, 5530, 257, -3323, 1625, 5, -1081, 504, 534, 911, 734, 1219, 555, 803, 1340, 557
400732320, 8869, -3506, -12120, 5530, 257, -3323, 1625, 5, -1081, 504, 534, 911, 734, 1219, 555, 803, 1340, 557
400733319, 8847, -3438, -11975, 5911, 2923, 1899, -2435, 2033, -236, 1089, 534, 911, 734, 1219, 555, 803, 1340, 557
400734166, 8847, -3438, -11975, 5911, 2923, 1899, -2435, 2033, -236, 1089, 446, 861, 602, 1199, 550, 833, 1195, 519
400734885, 8847, -3438, -11975, 5911, 2923, 1899, -2435, 2033, -236, 1089, 446, 861, 602, 1199, 550, 833, 1195, 519
400739873, 8847, -3438, -11975, 5911, 2923, 1899, -2435, 2033, -236, 1089, 446, 861, 602, 1199, 550, 833, 1195, 519
400740698, 8847, -3438, -11975, 5911, 2923, 1899, -2435, 2033, -236, 1089, 446, 861, 602, 1199, 550, 833, 1195, 519
400741517, 8847, -3438, -11975, 5911, 2923, 1899, -2435, 2033, -236, 1089, 446, 861, 602, 1199, 550, 833, 1195, 519
400742316, 8847, -3438, -11975, 5911, 2923, 1899, -2435, 2033, -236, 1089, 446, 861, 602, 1199, 550, 833, 1195, 519
400747306, 8847, -3438, -11975, 5911, 2923, 1899, -2435, 2033, -236, 1089, 446, 861, 602, 1199, 550, 833, 1195, 519
400748119, 8847, -3438, -11975, 5911, 2923, 1899, -2435, 2033, -236, 1089, 446, 861, 602, 1199, 550, 833, 1195, 519
400748915, 8847, -3438, -11975, 5911, 2923, 1899, -2435, 2033, -236, 1089, 446, 861, 602, 1199, 550, 833, 1195, 519
400749743, 8847, -3438, -11975, 5911, 2923, 1899, -2435, 2033, -236, 1089, 446, 861, 602, 1199, 550, 833, 1195, 519
400754847, 8847, -3438, -11975, 5911, 2923, 1899, -2435, 2033, -236, 1089, 446, 861, 602, 1199, 550, 833, 1195, 519
400755752, 8664, -3297, -12448, 5250, 1769, -2768, -1035, -3442, -1652, -2849, 446, 861, 602, 1199, 550, 833, 1195, 519
400756546, 8664, -3297, -12448, 5250, 1769, -2768, -1035, -3442, -1652, -2849, 223, 722, 465, 1000, 396, 769, 1081, 430
400757342, 8664, -3297, -12448, 5250, 1769, -2768, -1035, -3442, -1652, -2849, 223, 722, 465, 1000, 396, 769, 1081, 430
400762355, 8664, -3297, -12448, 5250, 1769, -2768, -1035, -3442, -1652, -2849, 223, 722, 465, 1000, 396, 769, 1081, 430
400763189, 8664, -3297, -12448, 5250, 1769, -2768, -1035, -3442, -1652, -2849, 223, 722, 465, 1000, 396, 769, 1081, 430
400764018, 8664, -3297, -12448, 5250, 1769, -2768, -1035, -3442, -1652, -2849, 223, 722, 465, 1000, 396, 769, 1081, 430
400764840, 8664, -3297, -12448, 5250, 1769, -2768, -1035, -3442, -1652, -2849, 223, 722, 465, 1000, 396, 769, 1081, 430
400769901, 8664, -3297, -12448, 5250, 1769, -2768, -1035, -3442, -1652, -2849, 223, 722, 465, 1000, 396, 769, 1081, 430
400770620, 8664, -3297, -12448, 5250, 1769, -2768, -1035, -3442, -1652, -2849, 223, 722, 465, 1000, 396, 769, 1081, 430
400771398, 8664, -3297, -12448, 5250, 1769, -2768, -1035, -3442, -1652, -2849, 223, 722, 465, 1000, 396, 769, 1081, 430
400772226, 8664, -3297, -12448, 5250, 1769, -2768, -1035, -3442, -1652, -2849, 223, 722, 465, 1000, 396, 769, 1081, 430
400784859, 8664, -3297, -12448, 5250, 1769, -2768, -1035, -3442, -1652, -2849, 223, 722, 465, 1000, 396, 769, 1081, 430
400785778, 8619, -3202, -12453, 5369, 2569, -3036, 362, 194, -985, -115, 223, 722, 465, 1000, 396, 769, 1081, 430
400786625, 8619, -3202, -12453, 5369, 2569, -3036, 362, 194, -985, -115, 181, 677, 358, 942, 345, 685, 927, 237
400787409, 8619, -3202, -12453, 5369, 2569, -3036, 362, 194, -985, -115, 181, 677, 358, 942, 345, 685, 927, 237
400792393, 8619, -3202, -12453, 5369, 2569, -3036, 362, 194, -985, -115, 181, 677, 358, 942, 345, 685, 927, 237
400793173, 8619, -3202, -12453, 5369, 2569, -3036, 362, 194, -985, -115, 181, 677, 358, 942, 345, 685, 927, 237
400793992, 8619, -3202, -12453, 5369, 2569, -3036, 362, 194, -985, -115, 181, 677, 358, 942, 345, 685, 927, 237
400794815, 8619, -3202, -12453, 5369, 2569, -3036, 362, 194, -985, -115, 181, 677, 358, 942, 345, 685, 927, 237
400799822, 8619, -3202, -12453, 5369, 2569, -3036, 362, 194, -985, -115, 181, 677, 358, 942, 345, 685, 927, 237
400800594, 8619, -3202, -12453, 5369, 2569, -3036, 362, 194, -985, -115, 181, 677, 358, 942, 345, 685, 927, 237
400801424, 8619, -3202, -12453, 5369, 2569, -3036, 362, 194, -985, -115, 181, 677, 358, 942, 345, 685, 927, 237
400802254, 8619, -3202, -12453, 5369, 2569, -3036, 362, 194, -985, -115, 181, 677, 358, 942, 345, 685, 927, 237
400807305, 8619, -3202, -12453, 5369, 2569, -3036, 362, 194, -985, -115, 181, 677, 358, 942, 345, 685, 927, 237
400808198, 8657, -2963, -12310, 5759, 2280, -574, 63, 2643, -352, 389, 181, 677, 358, 942, 345, 685, 927, 237
400809035, 8657, -2963, -12310, 5759, 2280, -574, 63, 2643, -352, 389, 172, 698, 332, 891, 310, 649, 883, 240
400809845, 8657, -2963, -12310, 5759, 2280, -574, 63, 2643, -352, 389, 172, 698, 332, 891, 310, 649, 883, 240
400814865, 8657, -2963, -12310, 5759, 2280, -574, 63, 2643, -352, 389, 172, 698, 332, 891, 310, 649, 883, 240
400815691, 8657, -2963, -12310, 5759, 2280, -574, 63, 2643, -352, 389, 172, 698, 332, 891, 310, 649, 883, 240
400816480, 8657, -2963, -12310, 5759, 2280, -574, 63, 2643, -352, 389, 172, 698, 332, 891, 310, 649, 883, 240
400817293, 8657, -2963, -12310, 5759, 2280, -574, 63, 2643, -352, 389, 172, 698, 332, 891, 310, 649, 883, 240
400822299, 8657, -2963, -12310, 5759, 2280, -574, 63, 2643, -352, 389, 172, 698, 332, 891, 310, 649, 883, 240
400823050, 8657, -2963, -12310, 5759, 2280, -574, 63, 2643, -352, 389, 172, 698, 332, 891, 310, 649, 883, 240
400823870, 8657, -2963, -12310, 5759, 2280, -574, 63, 2643, -352, 389, 172, 698, 332, 891, 310, 649, 883, 240
400824667, 8657, -2963, -12310, 5759, 2280, -574, 63, 2643, -352, 389, 172, 698, 332, 891, 310, 649, 883, 240
400829804, 8657, -2963, -12310, 5759, 2280, -574, 63, 2643, -352, 389, 172, 698, 332, 891, 310, 649, 883, 240
400830749, 8662, -2795, -12351, 5750, 2059, -653, -333, 439, -520, -227, 172, 698, 332, 891, 310, 649, 883, 240
400831584, 8662, -2795, -12351, 5750, 2059, -653, -333, 439, -520, -227, 153, 619, 292, 878, 282, 656, 804, 229
400832398, 8662, -2795, -12351, 5750, 2059, -653, -333, 439, -520, -227, 153, 619, 292, 878, 282, 656, 804, 229
400837412, 8662, -2795, -12351, 5750, 2059, -653, -333, 439, -520, -227, 153, 619, 292, 878, 282, 656, 804, 229
400838207, 8662, -2795, -12351, 5750, 2059, -653, -333, 439, -520, -227, 153, 619, 292, 878, 282, 656, 804, 229
400839020, 8662, -2795, -12351, 5750, 2059, -653, -333, 439, -520, -227, 153, 619, 292, 878, 282, 656, 804, 229
400839834, 8662, -2795, -12351, 5750, 2059, -653, -333, 439, -520, -227, 153, 619, 292, 878, 282, 656, 804, 229
400844773, 8662, -2795, -12351, 5750, 2059, -653, -333, 439, -520, -227, 153, 619, 292, 878, 282, 656, 804, 229
400845595, 8662, -2795, -12351, 5750, 2059, -653, -333, 439, -520, -227, 153, 619, 292, 878, 282, 656, 804, 229
400846392, 8662, -2795, -12351, 5750, 2059, -653, -333, 439, -520, -227, 153, 619, 292, 878, 282, 656, 804, 229
400847292, 8662, -2795, -12351, 5750, 2059, -653, -333, 439, -520, -227, 153, 619, 292, 878, 282, 656, 804, 229
400852314, 8662, -2795, -12351, 5750, 2059, -653, -333, 439, -520, -227, 153, 619, 292, 878, 282, 656, 804, 229
400853314, 8551, -2932, -12427, 5683, 1905, -1232, -307, -970, -470, 820, 153, 619, 292, 878, 282, 656, 804, 229
400853980, 8551, -2932, -12427, 5683, 1905, -1232, -307, -970, -470, 820, 145, 491, 244, 777, 235, 498, 681, 223
400854846, 8551, -2932, -12427, 5683, 1905, -1232, -307, -970, -470, 820, 145, 491, 244, 777, 235, 498, 681, 223
400859894, 8551, -2932, -12427, 5683, 1905, -1232, -307, -970, -470, 820, 145, 491, 244, 777, 235, 498, 681, 223
400860674, 8551, -2932, -12427, 5683, 1905, -1232, -307, -970, -470, 820, 145, 491, 244, 777, 235, 498, 681, 223
400861504, 8551, -2932, -12427, 5683, 1905, -1232, -307, -970, -470, 820, 145, 491, 244, 777, 235, 498, 681, 223
400862299, 8551, -2932, -12427, 5683, 1905, -1232, -307, -970, -470, 820, 145, 491, 244, 777, 235, 498, 681, 223
400867366, 8551, -2932, -12427, 5683, 1905, -1232, -307, -970, -470, 820, 145, 491, 244, 777, 235, 498, 681, 223
400868117, 8551, -2932, -12427, 5683, 1905, -1232, -307, -970, -470, 820, 145, 491, 244, 777, 235, 498, 681, 223
400868913, 8551, -2932, -12427, 5683, 1905, -1232, -307, -970, -470, 820, 145, 491, 244, 777, 235, 498, 681, 223
400869699, 8551, -2932, -12427, 5683, 1905, -1232, -307, -970, -470, 820, 145, 491, 244, 777, 235, 498, 681, 223
400874772, 8551, -2932, -12427, 5683, 1905, -1232, -307, -970, -470, 820, 145, 491, 244, 777, 235, 498, 681, 223
400875699, 8545, -2941, -12442, 5654, 1725, -1855, -6, -403, -232, -54, 145, 491, 244, 777, 235, 498, 681, 223
400876520, 8545, -2941, -12442, 5654, 1725, -1855, -6, -403, -232, -54, 131, 392, 226, 636, 193, 452, 605, 202
400877316, 8545, -2941, -12442, 5654, 1725, -1855, -6, -403, -232, -54, 131, 392, 226, 636, 193, 452, 605, 202
400882366, 8545, -2941, -12442, 5654, 1725, -1855, -6, -403, -232, -54, 131, 392, 226, 636, 193, 452, 605, 202
400883189, 8545, -2941, -12442, 5654, 1725, -1855, -6, -403, -232, -54, 131, 392, 226, 636, 193, 452, 605, 202
400883997, 8545, -2941, -12442, 5654, 1725, -1855, -6, -403, -232, -54, 131, 392, 226, 636, 193, 452, 605, 202
400884802, 8545, -2941, -12442, 5654, 1725, -1855, -6, -403, -232, -54, 131, 392, 226, 636, 193, 452, 605, 202
400889761, 8545, -2941, -12442, 5654, 1725, -1855, -6, -403, -232, -54, 131, 392, 226, 636, 193, 452, 605, 202
400890544, 8545, -2941, -12442, 5654, 1725, -1855, -6, -403, -232, -54, 131, 392, 226, 636, 193, 452, 605, 202
400891366, 8545, -2941, -12442, 5654, 1725, -1855, -6, -403, -232, -54, 131, 392, 226, 636, 193, 452, 605, 202
400892170, 8545, -2941, -12442, 5654, 1725, -1855, -6, -403, -232, -54, 131, 392, 226, 636, 193, 452, 605, 202
400897300, 8545, -2941, -12442, 5654, 1725, -1855, -6, -403, -232, -54, 131, 392, 226, 636, 193, 452, 605, 202
400898309, 8584, -2872, -12366, 5796, 1399, -1353, -180, 910, 26, 177, 131, 392, 226, 636, 193, 452, 605, 202
400899022, 8584, -2872, -12366, 5796, 1399, -1353, -180, 910, 26, 177, 99, 626, 186, 635, 159, 455, 471, 140
400899906, 8584, -2872, -12366, 5796, 1399, -1353, -180, 910, 26, 177, 99, 626, 186, 635, 159, 455, 471, 140
400904906, 8584, -2872, -12366, 5796, 1399, -1353, -180, 910, 26, 177, 99, 626, 186, 635, 159, 455, 471, 140
400905694, 8584, -2872, -12366, 5796, 1399, -1353, -180, 910, 26, 177, 99, 626, 186, 635, 159, 455, 471, 140
400906492, 8584, -2872, -12366, 5796, 1399, -1353, -180, 910, 26, 177, 99, 626, 186, 635, 159, 455, 471, 140
400907316, 8584, -2872, -12366, 5796, 1399, -1353, -180, 910, 26, 177, 99, 626, 186, 635, 159, 455, 471, 140
400912300, 8584, -2872, -12366, 5796, 1399, -1353, -180, 910, 26, 177, 99, 626, 186, 635, 159, 455, 471, 140
400913072, 8584, -2872, -12366, 5796, 1399, -1353, -180, 910, 26, 177, 99, 626, 186, 635, 159, 455, 471, 140
400913891, 8584, -2872, -12366, 5796, 1399, -1353, -180, 910, 26, 177, 99, 626, 186, 635, 159, 455, 471, 140
400914716, 8584, -2872, -12366, 5796, 1399, -1353, -180, 910, 26, 177, 99, 626, 186, 635, 159, 455, 471, 140
400919786, 8584, -2872, -12366, 5796, 1399, -1353, -180, 910, 26, 177, 99, 626, 186, 635, 159, 455, 471, 140
400920723, 8632, -2798, -12318, 5861, 1513, -823, -229, 638, 57, 121, 99, 626, 186, 635, 159, 455, 471, 140
400921517, 8632, -2798, -12318, 5861, 1513, -823, -229, 638, 57, 121, 95, 660, 164, 576, 151, 429, 417, 106
400922341, 8632, -2798, -12318, 5861, 1513, -823, -229, 638, 57, 121, 95, 660, 164, 576, 151, 429, 417, 106
400927342, 8632, -2798, -12318, 5861, 1513, -823, -229, 638, 57, 121, 95, 660, 164, 576, 151, 429, 417, 106
400928171, 8632, -2798, -12318, 5861, 1513, -823, -229, 638, 57, 121, 95, 660, 164, 576, 151, 429, 417, 106
400928968, 8632, -2798, -12318, 5861, 1513, -823, -229, 638, 57, 121, 95, 660, 164, 576, 151, 429, 417, 106
400929792, 8632, -2798, -12318, 5861, 1513, -823, -229, 638, 57, 121, 95, 660, 164, 576, 151, 429, 417, 106
400934780, 8632, -2798, -12318, 5861, 1513, -823, -229, 638, 57, 121, 95, 660, 164, 576, 151, 429, 417, 106
400935546, 8632, -2798, -12318, 5861, 1513, -823, -229, 638, 57, 121, 95, 660, 164, 576, 151, 429, 417, 106
400936369, 8632, -2798, -12318, 5861, 1513, -823, -229, 638, 57, 121, 95, 660, 164, 576, 151, 429, 417, 106
400937194, 8632, -2798, -12318, 5861, 1513, -823, -229, 638, 57, 121, 95, 660, 164, 576, 151, 429, 417, 106
400942295, 8632, -2798, -12318, 5861, 1513, -823, -229, 638, 57, 121, 95, 660, 164, 576, 151, 429, 417, 106
400943198, 8661, -2773, -12310, 5849, 1494, -927, -208, 54, 30, 51, 95, 660, 164, 576, 151, 429, 417, 106
400943994, 8661, -2773, -12310, 5849, 1494, -927, -208, 54, 30, 51, 94, 649, 153, 551, 147, 309, 375, 109
400944817, 8661, -2773, -12310, 5849, 1494, -927, -208, 54, 30, 51, 94, 649, 153, 551, 147, 309, 375, 109
400957374, 8661, -2773, -12310, 5849, 1494, -927, -208, 54, 30, 51, 94, 649, 153, 551, 147, 309, 375, 109
400958182, 8661, -2773, -12310, 5849, 1494, -927, -208, 54, 30, 51, 94, 649, 153, 551, 147, 309, 375, 109
400958985, 8661, -2773, -12310, 5849, 1494, -927, -208, 54, 30, 51, 94, 649, 153, 551, 147, 309, 375, 109
400959808, 8661, -2773, -12310, 5849, 1494, -927, -208, 54, 30, 51, 94, 649, 153, 551, 147, 309, 375, 109
400964753, 8661, -2773, -12310, 5849, 1494, -927, -208, 54, 30, 51, 94, 649, 153, 551, 147, 309, 375, 109
400965548, 8661, -2773, -12310, 5849, 1494, -927, -208, 54, 30, 51, 94, 649, 153, 551, 147, 309, 375, 109
400966368, 8661, -2773, -12310, 5849, 1494, -927, -208, 54, 30, 51, 94, 649, 153, 551, 147, 309, 375, 109
400967186, 8661, -2773, -12310, 5849, 1494, -927, -208, 54, 30, 51, 94, 649, 153, 551, 147, 309, 375, 109
400972366, 8661, -2773, -12310, 5849, 1494, -927, -208, 54, 30, 51, 87, 638, 143, 483, 139, 296, 361, 99
400973150, 8661, -2773, -12310, 5849, 1494, -927, -208, 54, 30, 51, 87, 638, 143, 483, 139, 296, 361, 99
400973976, 8661, -2773, -12310, 5849, 1494, -927, -208, 54, 30, 51, 87, 638, 143, 483, 139, 296, 361, 99
400974804, 8661, -2773, -12310, 5849, 1494, -927, -208, 54, 30, 51, 87, 638, 143, 483, 139, 296, 361, 99
400979750, 8661, -2773, -12310, 5849, 1494, -927, -208, 54, 30, 51, 87, 638, 143, 483, 139, 296, 361, 99
400980543, 8661, -2773, -12310, 5849, 1494, -927, -208, 54, 30, 51, 87, 638, 143, 483, 139, 296, 361, 99
400981366, 8661, -2773, -12310, 5849, 1494, -927, -208, 54, 30, 51, 87, 638, 143, 483, 139, 296, 361, 99
400982169, 8661, -2773, -12310, 5849, 1494, -927, -208, 54, 30, 51, 87, 638, 143, 483, 139, 296, 361, 99
400987307, 8661, -2773, -12310, 5849, 1494, -927, -208, 54, 30, 51, 87, 638, 143, 483, 139, 296, 361, 99
400988183, 8745, -2683, -12260, 5870, 1581, -1173, -167, 401, 66, -140, 87, 638, 143, 483, 139, 296, 361, 99
400989002, 8745, -2683, -12260, 5870, 1581, -1173, -167, 401, 66, -140, 72, 680, 109, 427, 126, 283, 348, 87
400989819, 8745, -2683, -12260, 5870, 1581, -1173, -167, 401, 66, -140, 72, 680, 109, 427, 126, 283, 348, 87
400994870, 8745, -2683, -12260, 5870, 1581, -1173, -167, 401, 66, -140, 72, 680, 109, 427, 126, 283, 348, 87
400995693, 8745, -2683, -12260, 5870, 1581, -1173, -167, 401, 66, -140, 72, 680, 109, 427, 126, 283, 348, 87
400996496, 8745, -2683, -12260, 5870, 1581, -1173, -167, 401, 66, -140, 72, 680, 109, 427, 126, 283, 348, 87
400997315, 8745, -2683, -12260, 5870, 1581, -1173, -167, 401, 66, -140, 72, 680, 109, 427, 126, 283, 348, 87
401002293, 8745, -2683, -12260, 5870, 1581, -1173, -167, 401, 66, -140, 72, 680, 109, 427, 126, 283, 348, 87
401003070, 8745, -2683, -12260, 5870, 1581, -1173, -167, 401, 66, -140, 72, 680, 109, 427, 126, 283, 348, 87
401003891, 8745, -2683, -12260, 5870, 1581, -1173, -167, 401, 66, -140, 72, 680, 109, 427, 126, 283, 348, 87
401004715, 8745, -2683, -12260, 5870, 1581, -1173, -167, 401, 66, -140, 72, 680, 109, 427, 126, 283, 348, 87
401009769, 8745, -2683, -12260, 5870, 1581, -1173, -167, 401, 66, -140, 72, 680, 109, 427, 126, 283, 348, 87
401010719, 8817, -2561, -12216, 5908, 1596, -939, -175, 668, 81, -240, 72, 680, 109, 427, 126, 283, 348, 87
401011516, 8817, -2561, -12216, 5908, 1596, -939, -175, 668, 81, -240, 60, 436, 133, 348, 123, 276, 354, 85
401012341, 8817, -2561, -12216, 5908, 1596, -939, -175, 668, 81, -240, 60, 436, 133, 348, 123, 276, 354, 85
401017352, 8817, -2561, -12216, 5908, 1596, -939, -175, 668, 81, -240, 60, 436, 133, 348, 123, 276, 354, 85
401018171, 8817, -2561, -12216, 5908, 1596, -939, -175, 668, 81, -240, 60, 436, 133, 348, 123, 276, 354, 85
401018993, 8817, -2561, -12216, 5908, 1596, -939, -175, 668, 81, -240, 60, 436, 133, 348, 123, 276, 354, 85
401019808, 8817, -2561, -12216, 5908, 1596, -939, -175, 668, 81, -240, 60, 436, 133, 348, 123, 276, 354, 85
401024747, 8817, -2561, -12216, 5908, 1596, -939, -175, 668, 81, -240, 60, 436, 133, 348, 123, 276, 354, 85
401025653, 8817, -2561, -12216, 5908, 1596, -939, -175, 668, 81, -240, 60, 436, 133, 348, 123, 276, 354, 85
401026373, 8817, -2561, -12216, 5908, 1596, -939, -175, 668, 81, -240, 60, 436, 133, 348, 123, 276, 354, 85
401027196, 8817, -2561, -12216, 5908, 1596, -939, -175, 668, 81, -240, 60, 436, 133, 348, 123, 276, 354, 85
401032295, 8817, -2561, -12216, 5908, 1596, -939, -175, 668, 81, -240, 60, 436, 133, 348, 123, 276, 354, 85
401033198, 8853, -2470, -12194, 5938, 1472, -925, -298, 506, -10, -126, 60, 436, 133, 348, 123, 276, 354, 85
401034016, 8853, -2470, -12194, 5938, 1472, -925, -298, 506, -10, -126, 56, 336, 125, 265, 85, 240, 284, 77
401034826, 8853, -2470, -12194, 5938, 1472, -925, -298, 506, -10, -126, 56, 336, 125, 265, 85, 240, 284, 77
401039842, 8853, -2470, -12194, 5938, 1472, -925, -298, 506, -10, -126, 56, 336, 125, 265, 85, 240, 284, 77
401040670, 8853, -2470, -12194, 5938, 1472, -925, -298, 506, -10, -126, 56, 336, 125, 265, 85, 240, 284, 77
401041497, 8853, -2470, -12194, 5938, 1472, -925, -298, 506, -10, -126, 56, 336, 125, 265, 85, 240, 284, 77
401042298, 8853, -2470, -12194, 5938, 1472, -925, -298, 506, -10, -126, 56, 336, 125, 265, 85, 240, 284, 77
401047217, 8853, -2470, -12194, 5938, 1472, -925, -298, 506, -10, -126, 56, 336, 125, 265, 85, 240, 284, 77
401048042, 8853, -2470, -12194, 5938, 1472, -925, -298, 506, -10, -126, 56, 336, 125, 265, 85, 240, 284, 77
401048841, 8853, -2470, -12194, 5938, 1472, -925, -298, 506, -10, -126, 56, 336, 125, 265, 85, 240, 284, 77
401049672, 8853, -2470, -12194, 5938, 1472, -925, -298, 506, -10, -126, 56, 336, 125, 265, 85, 240, 284, 77
401054836, 8853, -2470, -12194, 5938, 1472, -925, -298, 506, -10, -126, 56, 336, 125, 265, 85, 240, 284, 77
401055728, 8847, -2448, -12203, 5938, 1550, -1165, -238, 35, -138, 60, 56, 336, 125, 265, 85, 240, 284, 77
401056697, 8847, -2448, -12203, 5938, 1550, -1165, -238, 35, -138, 60, 52, 553, 118, 251, 77, 186, 228, 49
401057388, 8847, -2448, -12203, 5938, 1550, -1165, -238, 35, -138, 60, 52, 553, 118, 251, 77, 186, 228, 49
401062369, 8847, -2448, -12203, 5938, 1550, -1165, -238, 35, -138, 60, 52, 553, 118, 251, 77, 186, 228, 49
401063171, 8847, -2448, -12203, 5938, 1550, -1165, -238, 35, -138, 60, 52, 553, 118, 251, 77, 186, 228, 49
401063992, 8847, -2448, -12203, 5938, 1550, -1165, -238, 35, -138, 60, 52, 553, 118, 251, 77, 186, 228, 49
401064816, 8847, -2448, -12203, 5938, 1550, -1165, -238, 35, -138, 60, 52, 553, 118, 251, 77, 186, 228, 49
401069819, 8847, -2448, -12203, 5938, 1550, -1165, -238, 35, -138, 60, 52, 553, 118, 251, 77, 186, 228, 49
401070597, 8847, -2448, -12203, 5938, 1550, -1165, -238, 35, -138, 60, 52, 553, 118, 251, 77, 186, 228, 49
401071426, 8847, -2448, -12203, 5938, 1550, -1165, -238, 35, -138, 60, 52, 553, 118, 251, 77, 186, 228, 49
401072244, 8847, -2448, -12203, 5938, 1550, -1165, -238, 35, -138, 60, 52, 553, 118, 251, 77, 186, 228, 49
