Timestamp, Orientation x, Orientation y, Orientation z, Orientation w, Acceleration x, Acceleration y, Acceleration z, Rotation x, Rotation y, Rotation z, EMG 0, EMG 1, EMG 2, EMG 3, EMG 4, EMG 5, EMG 6, EMG 7
0,0.07433902275278129,-0.4990113711221181,-0.8628331401117152,0.03131027805597439,0.5248202433628318,0.7381775442477876,0.4342505530973451,0.5039372786355353,0.5018740758570889,0.46212303565902135,0,0,0,0,0,0,0,0
7499,0.08739960217175059,-0.49284342705089806,-0.8649631019399786,0.036131679110109186,0.5261338495575221,0.7366565265486725,0.42069966814159293,0.5049001065988102,0.5069289226642825,0.45493621264743306,0,0,0,0,0,0,0,0
29984,0.10308722029478894,-0.4844305905741503,-0.8679101673131432,0.03784137157061524,0.5236449115044248,0.7280143805309734,0.4026548672566372,0.5007393143289433,0.5217152092431484,0.44544547986657956,0,0,0,0,0,0,0,0
52512,0.12426229894427306,-0.4725141053175648,-0.871972232326537,0.03088247704607179,0.5226769911504425,0.720616703539823,0.38419524336283184,0.4911798081221416,0.5448918537876964,0.4319658883807297,0,0,0,0,0,0,0,0
68897,0.15215523147354396,-0.45732015620989364,-0.8760064329481654,0.017882664589550092,0.5175608407079646,0.715362278761062,0.3703678097345133,0.48574670747223275,0.5736047591210757,0.41944912485815483,0,0,0,0,0,0,0,0
69634,0.15215523147354396,-0.45732015620989364,-0.8760064329481654,0.017882664589550092,0.5175608407079646,0.715362278761062,0.3703678097345133,0.48574670747223275,0.5736047591210757,0.41944912485815483,0.0873215785054576,0.06968933669185558,0.04450041981528128,0.05037783375314862,0.04785894206549118,0.04617968094038623,0.05793450881612091,0.11083123425692695
91306,0.1865807877917628,-0.43852893695904993,-0.8791330282474816,0.0022582561819742305,0.5078125,0.706858407079646,0.3580613938053097,0.48952924589938446,0.5979161651937691,0.40851415013238884,0.0873215785054576,0.06968933669185558,0.04450041981528128,0.05037783375314862,0.04785894206549118,0.04617968094038623,0.05793450881612091,0.11083123425692695
92094,0.1865807877917628,-0.43852893695904993,-0.8791330282474816,0.0022582561819742305,0.5078125,0.706858407079646,0.3580613938053097,0.48952924589938446,0.5979161651937691,0.40851415013238884,0.0948782535684299,0.07220822837951302,0.047019311502938706,0.06297229219143577,0.04785894206549118,0.052057094878253565,0.060453400503778336,0.12426532325776658
113832,0.2261874792831569,-0.4155721927790112,-0.8808861005110101,-0.013366178619269121,0.5060840707964602,0.6995298672566371,0.35467367256637167,0.4988824318283415,0.6150407482548743,0.398266909666105,0.0948782535684299,0.07220822837951302,0.047019311502938706,0.06297229219143577,0.04785894206549118,0.052057094878253565,0.060453400503778336,0.12426532325776658
114623,0.2261874792831569,-0.4155721927790112,-0.8808861005110101,-0.013366178619269121,0.5060840707964602,0.6995298672566371,0.35467367256637167,0.4988824318283415,0.6150407482548743,0.398266909666105,0.10075566750629723,0.07220822837951302,0.04785894206549118,0.07556675062972293,0.05037783375314862,0.055415617128463476,0.0654911838790932,0.14273719563392107
128820,0.26788179439890497,-0.38641140130769364,-0.8820751179432614,-0.029479814694616337,0.5127212389380531,0.7133573008849557,0.3557107300884956,0.5056566142842406,0.6232591726556859,0.3813486468828445,0.10075566750629723,0.07220822837951302,0.04785894206549118,0.07556675062972293,0.05037783375314862,0.055415617128463476,0.0654911838790932,0.14273719563392107
129649,0.26788179439890497,-0.38641140130769364,-0.8820751179432614,-0.029479814694616337,0.5127212389380531,0.7133573008849557,0.3557107300884956,0.5056566142842406,0.6232591726556859,0.3813486468828445,0.0982367758186398,0.07220822837951302,0.047019311502938706,0.08312342569269521,0.056255247691015954,0.056255247691015954,0.06297229219143577,0.13685978169605373
151288,0.3059067626847413,-0.3535139603890706,-0.8825642035956425,-0.05029273193380424,0.5372649336283186,0.7293971238938053,0.3635232300884956,0.491626835390805,0.6195454076544823,0.3678346686840205,0.0982367758186398,0.07220822837951302,0.047019311502938706,0.08312342569269521,0.056255247691015954,0.056255247691015954,0.06297229219143577,0.13685978169605373
152078,0.3059067626847413,-0.3535139603890706,-0.8825642035956425,-0.05029273193380424,0.5372649336283186,0.7293971238938053,0.3635232300884956,0.491626835390805,0.6195454076544823,0.3678346686840205,0.08396305625524769,0.055415617128463476,0.04617968094038623,0.08480268681780016,0.08060453400503778,0.05037783375314862,0.05877413937867338,0.12678421494542402
173847,0.3377601049854852,-0.32048758787112086,-0.8813866418676168,-0.07977095359884878,0.566579092920354,0.7343058628318584,0.3885508849557522,0.4599910594546267,0.6123585846428939,0.35996011141295003,0.08396305625524769,0.055415617128463476,0.04617968094038623,0.08480268681780016,0.08060453400503778,0.05037783375314862,0.05877413937867338,0.12678421494542402
174623,0.3377601049854852,-0.32048758787112086,-0.8813866418676168,-0.07977095359884878,0.566579092920354,0.7343058628318584,0.3885508849557522,0.4599910594546267,0.6123585846428939,0.35996011141295003,0.07304785894206549,0.055415617128463476,0.05373635600335852,0.0873215785054576,0.08564231738035265,0.051217464315701094,0.04953820319059614,0.10411418975650713
188830,0.3610121782742285,-0.2892980093017486,-0.8788800282584768,-0.11639057040895244,0.5828954646017699,0.7578816371681416,0.4276133849557522,0.429180564629827,0.5951652281558406,0.3572091743750215,0.07304785894206549,0.055415617128463476,0.05373635600335852,0.0873215785054576,0.08564231738035265,0.051217464315701094,0.04953820319059614,0.10411418975650713
189630,0.3610121782742285,-0.2892980093017486,-0.8788800282584768,-0.11639057040895244,0.5828954646017699,0.7578816371681416,0.4276133849557522,0.429180564629827,0.5951652281558406,0.3572091743750215,0.07136859781696053,0.055415617128463476,0.04534005037783375,0.08144416456759027,0.08564231738035265,0.047019311502938706,0.056255247691015954,0.09571788413098237
211283,0.37541106492237525,-0.26329431540808435,-0.8749622869008571,-0.15551087521089452,0.5973451327433629,0.7889933628318584,0.4491841814159292,0.4083078298545442,0.5715415563426292,0.36780028197104636,0.07136859781696053,0.055415617128463476,0.04534005037783375,0.08144416456759027,0.08564231738035265,0.047019311502938706,0.056255247691015954,0.09571788413098237
212077,0.37541106492237525,-0.26329431540808435,-0.8749622869008571,-0.15551087521089452,0.5973451327433629,0.7889933628318584,0.4491841814159292,0.4083078298545442,0.5715415563426292,0.36780028197104636,0.07220822837951302,0.05877413937867338,0.04869857262804366,0.07304785894206549,0.08144416456759027,0.051217464315701094,0.056255247691015954,0.0654911838790932
233800,0.3837738053774812,-0.24559570496803185,-0.8688619423272618,-0.19359581912489984,0.6168418141592921,0.8060702433628318,0.439366703539823,0.39482823836869435,0.5525600907809223,0.39101131322856847,0.07220822837951302,0.05877413937867338,0.04869857262804366,0.07304785894206549,0.08144416456759027,0.051217464315701094,0.056255247691015954,0.0654911838790932
234623,0.3837738053774812,-0.24559570496803185,-0.8688619423272618,-0.19359581912489984,0.6168418141592921,0.8060702433628318,0.439366703539823,0.39482823836869435,0.5525600907809223,0.39101131322856847,0.0654911838790932,0.05709487825356843,0.05373635600335852,0.06465155331654072,0.07556675062972293,0.05373635600335852,0.056255247691015954,0.0654911838790932
248796,0.3872463514808713,-0.2388782064138897,-0.8592657813237489,-0.23375154076780724,0.635370575221239,0.8152654867256637,0.4227737831858407,0.36917575049001067,0.5388397923042536,0.41814242976513877,0.0654911838790932,0.05709487825356843,0.05373635600335852,0.06465155331654072,0.07556675062972293,0.05373635600335852,0.056255247691015954,0.0654911838790932
249614,0.3872463514808713,-0.2388782064138897,-0.8592657813237489,-0.23375154076780724,0.635370575221239,0.8152654867256637,0.4227737831858407,0.36917575049001067,0.5388397923042536,0.41814242976513877,0.061293031066330814,0.06717044500419815,0.05289672544080604,0.06633081444164568,0.054575986565911,0.060453400503778336,0.06213266162888329,0.06465155331654072
271366,0.38603032750126054,-0.24303126705296751,-0.8451775454920879,-0.2785521604293681,0.6503733407079646,0.8129148230088495,0.40279314159292035,0.3348921976548262,0.5281455245693064,0.44090643375399746,0.061293031066330814,0.06717044500419815,0.05289672544080604,0.06633081444164568,0.054575986565911,0.060453400503778336,0.06213266162888329,0.06465155331654072
272151,0.38603032750126054,-0.24303126705296751,-0.8451775454920879,-0.2785521604293681,0.6503733407079646,0.8129148230088495,0.40279314159292035,0.3348921976548262,0.5281455245693064,0.44090643375399746,0.061293031066330814,0.06213266162888329,0.04617968094038623,0.061293031066330814,0.04869857262804366,0.05961376994122586,0.06465155331654072,0.06297229219143577
293795,0.380245773232736,-0.2537209758151659,-0.8276296444680418,-0.32568080994701115,0.6572179203539823,0.7937638274336283,0.3983683628318584,0.3122657405178639,0.5166947491489289,0.4521508888965304,0.061293031066330814,0.06213266162888329,0.04617968094038623,0.061293031066330814,0.04869857262804366,0.05961376994122586,0.06465155331654072,0.06297229219143577
294617,0.380245773232736,-0.2537209758151659,-0.8276296444680418,-0.32568080994701115,0.6572179203539823,0.7937638274336283,0.3983683628318584,0.3122657405178639,0.5166947491489289,0.4521508888965304,0.05793450881612091,0.061293031066330814,0.04617968094038623,0.06297229219143577,0.052057094878253565,0.05961376994122586,0.05877413937867338,0.05709487825356843
308773,0.3675981635989193,-0.26781018460435957,-0.8117919930315831,-0.36625545073171417,0.6381360619469026,0.7438467920353983,0.4032771017699115,0.3193150166775558,0.4885664179361095,0.4577559231113098,0.05793450881612091,0.061293031066330814,0.04617968094038623,0.06297229219143577,0.052057094878253565,0.05961376994122586,0.05877413937867338,0.05709487825356843
309621,0.3675981635989193,-0.26781018460435957,-0.8117919930315831,-0.36625545073171417,0.6381360619469026,0.7438467920353983,0.4032771017699115,0.3193150166775558,0.4885664179361095,0.4577559231113098,0.052057094878253565,0.060453400503778336,0.0436607892527288,0.06465155331654072,0.05037783375314862,0.05289672544080604,0.05793450881612091,0.05289672544080604
331331,0.3484385629317016,-0.27910484292987764,-0.8017321707253166,-0.3973871927217217,0.6301161504424779,0.6634402654867256,0.4236034292035398,0.3557993191430831,0.45204772875760807,0.4554864000550187,0.052057094878253565,0.060453400503778336,0.0436607892527288,0.06465155331654072,0.05037783375314862,0.05289672544080604,0.05793450881612091,0.05289672544080604
332116,0.3484385629317016,-0.27910484292987764,-0.8017321707253166,-0.3973871927217217,0.6301161504424779,0.6634402654867256,0.4236034292035398,0.3557993191430831,0.45204772875760807,0.4554864000550187,0.07052896725440806,0.07388748950461797,0.05037783375314862,0.0688497061293031,0.056255247691015954,0.051217464315701094,0.06717044500419815,0.051217464315701094
353778,0.32653078140537917,-0.28289162089980047,-0.8062563780121605,-0.40410472966075056,0.6242394911504425,0.6247234513274337,0.44275442477876104,0.4415253945875314,0.41711082837591557,0.447199202228259,0.07052896725440806,0.07388748950461797,0.05037783375314862,0.0688497061293031,0.056255247691015954,0.051217464315701094,0.06717044500419815,0.051217464315701094
354603,0.32653078140537917,-0.28289162089980047,-0.8062563780121605,-0.40410472966075056,0.6242394911504425,0.6247234513274337,0.44275442477876104,0.4415253945875314,0.41711082837591557,0.447199202228259,0.12846347607052896,0.12090680100755667,0.17548278757346766,0.23173803526448364,0.15197313182199831,0.06213266162888329,0.08144416456759027,0.0764063811922754
368782,0.31297985685795204,-0.27336910664328534,-0.8307271512662997,-0.37041239299354733,0.6406941371681416,0.6317754424778761,0.3789408185840708,0.5909356624600255,0.3987139369347684,0.4475430693580001,0.12846347607052896,0.12090680100755667,0.17548278757346766,0.23173803526448364,0.15197313182199831,0.06213266162888329,0.08144416456759027,0.0764063811922754
369632,0.31297985685795204,-0.27336910664328534,-0.8307271512662997,-0.37041239299354733,0.6406941371681416,0.6317754424778761,0.3789408185840708,0.5909356624600255,0.3987139369347684,0.4475430693580001,0.14777497900923595,0.12762384550797648,0.21914357682619648,0.3198992443324937,0.21662468513853905,0.09907640638119228,0.11670864819479429,0.10411418975650713
391947,0.31298835004238296,-0.24536138205350613,-0.8683473588246845,-0.29632574872382395,0.6626797566371682,0.6764380530973452,0.26714601769911506,0.7428217736666552,0.4078608025858808,0.443657370791926,0.14777497900923595,0.12762384550797648,0.21914357682619648,0.3198992443324937,0.21662468513853905,0.09907640638119228,0.11670864819479429,0.10411418975650713
392769,0.31298835004238296,-0.24536138205350613,-0.8683473588246845,-0.29632574872382395,0.6626797566371682,0.6764380530973452,0.26714601769911506,0.7428217736666552,0.4078608025858808,0.443657370791926,0.1964735516372796,0.1528127623845508,0.23761544920235098,0.3417296389588581,0.24685138539042822,0.10579345088161209,0.12342569269521411,0.1309823677581864
413793,0.33714616489299276,-0.20427737398567103,-0.8974288936615796,-0.19805201033268674,0.6875,0.6844579646017699,0.1415929203539823,0.8339809497610123,0.4760840411265087,0.4608507272789794,0.1964735516372796,0.1528127623845508,0.23761544920235098,0.3417296389588581,0.24685138539042822,0.10579345088161209,0.12342569269521411,0.1309823677581864
414592,0.33714616489299276,-0.20427737398567103,-0.8974288936615796,-0.19805201033268674,0.6875,0.6844579646017699,0.1415929203539823,0.8339809497610123,0.4760840411265087,0.4608507272789794,0.20486985726280438,0.15449202350965574,0.2401343408900084,0.34844668345927793,0.24937027707808565,0.10831234256926953,0.12174643157010916,0.14021830394626364
428097,0.37639746724364775,-0.16357146298248354,-0.9102629846719252,-0.05468657866877062,0.6694551991150443,0.7833241150442478,0.17547013274336284,0.964272205219903,0.5072384030810495,0.5302775007737011,0.20486985726280438,0.15449202350965574,0.2401343408900084,0.34844668345927793,0.24937027707808565,0.10831234256926953,0.12174643157010916,0.14021830394626364
428953,0.37639746724364775,-0.16357146298248354,-0.9102629846719252,-0.05468657866877062,0.6694551991150443,0.7833241150442478,0.17547013274336284,0.964272205219903,0.5072384030810495,0.5302775007737011,0.20235096557514692,0.15197313182199831,0.24265323257766583,0.3534844668345928,0.25440806045340053,0.109151973131822,0.11754827875734676,0.1452560873215785
451370,0.40452821851038967,-0.12792564061523487,-0.8997518100905498,0.10216961946083167,0.5627765486725663,0.9277516592920354,0.2373478982300885,0.9883429043017778,0.49492795983631926,0.5718510367593962,0.20235096557514692,0.15197313182199831,0.24265323257766583,0.3534844668345928,0.25440806045340053,0.109151973131822,0.11754827875734676,0.1452560873215785
452148,0.40452821851038967,-0.12792564061523487,-0.8997518100905498,0.10216961946083167,0.5627765486725663,0.9277516592920354,0.2373478982300885,0.9883429043017778,0.49492795983631926,0.5718510367593962,0.17716204869857263,0.11922753988245172,0.17800167926112512,0.28211586901763225,0.21326616288832914,0.10327455919395466,0.10495382031905962,0.1418975650713686
473812,0.39533156777951506,-0.1028460231138618,-0.895035064060338,0.17901922005516716,0.3625553097345133,0.8997511061946902,0.39760785398230086,0.7248719094941715,0.41711082837591557,0.5080292974794539,0.17716204869857263,0.11922753988245172,0.17800167926112512,0.28211586901763225,0.21326616288832914,0.10327455919395466,0.10495382031905962,0.1418975650713686
474601,0.39533156777951506,-0.1028460231138618,-0.895035064060338,0.17901922005516716,0.3625553097345133,0.8997511061946902,0.39760785398230086,0.7248719094941715,0.41711082837591557,0.5080292974794539,0.1670864819479429,0.11838790931989925,0.12846347607052896,0.19143576826196473,0.15029387069689337,0.10579345088161209,0.07724601175482787,0.12594458438287154
487443,0.3735984168412081,-0.08380176871801645,-0.908330606017131,0.16833596367391795,0.6973866150442478,0.9363246681415929,0.5179065265486725,0.45545201334204466,0.39101131322856847,0.41717960180186375,0.1670864819479429,0.11838790931989925,0.12846347607052896,0.19143576826196473,0.15029387069689337,0.10579345088161209,0.07724601175482787,0.12594458438287154
495580,0.3735984168412081,-0.08380176871801645,-0.908330606017131,0.16833596367391795,0.6973866150442478,0.9363246681415929,0.5179065265486725,0.45545201334204466,0.39101131322856847,0.41717960180186375,0.10831234256926953,0.09319899244332494,0.09991603694374475,0.15197313182199831,0.09739714525608732,0.13937867338371115,0.07556675062972293,0.09655751469353484
511253,0.3738244699042753,-0.04882605321198698,-0.9206152333120144,0.10168025581396288,0.7069275442477876,0.6798949115044248,0.46425608407079644,0.3168735600563942,0.46016299301949726,0.2915993260204257,0.10831234256926953,0.09319899244332494,0.09991603694374475,0.15197313182199831,0.09739714525608732,0.13937867338371115,0.07556675062972293,0.09655751469353484
512088,0.3738244699042753,-0.04882605321198698,-0.9206152333120144,0.10168025581396288,0.7069275442477876,0.6798949115044248,0.46425608407079644,0.3168735600563942,0.46016299301949726,0.2915993260204257,0.09739714525608732,0.11670864819479429,0.10243492863140219,0.13937867338371115,0.11502938706968933,0.14693534844668346,0.07808564231738035,0.08144416456759027
533822,0.3670656826614391,-0.02319337535938591,-0.9296271055231757,-0.022766128971186694,0.6411089601769911,0.7829784292035398,0.44088772123893805,0.13799387916509062,0.4594752587600151,0.2532581410542966,0.09739714525608732,0.11670864819479429,0.10243492863140219,0.13937867338371115,0.11502938706968933,0.14693534844668346,0.07808564231738035,0.08144416456759027
534611,0.3670656826614391,-0.02319337535938591,-0.9296271055231757,-0.022766128971186694,0.6411089601769911,0.7829784292035398,0.44088772123893805,0.13799387916509062,0.4594752587600151,0.2532581410542966,0.09151973131821999,0.1200671704450042,0.109151973131822,0.12678421494542402,0.10747271200671704,0.1561712846347607,0.08312342569269521,0.07472712006717044
547492,0.34051115681413163,-0.029601704795636105,-0.9253431884672969,-0.1640605824549894,0.6487140486725663,0.9334900442477876,0.4124032079646018,0.050892335201678074,0.41607922698669236,0.3317973934871566,0.09151973131821999,0.1200671704450042,0.109151973131822,0.12678421494542402,0.10747271200671704,0.1561712846347607,0.08312342569269521,0.07472712006717044
555592,0.34051115681413163,-0.029601704795636105,-0.9253431884672969,-0.1640605824549894,0.6487140486725663,0.9334900442477876,0.4124032079646018,0.050892335201678074,0.41607922698669236,0.3317973934871566,0.08312342569269521,0.11670864819479429,0.11418975650713686,0.11586901763224182,0.10663308144416457,0.16288832913518053,0.08648194794290512,0.060453400503778336
571273,0.3141393514341434,-0.06970024078837998,-0.9026242215581012,-0.2858808475068055,0.6891592920353983,1,0.2988799778761062,0.06000481413981638,0.41398163749527184,0.4507066469516179,0.08312342569269521,0.11670864819479429,0.11418975650713686,0.11586901763224182,0.10663308144416457,0.16288832913518053,0.08648194794290512,0.060453400503778336
572082,0.3141393514341434,-0.06970024078837998,-0.9026242215581012,-0.2858808475068055,0.6891592920353983,1,0.2988799778761062,0.06000481413981638,0.41398163749527184,0.4507066469516179,0.07052896725440806,0.12762384550797648,0.10831234256926953,0.09655751469353484,0.10411418975650713,0.14273719563392107,0.07220822837951302,0.060453400503778336
593802,0.2958165295007861,-0.12431984126121337,-0.8525399423553705,-0.41256854537349164,0.6755392699115044,0.8922151548672567,0.26479535398230086,0.007565076854303497,0.45204772875760807,0.500980021319762,0.07052896725440806,0.12762384550797648,0.10831234256926953,0.09655751469353484,0.10411418975650713,0.14273719563392107,0.07220822837951302,0.060453400503778336
594647,0.2958165295007861,-0.12431984126121337,-0.8525399423553705,-0.41256854537349164,0.6755392699115044,0.8922151548672567,0.26479535398230086,0.007565076854303497,0.45204772875760807,0.500980021319762,0.06801007556675064,0.12258606213266163,0.10831234256926953,0.09991603694374475,0.09655751469353484,0.1015952980688497,0.061293031066330814,0.060453400503778336
607490,0.265126531589503,-0.18053505535031075,-0.7868350012089947,-0.5272624554331761,0.5735619469026548,0.719441371681416,0.23209347345132744,0.012963790791238265,0.4264296275918985,0.506756989099412,0.06801007556675064,0.12258606213266163,0.10831234256926953,0.09991603694374475,0.09655751469353484,0.1015952980688497,0.061293031066330814,0.060453400503778336
615566,0.265126531589503,-0.18053505535031075,-0.7868350012089947,-0.5272624554331761,0.5735619469026548,0.719441371681416,0.23209347345132744,0.012963790791238265,0.4264296275918985,0.506756989099412,0.09739714525608732,0.1418975650713686,0.11586901763224182,0.09655751469353484,0.07052896725440806,0.08984047019311503,0.0654911838790932,0.060453400503778336
631326,0.22301594549043408,-0.21343370590586971,-0.776344506469163,-0.5495444918434232,0.6825912610619469,0.3216261061946903,0.365320796460177,0.3519823940029573,0.33833086895223685,0.47518998658918193,0.09739714525608732,0.1418975650713686,0.11586901763224182,0.09655751469353484,0.07052896725440806,0.08984047019311503,0.0654911838790932,0.060453400503778336
632087,0.22301594549043408,-0.21343370590586971,-0.776344506469163,-0.5495444918434232,0.6825912610619469,0.3216261061946903,0.365320796460177,0.3519823940029573,0.33833086895223685,0.47518998658918193,0.1670864819479429,0.21494542401343408,0.12510495382031905,0.417296389588581,0.5869017632241813,0.09403862300587741,0.07304785894206549,0.07388748950461797
653773,0.20933634149958036,-0.2091532484895224,-0.8262377233881396,-0.4793375003316922,0.7098313053097345,0.43501106194690264,0.36366150442477874,0.7294109556067535,0.36759396169320174,0.457824696537258,0.1670864819479429,0.21494542401343408,0.12510495382031905,0.417296389588581,0.5869017632241813,0.09403862300587741,0.07304785894206549,0.07388748950461797
654561,0.20933634149958036,-0.2091532484895224,-0.8262377233881396,-0.4793375003316922,0.7098313053097345,0.43501106194690264,0.36366150442477874,0.7294109556067535,0.36759396169320174,0.457824696537258,0.20486985726280438,0.235936188077246,0.12342569269521411,0.6775818639798489,0.743073047858942,0.1200671704450042,0.0764063811922754,0.08228379513014274
667446,0.207749726933625,-0.18736535302180635,-0.8948984271526861,-0.34769394663362563,0.6326050884955752,0.604950221238938,0.16869469026548672,0.9414394278050962,0.3717891406760428,0.45854681750971427,0.20486985726280438,0.235936188077246,0.12342569269521411,0.6775818639798489,0.743073047858942,0.1200671704450042,0.0764063811922754,0.08228379513014274
675615,0.207749726933625,-0.18736535302180635,-0.8948984271526861,-0.34769394663362563,0.6326050884955752,0.604950221238938,0.16869469026548672,0.9414394278050962,0.3717891406760428,0.45854681750971427,0.2770780856423174,0.29303106633081444,0.1385390428211587,0.762384550797649,0.90848026868178,0.13937867338371115,0.07808564231738035,0.10075566750629723
691291,0.226495224899194,-0.1613114738368552,-0.9410751475938216,-0.19249957944814278,0.7035398230088495,0.6646155973451328,0.09616980088495575,1,0.4351638526873216,0.4981603108558853,0.2770780856423174,0.29303106633081444,0.1385390428211587,0.762384550797649,0.90848026868178,0.13937867338371115,0.07808564231738035,0.10075566750629723
692120,0.226495224899194,-0.1613114738368552,-0.9410751475938216,-0.19249957944814278,0.7035398230088495,0.6646155973451328,0.09616980088495575,1,0.4351638526873216,0.4981603108558853,0.2980688497061293,0.30394626364399663,0.1385390428211587,0.7909319899244333,0.9974811083123426,0.1528127623845508,0.10663308144416457,0.18723761544920234
713781,0.27141535378011566,-0.14648006500388522,-0.9498011548293591,-0.05248868995972554,0.7288440265486725,0.8561946902654868,0,0.9355936865994979,0.5419689831848974,0.5558956019394106,0.2980688497061293,0.30394626364399663,0.1385390428211587,0.7909319899244333,0.9974811083123426,0.1528127623845508,0.10663308144416457,0.18723761544920234
714592,0.27141535378011566,-0.14648006500388522,-0.9498011548293591,-0.05248868995972554,0.7288440265486725,0.8561946902654868,0,0.9355936865994979,0.5419689831848974,0.5558956019394106,0.2947103274559194,0.2972292191435768,0.12930310663308145,0.8035264483627204,1,0.1561712846347607,0.10747271200671704,0.1998320738874895
727491,0.30651616306752366,-0.16515984413793688,-0.9344409511277952,0.0747674830262279,0.5523368362831859,0.9975110619469026,0.23299225663716813,0.8582923558337059,0.5332003713765001,0.6556514562772945,0.2947103274559194,0.2972292191435768,0.12930310663308145,0.8035264483627204,1,0.1561712846347607,0.10747271200671704,0.1998320738874895
735599,0.30651616306752366,-0.16515984413793688,-0.9344409511277952,0.0747674830262279,0.5523368362831859,0.9975110619469026,0.23299225663716813,0.8582923558337059,0.5332003713765001,0.6556514562772945,0.2703610411418976,0.2502099076406381,0.11167086481947942,0.7069689336691856,0.8144416456759026,0.1452560873215785,0.09739714525608732,0.19731318219983207
751317,0.28905468944511065,-0.16741490987076402,-0.9317985523138733,0.14202497093301783,0.28304756637168144,0.8687776548672567,0.5433490044247787,0.6642825212337953,0.392799422303222,0.5535916921701455,0.2703610411418976,0.2502099076406381,0.11167086481947942,0.7069689336691856,0.8144416456759026,0.1452560873215785,0.09739714525608732,0.19731318219983207
752113,0.28905468944511065,-0.16741490987076402,-0.9317985523138733,0.14202497093301783,0.28304756637168144,0.8687776548672567,0.5433490044247787,0.6642825212337953,0.392799422303222,0.5535916921701455,0.24265323257766583,0.22837951301427373,0.10579345088161209,0.5020990764063812,0.6968933669185559,0.11754827875734676,0.09739714525608732,0.1964735516372796
773773,0.27648931600767374,-0.14715579269194293,-0.9436647494027911,0.10675051074998265,0.7645188053097345,0.7729535398230089,0.5407909292035398,0.3794229909562945,0.42739245555517347,0.38843230975551046,0.24265323257766583,0.22837951301427373,0.10579345088161209,0.5020990764063812,0.6968933669185559,0.11754827875734676,0.09739714525608732,0.1964735516372796
774621,0.27648931600767374,-0.14715579269194293,-0.9436647494027911,0.10675051074998265,0.7645188053097345,0.7729535398230089,0.5407909292035398,0.3794229909562945,0.42739245555517347,0.38843230975551046,0.15952980688497062,0.1494542401343409,0.07892527287993283,0.3593618807724601,0.4609571788413098,0.17380352644836272,0.10075566750629723,0.18723761544920234
787471,0.28991573450661995,-0.1054072575774595,-0.9503132602669626,0.04174786576895327,0.6769911504424779,0.6947594026548672,0.511545907079646,0.3182834152883326,0.5222997833637083,0.2855128778240088,0.15952980688497062,0.1494542401343409,0.07892527287993283,0.3593618807724601,0.4609571788413098,0.17380352644836272,0.10075566750629723,0.18723761544920234
795564,0.28991573450661995,-0.1054072575774595,-0.9503132602669626,0.04174786576895327,0.6769911504424779,0.6947594026548672,0.511545907079646,0.3182834152883326,0.5222997833637083,0.2855128778240088,0.13182199832073888,0.14273719563392107,0.08984047019311503,0.28967254408060455,0.20822837951301426,0.20654911838790932,0.08396305625524769,0.10243492863140219
811269,0.2883829217830712,-0.07781761381447953,-0.9511448577920384,-0.07812278092747749,0.5832411504424779,0.7885785398230089,0.41261061946902655,0.13771878546129776,0.5118118359066057,0.28155840583198655,0.13182199832073888,0.14273719563392107,0.08984047019311503,0.28967254408060455,0.20822837951301426,0.20654911838790932,0.08396305625524769,0.10243492863140219
812092,0.2883829217830712,-0.07781761381447953,-0.9511448577920384,-0.07812278092747749,0.5832411504424779,0.7885785398230089,0.41261061946902655,0.13771878546129776,0.5118118359066057,0.28155840583198655,0.11754827875734676,0.12342569269521411,0.10999160369437448,0.2586062132661629,0.19227539882451722,0.21914357682619648,0.08564231738035265,0.0764063811922754
833828,0.2570060821916475,-0.09057160436295533,-0.9384902697366334,-0.21208647248064,0.5998340707964602,0.9583102876106194,0.3792173672566372,0.05109865547952271,0.4279770296757333,0.390529899246931,0.11754827875734676,0.12342569269521411,0.10999160369437448,0.2586062132661629,0.19227539882451722,0.21914357682619648,0.08564231738035265,0.0764063811922754
834621,0.2570060821916475,-0.09057160436295533,-0.9384902697366334,-0.21208647248064,0.5998340707964602,0.9583102876106194,0.3792173672566372,0.05109865547952271,0.4279770296757333,0.390529899246931,0.09655751469353484,0.12426532325776658,0.12342569269521411,0.22082283795130142,0.18807724601175482,0.22082283795130142,0.08564231738035265,0.0688497061293031
847490,0.22716762593404877,-0.13036809484017414,-0.9062901873978211,-0.3317184435657053,0.6937914823008849,0.962804203539823,0.26991150442477874,0.05632543585158695,0.42109968708091194,0.48643444173171485,0.09655751469353484,0.12426532325776658,0.12342569269521411,0.22082283795130142,0.18807724601175482,0.22082283795130142,0.08564231738035265,0.0688497061293031
855580,0.22716762593404877,-0.13036809484017414,-0.9062901873978211,-0.3317184435657053,0.6937914823008849,0.962804203539823,0.26991150442477874,0.05632543585158695,0.42109968708091194,0.48643444173171485,0.09655751469353484,0.12594458438287154,0.1486146095717884,0.10495382031905962,0.06381192275398824,0.21998320738874896,0.08060453400503778,0.05793450881612091
871297,0.20293274469262323,-0.1715010564169237,-0.8467025465024848,-0.4609777505754536,0.6812085176991151,0.824391592920354,0.21328816371681417,0,0.45975035246380797,0.5006361541900209,0.09655751469353484,0.12594458438287154,0.1486146095717884,0.10495382031905962,0.06381192275398824,0.21998320738874896,0.08060453400503778,0.05793450881612091
872066,0.20293274469262323,-0.1715010564169237,-0.8467025465024848,-0.4609777505754536,0.6812085176991151,0.824391592920354,0.21328816371681417,0,0.45975035246380797,0.5006361541900209,0.09403862300587741,0.10831234256926953,0.15365239294710328,0.11335012594458438,0.06633081444164568,0.16456759026028547,0.07304785894206549,0.05373635600335852
893810,0.16771612836039396,-0.20573910797048325,-0.7987877321618763,-0.5398896912212682,0.5138274336283186,0.46826603982300885,0.07280143805309734,0.1531240328736976,0.40552250610364154,0.4920394759464943,0.09403862300587741,0.10831234256926953,0.15365239294710328,0.11335012594458438,0.06633081444164568,0.16456759026028547,0.07304785894206549,0.05373635600335852
894597,0.16771612836039396,-0.20573910797048325,-0.7987877321618763,-0.5398896912212682,0.5138274336283186,0.46826603982300885,0.07280143805309734,0.1531240328736976,0.40552250610364154,0.4920394759464943,0.1418975650713686,0.15533165407220823,0.1670864819479429,0.14273719563392107,0.15365239294710328,0.10327455919395466,0.06465155331654072,0.054575986565911
907470,0.14672356744833825,-0.20916042664120432,-0.8071016871617409,-0.5322696471368378,0.7421183628318584,0.3644911504424779,0.4681277654867257,0.4943089990027853,0.40820466971562186,0.44788693648774114,0.1418975650713686,0.15533165407220823,0.1670864819479429,0.14273719563392107,0.15365239294710328,0.10327455919395466,0.06465155331654072,0.054575986565911
915596,0.14672356744833825,-0.20916042664120432,-0.8071016871617409,-0.5322696471368378,0.7421183628318584,0.3644911504424779,0.4681277654867257,0.4943089990027853,0.40820466971562186,0.44788693648774114,0.18807724601175482,0.22334172963895885,0.16876574307304787,0.31150293870696893,0.20151133501259447,0.06717044500419815,0.06801007556675064,0.05877413937867338
931271,0.1398844029295111,-0.20122115028734644,-0.8573717680426579,-0.45261026707035523,0.6092367256637168,0.5228844026548672,0.28892422566371684,0.7638320552938345,0.3961693201746845,0.4481964169045081,0.18807724601175482,0.22334172963895885,0.16876574307304787,0.31150293870696893,0.20151133501259447,0.06717044500419815,0.06801007556675064,0.05877413937867338
932114,0.1398844029295111,-0.20122115028734644,-0.8573717680426579,-0.45261026707035523,0.6092367256637168,0.5228844026548672,0.28892422566371684,0.7638320552938345,0.3961693201746845,0.4481964169045081,0.30394626364399663,0.30142737195633923,0.1998320738874895,0.36859781696053734,0.2502099076406381,0.07388748950461797,0.07556675062972293,0.09319899244332494
953762,0.14184389042721354,-0.19140380394997492,-0.9171025376761234,-0.3196370284713069,0.6206443584070797,0.6551438053097345,0.21128318584070796,0.9313641209036828,0.38389326364292836,0.4734018775145284,0.30394626364399663,0.30142737195633923,0.1998320738874895,0.36859781696053734,0.2502099076406381,0.07388748950461797,0.07556675062972293,0.09319899244332494
954579,0.14184389042721354,-0.19140380394997492,-0.9171025376761234,-0.3196370284713069,0.6206443584070797,0.6551438053097345,0.21128318584070796,0.9313641209036828,0.38389326364292836,0.4734018775145284,0.3333333333333333,0.32997481108312343,0.2073887489504618,0.39210747271200674,0.2980688497061293,0.09655751469353484,0.09151973131821999,0.15533165407220823
967420,0.1635661154542569,-0.19127470366926907,-0.9525284939905178,-0.17131719629854444,0.6826603982300885,0.7589186946902655,0.09409568584070796,0.9596987723943469,0.43337574361266806,0.5435507719817063,0.3333333333333333,0.32997481108312343,0.2073887489504618,0.39210747271200674,0.2980688497061293,0.09655751469353484,0.09151973131821999,0.15533165407220823
975614,0.1635661154542569,-0.19127470366926907,-0.9525284939905178,-0.17131719629854444,0.6826603982300885,0.7589186946902655,0.09409568584070796,0.9596987723943469,0.43337574361266806,0.5435507719817063,0.33837111670864817,0.3350125944584383,0.20654911838790932,0.3988245172124265,0.30982367758186397,0.09655751469353484,0.09151973131821999,0.15952980688497062
989971,0.20367294840107592,-0.20611433825305164,-0.9564144745114952,-0.03613256980924092,0.6832134955752213,0.8994745575221239,0.13502488938053098,0.9051614456174134,0.5055190674323441,0.6112238231147484,0.33837111670864817,0.3350125944584383,0.20654911838790932,0.3988245172124265,0.30982367758186397,0.09655751469353484,0.09151973131821999,0.15952980688497062
998065,0.20367294840107592,-0.20611433825305164,-0.9564144745114952,-0.03613256980924092,0.6832134955752213,0.8994745575221239,0.13502488938053098,0.9051614456174134,0.5055190674323441,0.6112238231147484,0.3165407220822838,0.31150293870696893,0.1897565071368598,0.3887489504617968,0.2770780856423174,0.09655751469353484,0.0873215785054576,0.16120906801007556
1012470,0.23535439270938804,-0.23669718229434825,-0.9388540634480826,0.08447367207204176,0.5111310840707964,0.9077710176991151,0.2985342920353982,0.8419930538839793,0.5014958220143736,0.6626663457240123,0.3165407220822838,0.31150293870696893,0.1897565071368598,0.3887489504617968,0.2770780856423174,0.09655751469353484,0.0873215785054576,0.16120906801007556
1020602,0.23535439270938804,-0.23669718229434825,-0.9388540634480826,0.08447367207204176,0.5111310840707964,0.9077710176991151,0.2985342920353982,0.8419930538839793,0.5014958220143736,0.6626663457240123,0.29219143576826195,0.26448362720403024,0.17716204869857263,0.27455919395465994,0.24517212426532325,0.09571788413098237,0.08312342569269521,0.16036943744752308
1027533,0.21630557967206937,-0.22668141165408173,-0.9366324564468331,0.1566750629283866,0.2995713495575221,0.7796598451327433,0.5304894911504425,0.6843643616106736,0.36460231766445445,0.5070320828032049,0.29219143576826195,0.26448362720403024,0.17716204869857263,0.27455919395465994,0.24517212426532325,0.09571788413098237,0.08312342569269521,0.16036943744752308
1035569,0.21630557967206937,-0.22668141165408173,-0.9366324564468331,0.1566750629283866,0.2995713495575221,0.7796598451327433,0.5304894911504425,0.6843643616106736,0.36460231766445445,0.5070320828032049,0.16960537363560033,0.16624685138539042,0.12594458438287154,0.21662468513853905,0.19395465994962216,0.08312342569269521,0.07304785894206549,0.14693534844668346
1049973,0.20861844423040615,-0.20440701279333828,-0.945008593335102,0.14715595934450243,0.7406664823008849,0.8747925884955752,0.47773783185840707,0.4537326776933393,0.4438293043567965,0.401808741102438,0.16960537363560033,0.16624685138539042,0.12594458438287154,0.21662468513853905,0.19395465994962216,0.08312342569269521,0.07304785894206549,0.14693534844668346
1058089,0.20861844423040615,-0.20440701279333828,-0.945008593335102,0.14715595934450243,0.7406664823008849,0.8747925884955752,0.47773783185840707,0.4537326776933393,0.4438293043567965,0.401808741102438,0.10075566750629723,0.09991603694374475,0.08312342569269521,0.19143576826196473,0.11418975650713686,0.08228379513014274,0.05877413937867338,0.08900083963056256
1072456,0.22899323250708842,-0.16649614559683829,-0.9535078015613653,0.10326667094935864,0.6772676991150443,0.7282909292035398,0.4997234513274336,0.3780819091503043,0.5363295622571438,0.32069048519652005,0.10075566750629723,0.09991603694374475,0.08312342569269521,0.19143576826196473,0.11418975650713686,0.08228379513014274,0.05877413937867338,0.08900083963056256
1080543,0.22899323250708842,-0.16649614559683829,-0.9535078015613653,0.10326667094935864,0.6772676991150443,0.7282909292035398,0.4997234513274336,0.3780819091503043,0.5363295622571438,0.32069048519652005,0.11335012594458438,0.10747271200671704,0.08228379513014274,0.17632241813602015,0.08144416456759027,0.09907640638119228,0.06297229219143577,0.08060453400503778
1087521,0.2432851916134999,-0.13330026555039734,-0.9607506776688665,0.001220698402476166,0.5659568584070797,0.7210315265486725,0.37582964601769914,0.19418176816478114,0.5622915305525945,0.2909803651868918,0.11335012594458438,0.10747271200671704,0.08228379513014274,0.17632241813602015,0.08144416456759027,0.09907640638119228,0.06297229219143577,0.08060453400503778
1095569,0.2432851916134999,-0.13330026555039734,-0.9607506776688665,0.001220698402476166,0.5659568584070797,0.7210315265486725,0.37582964601769914,0.19418176816478114,0.5622915305525945,0.2909803651868918,0.12174643157010916,0.1015952980688497,0.09403862300587741,0.17212426532325778,0.08144416456759027,0.11754827875734676,0.06717044500419815,0.07304785894206549
1109941,0.21770101053235436,-0.13005911226365213,-0.9582018125477889,-0.13243935880437593,0.5111310840707964,0.8902101769911505,0.4173119469026549,0.0626182043258485,0.46397991815962314,0.36625287988721156,0.12174643157010916,0.1015952980688497,0.09403862300587741,0.17212426532325778,0.08144416456759027,0.11754827875734676,0.06717044500419815,0.07304785894206549
1118049,0.21770101053235436,-0.13005911226365213,-0.9582018125477889,-0.13243935880437593,0.5111310840707964,0.8902101769911505,0.4173119469026549,0.0626182043258485,0.46397991815962314,0.36625287988721156,0.12174643157010916,0.11838790931989925,0.0982367758186398,0.181360201511335,0.08312342569269521,0.11670864819479429,0.061293031066330814,0.06717044500419815
1132445,0.1873745366209159,-0.15832232833702145,-0.9369337171555961,-0.24895789409665015,0.6793418141592921,0.9775304203539823,0.32148783185840707,0.08046490835940992,0.43481998555758056,0.4778377634881882,0.12174643157010916,0.11838790931989925,0.0982367758186398,0.181360201511335,0.08312342569269521,0.11670864819479429,0.061293031066330814,0.06717044500419815
1140589,0.1873745366209159,-0.15832232833702145,-0.9369337171555961,-0.24895789409665015,0.6793418141592921,0.9775304203539823,0.32148783185840707,0.08046490835940992,0.43481998555758056,0.4778377634881882,0.12426532325776658,0.11502938706968933,0.0982367758186398,0.16792611251049538,0.07892527287993283,0.11586901763224182,0.06381192275398824,0.06297229219143577
1147523,0.16082143069409924,-0.18883548636339392,-0.8945577645857352,-0.3718118238286347,0.7094856194690266,0.8577848451327433,0.24882466814159293,0.04494343385715759,0.4601973797324714,0.49427461228981123,0.12426532325776658,0.11502938706968933,0.0982367758186398,0.16792611251049538,0.07892527287993283,0.11586901763224182,0.06381192275398824,0.06297229219143577
1155545,0.16082143069409924,-0.18883548636339392,-0.8945577645857352,-0.3718118238286347,0.7094856194690266,0.8577848451327433,0.24882466814159293,0.04494343385715759,0.4601973797324714,0.49427461228981123,0.12510495382031905,0.11838790931989925,0.09151973131821999,0.1746431570109152,0.06801007556675064,0.09655751469353484,0.061293031066330814,0.052057094878253565
1169943,0.1364044240851553,-0.20634602140130204,-0.8438154663988174,-0.4762253785845489,0.6008019911504425,0.5189435840707964,0.010647123893805309,0.09611086276262852,0.47481173274646676,0.4743303187648293,0.12510495382031905,0.11838790931989925,0.09151973131821999,0.1746431570109152,0.06801007556675064,0.09655751469353484,0.061293031066330814,0.052057094878253565
1178082,0.1364044240851553,-0.20634602140130204,-0.8438154663988174,-0.4762253785845489,0.6008019911504425,0.5189435840707964,0.010647123893805309,0.09611086276262852,0.47481173274646676,0.4743303187648293,0.12258606213266163,0.13937867338371115,0.10411418975650713,0.1889168765743073,0.08984047019311503,0.08480268681780016,0.06717044500419815,0.05793450881612091
1192457,0.1046702749214545,-0.19963642522919983,-0.827597042527652,-0.5140744756054877,0.6709070796460177,0.46273506637168144,0.4577571902654867,0.333241635432069,0.4335476771775386,0.40490354527010763,0.12258606213266163,0.13937867338371115,0.10411418975650713,0.1889168765743073,0.08984047019311503,0.08480268681780016,0.06717044500419815,0.05793450881612091
1200554,0.1046702749214545,-0.19963642522919983,-0.827597042527652,-0.5140744756054877,0.6709070796460177,0.46273506637168144,0.4577571902654867,0.333241635432069,0.4335476771775386,0.40490354527010763,0.13685978169605373,0.18387909319899245,0.09991603694374475,0.21158690176322417,0.15952980688497062,0.08816120906801007,0.08480268681780016,0.06968933669185558
1207606,0.09099822895349782,-0.1792500324858639,-0.8551148127883689,-0.47787802327692014,0.6480226769911505,0.5340846238938053,0.41323285398230086,0.6137340531618583,0.44173171486537605,0.39544719920222826,0.13685978169605373,0.18387909319899245,0.09991603694374475,0.21158690176322417,0.15952980688497062,0.08816120906801007,0.08480268681780016,0.06968933669185558
