Timestamp, Orientation x, Orientation y, Orientation z, Orientation w, Acceleration x, Acceleration y, Acceleration z, Rotation x, Rotation y, Rotation z, EMG 0, EMG 1, EMG 2, EMG 3, EMG 4, EMG 5, EMG 6, EMG 7
0,0.19977982608247224,0.8858553669217598,0.07776336646167725,0.41146220825601754,0.5497438928289992,0.8754925137903862,0.10520094562647754,0.6419925512104283,0.4856455617628802,0.5649441340782123,0,0,0,0,0,0,0,0
7514,0.18738174213392886,0.8869199006345669,0.05700799581533862,0.4183434725035663,0.594070133963751,0.8434791174152876,0.15228526398739164,0.4720670391061452,0.5042675356921167,0.6434667908131595,0,0,0,0,0,0,0,0
22518,0.18171357055507434,0.8862275212929541,0.03070269599906026,0.4250156505794366,0.5915090622537431,0.7992513790386131,0.2093183609141056,0.41162321539416513,0.49441340782122906,0.6547175667287399,0,0,0,0,0,0,0,0
37520,0.16846123003924546,0.8908303088488361,0.014465692579456946,0.4217024051960677,0.5606776989755713,0.7768912529550828,0.23108747044917258,0.4659373060211049,0.47400682805710737,0.5842644320297952,0,0,0,0,0,0,0,0
59958,0.15351098346279346,0.9003129248811943,0.014832273948890183,0.40700248021069857,0.5195035460992907,0.7520685579196218,0.20636327817178882,0.5280881440099318,0.42186530105524517,0.47028243327126007,0,0,0,0,0,0,0,0
68110,0.15351098346279346,0.9003129248811943,0.014832273948890183,0.40700248021069857,0.5195035460992907,0.7520685579196218,0.20636327817178882,0.5280881440099318,0.42186530105524517,0.47028243327126007,0.07712305025996534,0.04419410745233969,0.03726169844020797,0.06759098786828423,0.2651646447140381,0.134315424610052,0.0779896013864818,0.09098786828422877
82437,0.13569037600829637,0.9127207343464037,0.02154687482272992,0.3847917815367972,0.5702324665090622,0.7458628841607565,0.15051221434200157,0.5638578522656735,0.3687150837988827,0.4237274984481688,0.07712305025996534,0.04419410745233969,0.03726169844020797,0.06759098786828423,0.2651646447140381,0.134315424610052,0.0779896013864818,0.09098786828422877
90616,0.13569037600829637,0.9127207343464037,0.02154687482272992,0.3847917815367972,0.5702324665090622,0.7458628841607565,0.15051221434200157,0.5638578522656735,0.3687150837988827,0.4237274984481688,0.12998266897746968,0.0632582322357019,0.043327556325823226,0.06672443674176777,0.26776429809358754,0.14904679376083188,0.1707105719237435,0.22616984402079723
97558,0.1382511984745495,0.9160591552786044,0.028443734432291423,0.3753840488381808,0.6281520882584712,0.7215327029156816,0.09495665878644602,0.4762569832402235,0.4053382991930478,0.4091402855369336,0.12998266897746968,0.0632582322357019,0.043327556325823226,0.06672443674176777,0.26776429809358754,0.14904679376083188,0.1707105719237435,0.22616984402079723
113051,0.1382511984745495,0.9160591552786044,0.028443734432291423,0.3753840488381808,0.6281520882584712,0.7215327029156816,0.09495665878644602,0.4762569832402235,0.4053382991930478,0.4091402855369336,0.1438474870017331,0.07019064124783363,0.04592720970537262,0.0632582322357019,0.2538994800693241,0.158578856152513,0.18977469670710573,0.24176776429809357
120034,0.15949554735979252,0.9114990465839196,0.028078052730770974,0.37807708394433787,0.6305161544523247,0.7741331757289204,0.08481087470449172,0.32472067039106145,0.49456859093730604,0.4167442582247052,0.1438474870017331,0.07019064124783363,0.04592720970537262,0.0632582322357019,0.2538994800693241,0.158578856152513,0.18977469670710573,0.24176776429809357
128127,0.15949554735979252,0.9114990465839196,0.028078052730770974,0.37807708394433787,0.6305161544523247,0.7741331757289204,0.08481087470449172,0.32472067039106145,0.49456859093730604,0.4167442582247052,0.15511265164644714,0.08145580589254767,0.05285961871750433,0.07105719237435008,0.24350086655112652,0.18717504332755633,0.1975736568457539,0.2608318890814558
145160,0.1919014239713844,0.9010943772549452,0.020264399732347206,0.3883196117385329,0.5963356973995272,0.7839834515366431,0.13416075650118203,0.20895406579764123,0.5646337678460583,0.4342023587833644,0.15511265164644714,0.08145580589254767,0.05285961871750433,0.07105719237435008,0.24350086655112652,0.18717504332755633,0.1975736568457539,0.2608318890814558
146019,0.19977982608247224,0.8858553669217598,0.07776336646167725,0.41146220825601754,0.5497438928289992,0.8754925137903862,0.10520094562647754,0.6419925512104283,0.4856455617628802,0.5649441340782123,0.15511265164644714,0.08145580589254767,0.05285961871750433,0.07105719237435008,0.24350086655112652,0.18717504332755633,0.1975736568457539,0.2608318890814558
146819,0.18738174213392886,0.8869199006345669,0.05700799581533862,0.4183434725035663,0.594070133963751,0.8434791174152876,0.15228526398739164,0.4720670391061452,0.5042675356921167,0.6434667908131595,0.15511265164644714,0.08145580589254767,0.05285961871750433,0.07105719237435008,0.24350086655112652,0.18717504332755633,0.1975736568457539,0.2608318890814558
147681,0.18171357055507434,0.8862275212929541,0.03070269599906026,0.4250156505794366,0.5915090622537431,0.7992513790386131,0.2093183609141056,0.41162321539416513,0.49441340782122906,0.6547175667287399,0.15511265164644714,0.08145580589254767,0.05285961871750433,0.07105719237435008,0.24350086655112652,0.18717504332755633,0.1975736568457539,0.2608318890814558
152611,0.16846123003924546,0.8908303088488361,0.014465692579456946,0.4217024051960677,0.5606776989755713,0.7768912529550828,0.23108747044917258,0.4659373060211049,0.47400682805710737,0.5842644320297952,0.15511265164644714,0.08145580589254767,0.05285961871750433,0.07105719237435008,0.24350086655112652,0.18717504332755633,0.1975736568457539,0.2608318890814558
153512,0.15351098346279346,0.9003129248811943,0.014832273948890183,0.40700248021069857,0.5195035460992907,0.7520685579196218,0.20636327817178882,0.5280881440099318,0.42186530105524517,0.47028243327126007,0.15511265164644714,0.08145580589254767,0.05285961871750433,0.07105719237435008,0.24350086655112652,0.18717504332755633,0.1975736568457539,0.2608318890814558
154239,0.15351098346279346,0.9003129248811943,0.014832273948890183,0.40700248021069857,0.5195035460992907,0.7520685579196218,0.20636327817178882,0.5280881440099318,0.42186530105524517,0.47028243327126007,0.07712305025996534,0.04419410745233969,0.03726169844020797,0.06759098786828423,0.2651646447140381,0.134315424610052,0.0779896013864818,0.09098786828422877
160109,0.15351098346279346,0.9003129248811943,0.014832273948890183,0.40700248021069857,0.5195035460992907,0.7520685579196218,0.20636327817178882,0.5280881440099318,0.42186530105524517,0.47028243327126007,0.12998266897746968,0.0632582322357019,0.043327556325823226,0.06672443674176777,0.26776429809358754,0.14904679376083188,0.1707105719237435,0.22616984402079723
176050,0.1382511984745495,0.9160591552786044,0.028443734432291423,0.3753840488381808,0.6281520882584712,0.7215327029156816,0.09495665878644602,0.4762569832402235,0.4053382991930478,0.4091402855369336,0.12998266897746968,0.0632582322357019,0.043327556325823226,0.06672443674176777,0.26776429809358754,0.14904679376083188,0.1707105719237435,0.22616984402079723
176836,0.1382511984745495,0.9160591552786044,0.028443734432291423,0.3753840488381808,0.6281520882584712,0.7215327029156816,0.09495665878644602,0.4762569832402235,0.4053382991930478,0.4091402855369336,0.1438474870017331,0.07019064124783363,0.04592720970537262,0.0632582322357019,0.2538994800693241,0.158578856152513,0.18977469670710573,0.24176776429809357
198527,0.15949554735979252,0.9114990465839196,0.028078052730770974,0.37807708394433787,0.6305161544523247,0.7741331757289204,0.08481087470449172,0.32472067039106145,0.49456859093730604,0.4167442582247052,0.1438474870017331,0.07019064124783363,0.04592720970537262,0.0632582322357019,0.2538994800693241,0.158578856152513,0.18977469670710573,0.24176776429809357
199316,0.15949554735979252,0.9114990465839196,0.028078052730770974,0.37807708394433787,0.6305161544523247,0.7741331757289204,0.08481087470449172,0.32472067039106145,0.49456859093730604,0.4167442582247052,0.15511265164644714,0.08145580589254767,0.05285961871750433,0.07105719237435008,0.24350086655112652,0.18717504332755633,0.1975736568457539,0.2608318890814558
221036,0.1919014239713844,0.9010943772549452,0.020264399732347206,0.3883196117385329,0.5963356973995272,0.7839834515366431,0.13416075650118203,0.20895406579764123,0.5646337678460583,0.4342023587833644,0.15511265164644714,0.08145580589254767,0.05285961871750433,0.07105719237435008,0.24350086655112652,0.18717504332755633,0.1975736568457539,0.2608318890814558
221840,0.1919014239713844,0.9010943772549452,0.020264399732347206,0.3883196117385329,0.5963356973995272,0.7839834515366431,0.13416075650118203,0.20895406579764123,0.5646337678460583,0.4342023587833644,0.1559792027729636,0.0805892547660312,0.05285961871750433,0.07019064124783363,0.22097053726169844,0.18890814558058924,0.2001733102253033,0.2634315424610052
243540,0.22498715511541365,0.8898162635031199,0.007263557096780853,0.39693203193584775,0.5668833727344366,0.7628053585500394,0.1392828999211978,0.1856765983860956,0.5522191185599007,0.4618249534450652,0.1559792027729636,0.0805892547660312,0.05285961871750433,0.07019064124783363,0.22097053726169844,0.18890814558058924,0.2001733102253033,0.2634315424610052
244313,0.22498715511541365,0.8898162635031199,0.007263557096780853,0.39693203193584775,0.5668833727344366,0.7628053585500394,0.1392828999211978,0.1856765983860956,0.5522191185599007,0.4618249534450652,0.16291161178509533,0.14038128249566725,0.1291161178509532,0.08145580589254767,0.2045060658578856,0.18110918544194107,0.2027729636048527,0.2668977469670711
266026,0.2545253970413547,0.8788145483456654,-0.005127130300113619,0.4035783993375149,0.5752561071710008,0.7502955082742316,0.13908589440504335,0.2292054624456859,0.521260086902545,0.47423960273122284,0.16291161178509533,0.14038128249566725,0.1291161178509532,0.08145580589254767,0.2045060658578856,0.18110918544194107,0.2027729636048527,0.2668977469670711
266809,0.2545253970413547,0.8788145483456654,-0.005127130300113619,0.4035783993375149,0.5752561071710008,0.7502955082742316,0.13908589440504335,0.2292054624456859,0.521260086902545,0.47423960273122284,0.1317157712305026,0.41161178509532065,0.24436741767764297,0.21923743500866552,0.3093587521663778,0.2019064124783362,0.15251299826689774,0.17590987868284227
288511,0.27431028148075515,0.8697479307564041,-0.01709098326982898,0.40987840234607714,0.6151497241922774,0.722123719464145,0.10717100078802207,0.294925512104283,0.5136561142147734,0.49922408441961513,0.1317157712305026,0.41161178509532065,0.24436741767764297,0.21923743500866552,0.3093587521663778,0.2019064124783362,0.15251299826689774,0.17590987868284227
289378,0.27431028148075515,0.8697479307564041,-0.01709098326982898,0.40987840234607714,0.6151497241922774,0.722123719464145,0.10717100078802207,0.294925512104283,0.5136561142147734,0.49922408441961513,0.1369150779896014,0.5450606585788561,0.32582322357019067,0.27469670710571925,0.5415944540727903,0.2530329289428076,0.14211438474870017,0.16724436741767765
310994,0.28725057491013084,0.861507567845641,-0.027833884861670138,0.41775242980980354,0.6425334909377463,0.7335500394011032,0.14972419227738376,0.3431098696461825,0.5226567349472377,0.5145872129112352,0.1369150779896014,0.5450606585788561,0.32582322357019067,0.27469670710571925,0.5415944540727903,0.2530329289428076,0.14211438474870017,0.16724436741767765
311784,0.28725057491013084,0.861507567845641,-0.027833884861670138,0.41775242980980354,0.6425334909377463,0.7335500394011032,0.14972419227738376,0.3431098696461825,0.5226567349472377,0.5145872129112352,0.15684575389948008,0.5623916811091855,0.34748700173310226,0.2972270363951473,0.608318890814558,0.25476603119584057,0.14298093587521662,0.14731369150779897
333509,0.28681603012976736,0.858616960169278,-0.033570720700440954,0.42354041989156327,0.6607565011820331,0.7504925137903862,0.20025610717100079,0.45010862818125386,0.5017070142768467,0.5178460583488517,0.15684575389948008,0.5623916811091855,0.34748700173310226,0.2972270363951473,0.608318890814558,0.25476603119584057,0.14298093587521662,0.14731369150779897
334288,0.28681603012976736,0.858616960169278,-0.033570720700440954,0.42354041989156327,0.6607565011820331,0.7504925137903862,0.20025610717100079,0.45010862818125386,0.5017070142768467,0.5178460583488517,0.27469670710571925,0.584055459272097,0.3708838821490468,0.31022530329289427,0.7218370883882149,0.304159445407279,0.17417677642980936,0.18024263431542462
356040,0.2762561739146695,0.8622171260977952,-0.027833145228698473,0.42366197594823707,0.6581954294720253,0.750886524822695,0.16932624113475178,0.5583488516449411,0.4684202358783364,0.4653941651148355,0.27469670710571925,0.584055459272097,0.3708838821490468,0.31022530329289427,0.7218370883882149,0.304159445407279,0.17417677642980936,0.18024263431542462
356856,0.2762561739146695,0.8622171260977952,-0.027833145228698473,0.42366197594823707,0.6581954294720253,0.750886524822695,0.16932624113475178,0.5583488516449411,0.4684202358783364,0.4653941651148355,0.3483535528596187,0.6039861351819757,0.39428076256499134,0.33535528596187175,0.8362218370883883,0.37261698440207974,0.1854419410745234,0.17677642980935876
378497,0.2622171231256038,0.8691130391493185,-0.010010150882821001,0.419266624476204,0.6181048069345941,0.6897163120567376,0.1378053585500394,0.6217411545623837,0.45360024829298573,0.3923805090006207,0.3483535528596187,0.6039861351819757,0.39428076256499134,0.33535528596187175,0.8362218370883883,0.37261698440207974,0.1854419410745234,0.17677642980935876
379307,0.2622171231256038,0.8691130391493185,-0.010010150882821001,0.419266624476204,0.6181048069345941,0.6897163120567376,0.1378053585500394,0.6217411545623837,0.45360024829298573,0.3923805090006207,0.4306759098786828,0.4982668977469671,0.3752166377816291,0.28422876949740034,0.8925476603119584,0.5155979202772963,0.26776429809358754,0.22357019064124783
400962,0.24494176066377885,0.8757598759042858,0.019348751091556916,0.4155403704458028,0.5813632781717888,0.6982860520094563,0.11908983451536644,0.6762104283054003,0.47998137802607077,0.33178150217256364,0.4306759098786828,0.4982668977469671,0.3752166377816291,0.28422876949740034,0.8925476603119584,0.5155979202772963,0.26776429809358754,0.22357019064124783
401795,0.24494176066377885,0.8757598759042858,0.019348751091556916,0.4155403704458028,0.5813632781717888,0.6982860520094563,0.11908983451536644,0.6762104283054003,0.47998137802607077,0.33178150217256364,0.46013864818024264,0.35528596187175043,0.33015597920277295,0.2582322357019064,0.8518197573656846,0.5268630849220104,0.3396880415944541,0.27469670710571925
423545,0.22095616420624098,0.8819324907778939,0.04864697869402598,0.41352983770643165,0.5614657210401891,0.7814223798266351,0.12588652482269502,0.7164028553693358,0.4931719428926133,0.3549037864680323,0.46013864818024264,0.35528596187175043,0.33015597920277295,0.2582322357019064,0.8518197573656846,0.5268630849220104,0.3396880415944541,0.27469670710571925
424335,0.22095616420624098,0.8819324907778939,0.04864697869402598,0.41352983770643165,0.5614657210401891,0.7814223798266351,0.12588652482269502,0.7164028553693358,0.4931719428926133,0.3549037864680323,0.49740034662045063,0.3379549393414211,0.31542461005199307,0.24436741767764297,0.8500866551126517,0.5580589254766031,0.3752166377816291,0.2954939341421144
445983,0.19312351747877687,0.8849866877132698,0.0657987205569284,0.41853601749430247,0.5681639085894405,0.8580575256107171,0.11928684003152089,0.6975481067659839,0.5283209186840472,0.4525915580384854,0.49740034662045063,0.3379549393414211,0.31542461005199307,0.24436741767764297,0.8500866551126517,0.5580589254766031,0.3752166377816291,0.2954939341421144
446806,0.19312351747877687,0.8849866877132698,0.0657987205569284,0.41853601749430247,0.5681639085894405,0.8580575256107171,0.11928684003152089,0.6975481067659839,0.5283209186840472,0.4525915580384854,0.44974003466204504,0.30329289428076256,0.292894280762565,0.2339688041594454,0.8050259965337955,0.5381282495667244,0.36395147313691506,0.2876949740034662
468518,0.16712359901143262,0.883838463727372,0.0635411492223891,0.43227513812964424,0.5654058313632782,0.8971631205673759,0.13573680063041765,0.6183271260086902,0.5683581626319056,0.5792985723153321,0.44974003466204504,0.30329289428076256,0.292894280762565,0.2339688041594454,0.8050259965337955,0.5381282495667244,0.36395147313691506,0.2876949740034662
469331,0.16712359901143262,0.883838463727372,0.0635411492223891,0.43227513812964424,0.5654058313632782,0.8971631205673759,0.13573680063041765,0.6183271260086902,0.5683581626319056,0.5792985723153321,0.40641247833622185,0.2391681109185442,0.23483535528596186,0.19150779896013864,0.6802426343154246,0.4878682842287695,0.3596187175043328,0.2833622183708839
491035,0.14575397518116484,0.8824585314779235,0.04516664222531909,0.44495246192240023,0.5808707643814027,0.828408195429472,0.24300630417651695,0.5326660459342023,0.5539261328367474,0.6634854127870887,0.40641247833622185,0.2391681109185442,0.23483535528596186,0.19150779896013864,0.6802426343154246,0.4878682842287695,0.3596187175043328,0.2833622183708839
491809,0.14575397518116484,0.8824585314779235,0.04516664222531909,0.44495246192240023,0.5808707643814027,0.828408195429472,0.24300630417651695,0.5326660459342023,0.5539261328367474,0.6634854127870887,0.33188908145580587,0.15424610051993068,0.16464471403812825,0.16897746967071056,0.5641247833622184,0.33535528596187175,0.32582322357019067,0.25476603119584057
513487,0.12201244501682826,0.8830795670352533,0.03796485282664691,0.4514887722808798,0.5591016548463357,0.7453703703703703,0.27383766745468874,0.55532278088144,0.5600558659217877,0.5675822470515208,0.33188908145580587,0.15424610051993068,0.16464471403812825,0.16897746967071056,0.5641247833622184,0.33535528596187175,0.32582322357019067,0.25476603119584057
514296,0.12201244501682826,0.8830795670352533,0.03796485282664691,0.4514887722808798,0.5591016548463357,0.7453703703703703,0.27383766745468874,0.55532278088144,0.5600558659217877,0.5675822470515208,0.2937608318890815,0.1369150779896014,0.12564991334488734,0.17504332755632582,0.597053726169844,0.3431542461005199,0.27989601386481805,0.22270363951473138
535985,0.10974615060848324,0.8829743129601326,0.06384564712818325,0.45192463798954946,0.39273049645390073,0.6919818754925138,0.20340819542947203,0.6295003103662321,0.49806021104903786,0.3466014897579143,0.2937608318890815,0.1369150779896014,0.12564991334488734,0.17504332755632582,0.597053726169844,0.3431542461005199,0.27989601386481805,0.22270363951473138
536808,0.10974615060848324,0.8829743129601326,0.06384564712818325,0.45192463798954946,0.39273049645390073,0.6919818754925138,0.20340819542947203,0.6295003103662321,0.49806021104903786,0.3466014897579143,0.21143847487001732,0.11525129982668977,0.11091854419410745,0.19410745233968804,0.5563258232235702,0.2902946273830156,0.24090121317157712,0.19930675909878684
558525,0.10455652647640293,0.8881506227426381,0.08722199435772317,0.4389176776951626,0.5717100078802206,0.7543341213553979,0.1272655634357762,0.5871353196772191,0.3914494103041589,0.3313935443823712,0.21143847487001732,0.11525129982668977,0.11091854419410745,0.19410745233968804,0.5563258232235702,0.2902946273830156,0.24090121317157712,0.19930675909878684
559336,0.10455652647640293,0.8881506227426381,0.08722199435772317,0.4389176776951626,0.5717100078802206,0.7543341213553979,0.1272655634357762,0.5871353196772191,0.3914494103041589,0.3313935443823712,0.21490467937608318,0.11265164644714037,0.11178509532062392,0.2530329289428076,0.537261698440208,0.304159445407279,0.24263431542461006,0.18717504332755633
581002,0.1288526233439653,0.8854268849964758,0.08997099327759585,0.43740307858022515,0.7454688731284476,0.7655634357762018,0.047576832151300236,0.3234016139044072,0.455074487895717,0.37321539416511484,0.21490467937608318,0.11265164644714037,0.11178509532062392,0.2530329289428076,0.537261698440208,0.304159445407279,0.24263431542461006,0.18717504332755633
581785,0.1288526233439653,0.8854268849964758,0.08997099327759585,0.43740307858022515,0.7454688731284476,0.7655634357762018,0.047576832151300236,0.3234016139044072,0.455074487895717,0.37321539416511484,0.1923743500866551,0.13518197573656845,0.10658578856152513,0.2668977469670711,0.5415944540727903,0.30329289428076256,0.24003466204506066,0.18977469670710573
603545,0.1725590358760936,0.8717680050875023,0.07636057795578108,0.4521205442993369,0.7071513002364066,0.8298857368006304,0.08924349881796691,0.12918994413407822,0.5645561762880199,0.4238050900062073,0.1923743500866551,0.13518197573656845,0.10658578856152513,0.2668977469670711,0.5415944540727903,0.30329289428076256,0.24003466204506066,0.18977469670710573
604315,0.1725590358760936,0.8717680050875023,0.07636057795578108,0.4521205442993369,0.7071513002364066,0.8298857368006304,0.08924349881796691,0.12918994413407822,0.5645561762880199,0.4238050900062073,0.1681109185441941,0.14558058925476602,0.12391681109185441,0.2755632582322357,0.5563258232235702,0.292894280762565,0.2045060658578856,0.17850953206239167
625984,0.22120074237398302,0.8553827824583328,0.050539242462929894,0.46565686080880697,0.6176122931442081,0.8016154452324665,0.14479905437352245,0.05648665425201738,0.5477188081936686,0.48060211049037865,0.1681109185441941,0.14558058925476602,0.12391681109185441,0.2755632582322357,0.5563258232235702,0.292894280762565,0.2045060658578856,0.17850953206239167
626784,0.22120074237398302,0.8553827824583328,0.050539242462929894,0.46565686080880697,0.6176122931442081,0.8016154452324665,0.14479905437352245,0.05648665425201738,0.5477188081936686,0.48060211049037865,0.14471403812824957,0.14991334488734837,0.11871750433275563,0.2850953206239168,0.44280762564991333,0.21923743500866552,0.15511265164644714,0.1360485268630849
648502,0.2689412149096904,0.8455228572240199,0.00640917557092998,0.4612164820375898,0.5881599684791174,0.762608353033885,0.20350669818754924,0,0.4065797641216636,0.5567194289261328,0.14471403812824957,0.14991334488734837,0.11871750433275563,0.2850953206239168,0.44280762564991333,0.21923743500866552,0.15511265164644714,0.1360485268630849
649314,0.2689412149096904,0.8455228572240199,0.00640917557092998,0.4612164820375898,0.5881599684791174,0.762608353033885,0.20350669818754924,0,0.4065797641216636,0.5567194289261328,0.1611785095320624,0.14818024263431542,0.12045060658578856,0.27642980935875217,0.574523396880416,0.21923743500866552,0.12738301559792028,0.1169844020797227
671027,0.31306789386983014,0.8409922873344745,-0.03619599552833092,0.43978439760813537,0.7051812450748621,0.7259653270291568,0.2402482269503546,0.05547796399751707,0.27149286157666047,0.5394941030415891,0.1611785095320624,0.14818024263431542,0.12045060658578856,0.27642980935875217,0.574523396880416,0.21923743500866552,0.12738301559792028,0.1169844020797227
671830,0.31306789386983014,0.8409922873344745,-0.03619599552833092,0.43978439760813537,0.7051812450748621,0.7259653270291568,0.2402482269503546,0.05547796399751707,0.27149286157666047,0.5394941030415891,0.22357019064124783,0.17764298093587522,0.158578856152513,0.2634315424610052,0.7374350086655113,0.3076256499133449,0.1923743500866551,0.1291161178509532
693475,0.3196620655011503,0.8498481836877058,-0.05231055759680844,0.41573769870695715,0.6907013396375099,0.6757289204097715,0.2361111111111111,0.3931564245810056,0.2631905648665425,0.4897579143389199,0.22357019064124783,0.17764298093587522,0.158578856152513,0.2634315424610052,0.7374350086655113,0.3076256499133449,0.1923743500866551,0.1291161178509532
694286,0.3196620655011503,0.8498481836877058,-0.05231055759680844,0.41573769870695715,0.6907013396375099,0.6757289204097715,0.2361111111111111,0.3931564245810056,0.2631905648665425,0.4897579143389199,0.24956672443674177,0.20363951473136915,0.2045060658578856,0.27902946273830154,0.8370883882149047,0.43847487001733104,0.2902946273830156,0.13344887348353554
715804,0.2836389368540097,0.8711200574091729,-0.03180027675940156,0.3996092359765874,0.5921985815602837,0.636327817178881,0.1456855791962175,0.7903476101800124,0.34210117939168216,0.4067349472377405,0.24956672443674177,0.20363951473136915,0.2045060658578856,0.27902946273830154,0.8370883882149047,0.43847487001733104,0.2902946273830156,0.13344887348353554
716566,0.2836389368540097,0.8711200574091729,-0.03180027675940156,0.3996092359765874,0.5921985815602837,0.636327817178881,0.1456855791962175,0.7903476101800124,0.34210117939168216,0.4067349472377405,0.3093587521663778,0.20883882149046792,0.21403812824956672,0.292894280762565,0.8908145580589255,0.5138648180242634,0.4055459272097054,0.18284228769497402
738461,0.23445213862707767,0.889953705072323,0.018922198118821683,0.3907128714792826,0.5204885736800631,0.62677304964539,0.0801812450748621,0.9553848541278709,0.4515828677839851,0.2723463687150838,0.3093587521663778,0.20883882149046792,0.21403812824956672,0.292894280762565,0.8908145580589255,0.5138648180242634,0.4055459272097054,0.18284228769497402
739287,0.23445213862707767,0.889953705072323,0.018922198118821683,0.3907128714792826,0.5204885736800631,0.62677304964539,0.0801812450748621,0.9553848541278709,0.4515828677839851,0.2723463687150838,0.36915077989601386,0.22357019064124783,0.2391681109185442,0.29982668977469673,1,0.5944540727902946,0.49740034662045063,0.22270363951473138
760937,0.1777371092551882,0.9061418695063613,0.06964218463604731,0.3774472127864299,0.4848305752561072,0.741725768321513,0.10657998423955871,1,0.43265052762259465,0.28538175046554937,0.36915077989601386,0.22357019064124783,0.2391681109185442,0.29982668977469673,1,0.5944540727902946,0.49740034662045063,0.22270363951473138
761758,0.1777371092551882,0.9061418695063613,0.06964218463604731,0.3774472127864299,0.4848305752561072,0.741725768321513,0.10657998423955871,1,0.43265052762259465,0.28538175046554937,0.3682842287694974,0.2244367417677643,0.24090121317157712,0.2920277296360485,0.9445407279029463,0.6230502599653379,0.511265164644714,0.22357019064124783
783538,0.1232995812177918,0.9106467585090277,0.09058246461742725,0.38381572608785886,0.5560480693459416,0.9061268715524035,0.010638297872340425,0.8797330850403476,0.5521415270018621,0.49061142147734327,0.3682842287694974,0.2244367417677643,0.24090121317157712,0.2920277296360485,0.9445407279029463,0.6230502599653379,0.511265164644714,0.22357019064124783
784314,0.1232995812177918,0.9106467585090277,0.09058246461742725,0.38381572608785886,0.5560480693459416,0.9061268715524035,0.010638297872340425,0.8797330850403476,0.5521415270018621,0.49061142147734327,0.32495667244367415,0.2045060658578856,0.21837088388214904,0.26603119584055457,0.8180242634315424,0.6091854419410745,0.49740034662045063,0.21057192374350087
805986,0.090823362040166,0.9078063599619549,0.06830063314714097,0.4037000783156303,0.6249014972419228,1,0.09269109535066981,0.6035071384233396,0.6072315332091869,0.7182650527622595,0.32495667244367415,0.2045060658578856,0.21837088388214904,0.26603119584055457,0.8180242634315424,0.6091854419410745,0.49740034662045063,0.21057192374350087
806785,0.090823362040166,0.9078063599619549,0.06830063314714097,0.4037000783156303,0.6249014972419228,1,0.09269109535066981,0.6035071384233396,0.6072315332091869,0.7182650527622595,0.30155979202772965,0.1559792027729636,0.18024263431542462,0.24090121317157712,0.7192374350086655,0.5311958405545927,0.4480069324090121,0.2027729636048527
828497,0.08826209429449973,0.9010546583509025,0.023560973995627173,0.42397545433581957,0.6902088258471237,0.7735421591804571,0.3004334121355398,0.33798882681564246,0.5914028553693358,0.7698634388578522,0.30155979202772965,0.1559792027729636,0.18024263431542462,0.24090121317157712,0.7192374350086655,0.5311958405545927,0.4480069324090121,0.2027729636048527
829263,0.08826209429449973,0.9010546583509025,0.023560973995627173,0.42397545433581957,0.6902088258471237,0.7735421591804571,0.3004334121355398,0.33798882681564246,0.5914028553693358,0.7698634388578522,0.23743500866551126,0.14038128249566725,0.16031195840554593,0.22530329289428075,0.6646447140381283,0.46013864818024264,0.3587521663778163,0.1637781629116118
850985,0.09168056334811003,0.8994095212612526,0.018861047985729695,0.426967736764334,0.33599290780141844,0.7355200945626478,0.27452718676122934,0.3990533829919305,0.5924115456238361,0.48052451893234016,0.23743500866551126,0.14038128249566725,0.16031195840554593,0.22530329289428075,0.6646447140381283,0.46013864818024264,0.3587521663778163,0.1637781629116118
851805,0.09168056334811003,0.8994095212612526,0.018861047985729695,0.426967736764334,0.33599290780141844,0.7355200945626478,0.27452718676122934,0.3990533829919305,0.5924115456238361,0.48052451893234016,0.14298093587521662,0.10831889081455806,0.11611785095320624,0.19064124783362218,0.4584055459272097,0.38388214904679374,0.292894280762565,0.1637781629116118
873475,0.07818896399720764,0.9114110932133525,0.05377398694889925,0.40040562359225773,0.45656028368794327,0.6469661150512215,0.20921985815602837,0.6585195530726257,0.30873680943513343,0.2596989447548107,0.14298093587521662,0.10831889081455806,0.11611785095320624,0.19064124783362218,0.4584055459272097,0.38388214904679374,0.292894280762565,0.1637781629116118
874264,0.07818896399720764,0.9114110932133525,0.05377398694889925,0.40040562359225773,0.45656028368794327,0.6469661150512215,0.20921985815602837,0.6585195530726257,0.30873680943513343,0.2596989447548107,0.13258232235701906,0.09965337954939342,0.10138648180242635,0.2045060658578856,0.44974003466204504,0.3327556325823224,0.27469670710571925,0.16984402079722705
896011,0.08020220595415815,0.9167710300087181,0.07202328997405374,0.3845921611241633,0.7009456264775413,0.6360323089046493,0,0.5170701427684667,0.3609559279950341,0.3382991930477964,0.13258232235701906,0.09965337954939342,0.10138648180242635,0.2045060658578856,0.44974003466204504,0.3327556325823224,0.27469670710571925,0.16984402079722705
896862,0.08020220595415815,0.9167710300087181,0.07202328997405374,0.3845921611241633,0.7009456264775413,0.6360323089046493,0,0.5170701427684667,0.3609559279950341,0.3382991930477964,0.14298093587521662,0.09185441941074524,0.09445407279029462,0.207105719237435,0.4098786828422877,0.2824956672443674,0.26776429809358754,0.17244367417677642
