Timestamp, Orientation x, Orientation y, Orientation z, Orientation w, Acceleration x, Acceleration y, Acceleration z, Rotation x, Rotation y, Rotation z, EMG 0, EMG 1, EMG 2, EMG 3, EMG 4, EMG 5, EMG 6, EMG 7
0,-0.00024413113179328752,-0.8941302701929156,0.33714509300653006,-0.29472730885744636,0.5901733440477557,0.6518195385145219,0.26288600619905866,0.5593899696940072,0.5478541401896568,0.5259556163847884,0,0,0,0,0,0,0,0
783,0.0038450438344570905,-0.8932708184303806,0.33628875441045347,-0.29826554315860004,0.5967167948570773,0.6556078521409712,0.26196762713810123,0.5553817577475804,0.548831752859517,0.5329944276077818,0,0,0,0,0,0,0,0
6829,0.0076291210296368945,-0.892240962658094,0.33574235827226045,-0.30186906090067267,0.6019974744575823,0.6495235908621283,0.2584089082768913,0.5522533972040278,0.5507869781992375,0.5351451754814742,0,0,0,0,0,0,0,0
29747,0.012390079438488778,-0.89098709183773,0.33538663307633415,-0.3057847191469398,0.6038342325794972,0.6397658133394558,0.25863850304213065,0.558412357024147,0.5513735458011536,0.5383712972920129,0,0,0,0,0,0,0,0
44272,0.016600908057217437,-0.8899795635674436,0.33464256940339415,-0.30931397806609545,0.6025714613706807,0.6453908850878199,0.259212489955229,0.5576302668882589,0.5500048880633494,0.5358295043503764,0,0,0,0,0,0,0,0
59944,0.016600908057217437,-0.8899795635674436,0.33464256940339415,-0.30931397806609545,0.6025714613706807,0.6453908850878199,0.259212489955229,0.5576302668882589,0.5500048880633494,0.5358295043503764,0.034726309593878756,0.02707474985285462,0.028251912889935255,0.0329605650382578,0.028840494408475574,0.06062389640965274,0.0329605650382578,0.022366097704532076
66893,0.020080054005179614,-0.8889543665210975,0.3342810206272606,-0.3124309922568828,0.6014234875444839,0.6469980484444955,0.2618528297554816,0.5518623521360837,0.5501026493303354,0.5374914458891388,0.034726309593878756,0.02707474985285462,0.028251912889935255,0.0329605650382578,0.028840494408475574,0.06062389640965274,0.0329605650382578,0.022366097704532076
82421,0.020080054005179614,-0.8889543665210975,0.3342810206272606,-0.3124309922568828,0.6014234875444839,0.6469980484444955,0.2618528297554816,0.5518623521360837,0.5501026493303354,0.5374914458891388,0.03531489111241907,0.025897586815773983,0.023543260741612712,0.02942907592701589,0.03001765744555621,0.05650382577987051,0.0329605650382578,0.018246027074749854
89394,0.02258232976926317,-0.8880348598453489,0.3342184805850949,-0.3149319502956701,0.6006199058661462,0.6513603489840432,0.26254161405119963,0.543552644442272,0.548538469058559,0.5383712972920129,0.03531489111241907,0.025897586815773983,0.023543260741612712,0.02942907592701589,0.03001765744555621,0.05650382577987051,0.0329605650382578,0.018246027074749854
105607,0.02258232976926317,-0.8880348598453489,0.3342184805850949,-0.3149319502956701,0.6006199058661462,0.6513603489840432,0.26254161405119963,0.543552644442272,0.548538469058559,0.5383712972920129,0.03590347263095939,0.026486168334314303,0.023543260741612712,0.028251912889935255,0.025897586815773983,0.04414361389052384,0.02707474985285462,0.018246027074749854
107327,0.025024431868151526,-0.887024556926454,0.3343508238383758,-0.3174440735274539,0.6055561933187923,0.645735277235679,0.26391918264263575,0.5413041353015935,0.5472675725877407,0.5400332388307753,0.03590347263095939,0.026486168334314303,0.023543260741612712,0.028251912889935255,0.025897586815773983,0.04414361389052384,0.02707474985285462,0.018246027074749854
119905,0.025024431868151526,-0.887024556926454,0.3343508238383758,-0.3174440735274539,0.6055561933187923,0.645735277235679,0.26391918264263575,0.5413041353015935,0.5472675725877407,0.5400332388307753,0.03531489111241907,0.02707474985285462,0.02118893466745144,0.025897586815773983,0.022954679223072396,0.032371983519717484,0.025897586815773983,0.018246027074749854
126871,0.02819792505704969,-0.885915329443888,0.33477406696518947,-0.3198206218591783,0.5992423372747101,0.6385030421306395,0.2695442543909999,0.5441392120441881,0.5462899599178805,0.5426727930393977,0.03531489111241907,0.02707474985285462,0.02118893466745144,0.025897586815773983,0.022954679223072396,0.032371983519717484,0.025897586815773983,0.018246027074749854
142406,0.02819792505704969,-0.885915329443888,0.33477406696518947,-0.3198206218591783,0.5992423372747101,0.6385030421306395,0.2695442543909999,0.5441392120441881,0.5462899599178805,0.5426727930393977,0.03649205414949971,0.026486168334314303,0.022366097704532076,0.025897586815773983,0.022954679223072396,0.026486168334314303,0.02177751618599176,0.018246027074749854
149356,0.03137162779334617,-0.8848752135173791,0.3350782812946897,-0.32207797639199953,0.6000459189530478,0.6389622316611181,0.2679370910343244,0.5457033923159644,0.5455078697819924,0.5424772705054257,0.03649205414949971,0.026486168334314303,0.022366097704532076,0.025897586815773983,0.022954679223072396,0.026486168334314303,0.02177751618599176,0.018246027074749854
165584,0.03137162779334617,-0.8848752135173791,0.3350782812946897,-0.32207797639199953,0.6000459189530478,0.6389622316611181,0.2679370910343244,0.5457033923159644,0.5455078697819924,0.5424772705054257,0.034137728075338436,0.023543260741612712,0.022366097704532076,0.026486168334314303,0.023543260741612712,0.030606238964096526,0.025897586815773983,0.01883460859329017
167297,0.03375213869694796,-0.8838421708327368,0.33562931409496716,-0.3240937730213267,0.5987831477442315,0.6419469636092298,0.267018711973367,0.5403265226317333,0.5468765275197967,0.5430638381073418,0.034137728075338436,0.023543260741612712,0.022366097704532076,0.026486168334314303,0.023543260741612712,0.030606238964096526,0.025897586815773983,0.01883460859329017
179877,0.03375213869694796,-0.8838421708327368,0.33562931409496716,-0.3240937730213267,0.5987831477442315,0.6419469636092298,0.267018711973367,0.5403265226317333,0.5468765275197967,0.5430638381073418,0.03649205414949971,0.02177751618599176,0.022366097704532076,0.024720423778693348,0.022954679223072396,0.0329605650382578,0.025309005297233667,0.018246027074749854
186941,0.03594931691962483,-0.8828029200771708,0.3364221304940103,-0.32586316304563157,0.6006199058661462,0.645046492939961,0.26472276432097347,0.5402287613647473,0.5464854824518526,0.5464854824518526,0.03649205414949971,0.02177751618599176,0.022366097704532076,0.024720423778693348,0.022954679223072396,0.0329605650382578,0.025309005297233667,0.018246027074749854
202406,0.03594931691962483,-0.8828029200771708,0.3364221304940103,-0.32586316304563157,0.6006199058661462,0.645046492939961,0.26472276432097347,0.5402287613647473,0.5464854824518526,0.5464854824518526,0.03884638022366098,0.02118893466745144,0.022366097704532076,0.02118893466745144,0.023543260741612712,0.033549146556798116,0.02413184226015303,0.020011771630370805
209326,0.0382063489953764,-0.8815535221872471,0.337204597762707,-0.32817178681811326,0.6078521409711859,0.633337159912754,0.26541154861669153,0.538469058558999,0.548636230325545,0.5454101085150064,0.03884638022366098,0.02118893466745144,0.022366097704532076,0.02118893466745144,0.023543260741612712,0.033549146556798116,0.02413184226015303,0.020011771630370805
233043,0.0382063489953764,-0.8815535221872471,0.337204597762707,-0.32817178681811326,0.6078521409711859,0.633337159912754,0.26541154861669153,0.538469058558999,0.548636230325545,0.5454101085150064,0.047675103001765744,0.020011771630370805,0.02118893466745144,0.02118893466745144,0.024720423778693348,0.050029429075927015,0.02413184226015303,0.020011771630370805
234791,0.039915679656298594,-0.8800980132168589,0.3379405477934638,-0.3311048350694493,0.61347721271955,0.6292044541384456,0.26449316955573415,0.5361227881513344,0.5551862352136083,0.5439436895102161,0.047675103001765744,0.020011771630370805,0.02118893466745144,0.02118893466745144,0.024720423778693348,0.050029429075927015,0.02413184226015303,0.020011771630370805
241925,0.039915679656298594,-0.8800980132168589,0.3379405477934638,-0.3311048350694493,0.61347721271955,0.6292044541384456,0.26449316955573415,0.5361227881513344,0.5551862352136083,0.5439436895102161,0.052383755150088286,0.022954679223072396,0.020600353148911125,0.023543260741612712,0.0429664508534432,0.06121247792819305,0.025897586815773983,0.020011771630370805
254322,0.04083117347391774,-0.8783890114149837,0.33830671833471754,-0.33513299483599746,0.6169211341981403,0.6362070944782459,0.2679370910343244,0.5376869684231108,0.5652556457131684,0.5414018965685795,0.052383755150088286,0.022954679223072396,0.020600353148911125,0.023543260741612712,0.0429664508534432,0.06121247792819305,0.025897586815773983,0.020011771630370805
262378,0.04083117347391774,-0.8783890114149837,0.33830671833471754,-0.33513299483599746,0.6169211341981403,0.6362070944782459,0.2679370910343244,0.5376869684231108,0.5652556457131684,0.5414018965685795,0.05768098881695115,0.022366097704532076,0.020600353148911125,0.020011771630370805,0.04532077692760447,0.08063566804002355,0.022954679223072396,0.02118893466745144
269343,0.04162592632028464,-0.8764637858640579,0.33789021716876216,-0.3404536906371668,0.6239237745379406,0.6264493169555734,0.2635747904947767,0.5414018965685795,0.577475804086421,0.5330921888747678,0.05768098881695115,0.022366097704532076,0.020600353148911125,0.020011771630370805,0.04532077692760447,0.08063566804002355,0.022954679223072396,0.02118893466745144
284866,0.04162592632028464,-0.8764637858640579,0.33789021716876216,-0.3404536906371668,0.6239237745379406,0.6264493169555734,0.2635747904947767,0.5414018965685795,0.577475804086421,0.5330921888747678,0.07062978222483814,0.025309005297233667,0.02118893466745144,0.024720423778693348,0.04826368452030606,0.08711006474396704,0.028251912889935255,0.02177751618599176
291837,0.04028091712959295,-0.8745231235605112,0.3368949432656865,-0.3465379506997406,0.625186545746757,0.6148547813109861,0.26862587533004245,0.52468471991397,0.5899892462606315,0.5183302375598787,0.07062978222483814,0.025309005297233667,0.02118893466745144,0.024720423778693348,0.04826368452030606,0.08711006474396704,0.028251912889935255,0.02177751618599176
300542,0.04028091712959295,-0.8745231235605112,0.3368949432656865,-0.3465379506997406,0.625186545746757,0.6148547813109861,0.26862587533004245,0.52468471991397,0.5899892462606315,0.5183302375598787,0.07121836374337846,0.028840494408475574,0.025897586815773983,0.025309005297233667,0.04826368452030606,0.09358446144791054,0.028840494408475574,0.025897586815773983
306843,0.03997707497198405,-0.8730260769454349,0.3334271153770212,-0.35362927082087875,0.6285156698427276,0.6090001147973826,0.2656411433819309,0.5423795092384397,0.5956593997458207,0.49838693909473064,0.07121836374337846,0.028840494408475574,0.025897586815773983,0.025309005297233667,0.04826368452030606,0.09358446144791054,0.028840494408475574,0.025897586815773983
322367,0.03997707497198405,-0.8730260769454349,0.3334271153770212,-0.35362927082087875,0.6285156698427276,0.6090001147973826,0.2656411433819309,0.5423795092384397,0.5956593997458207,0.49838693909473064,0.06827545615067687,0.03649205414949971,0.028251912889935255,0.025309005297233667,0.04826368452030606,0.088875809299588,0.02942907592701589,0.06474396703943497
329322,0.04077113154929585,-0.8721238004609106,0.32677939867504485,-0.3618743098140345,0.629778441051544,0.5992423372747101,0.26759269888646536,0.5622250464366019,0.6006452243621078,0.4704272167367289,0.06827545615067687,0.03649205414949971,0.028251912889935255,0.025309005297233667,0.04826368452030606,0.088875809299588,0.02942907592701589,0.06474396703943497
344853,0.04077113154929585,-0.8721238004609106,0.32677939867504485,-0.3618743098140345,0.629778441051544,0.5992423372747101,0.26759269888646536,0.5622250464366019,0.6006452243621078,0.4704272167367289,0.08652148322542672,0.049440847557386695,0.031783402001177165,0.033549146556798116,0.03766921718658034,0.08181283107710417,0.06238964096527369,0.0894643908181283
351818,0.04302889688994371,-0.8722354119917526,0.3168879895781387,-0.37004851325351595,0.6269085064860521,0.6052118011709333,0.2548501894156813,0.5896959624596735,0.5997653729592336,0.4470622739270701,0.08652148322542672,0.049440847557386695,0.031783402001177165,0.033549146556798116,0.03766921718658034,0.08181283107710417,0.06238964096527369,0.0894643908181283
359929,0.04302889688994371,-0.8722354119917526,0.3168879895781387,-0.37004851325351595,0.6269085064860521,0.6052118011709333,0.2548501894156813,0.5896959624596735,0.5997653729592336,0.4470622739270701,0.19894055326662743,0.1948204826368452,0.032371983519717484,0.03590347263095939,0.034726309593878756,0.06356680400235433,0.07180694526191878,0.10417892878163626
366857,0.04522662157464116,-0.8729775551715149,0.3048677122339171,-0.378048170085462,0.6123292388933532,0.6272528986339111,0.25565377109401904,0.6037735849056604,0.6036758236386743,0.43181151627725095,0.19894055326662743,0.1948204826368452,0.032371983519717484,0.03590347263095939,0.034726309593878756,0.06356680400235433,0.07180694526191878,0.10417892878163626
382367,0.04522662157464116,-0.8729775551715149,0.3048677122339171,-0.378048170085462,0.6123292388933532,0.6272528986339111,0.25565377109401904,0.6037735849056604,0.6036758236386743,0.43181151627725095,0.2842848734549735,0.3078281341965862,0.19070041200706297,0.04120070629782225,0.031783402001177165,0.05826957033549147,0.10829899941141848,0.15891701000588582
389332,0.04046549042974026,-0.8743109357557002,0.2922914534962686,-0.3853681848768929,0.6072781540580875,0.6591665710021811,0.27425094707840664,0.5562616091504546,0.6148206080750807,0.4087398572685502,0.2842848734549735,0.3078281341965862,0.19070041200706297,0.04120070629782225,0.031783402001177165,0.05826957033549147,0.10829899941141848,0.15891701000588582
404844,0.04046549042974026,-0.8743109357557002,0.2922914534962686,-0.3853681848768929,0.6072781540580875,0.6591665710021811,0.27425094707840664,0.5562616091504546,0.6148206080750807,0.4087398572685502,0.32077692760447324,0.3590347263095939,0.305473808122425,0.06121247792819305,0.033549146556798116,0.05414949970570924,0.12065921130076515,0.21600941730429665
411796,0.03674133884923733,-0.8731866028505624,0.2811749968080339,-0.396403647551157,0.6270233038686718,0.6716794857077258,0.28963379634944325,0.5721966956691759,0.6439534656369147,0.4326913676801251,0.32077692760447324,0.3590347263095939,0.305473808122425,0.06121247792819305,0.033549146556798116,0.05414949970570924,0.12065921130076515,0.21600941730429665
419843,0.03674133884923733,-0.8731866028505624,0.2811749968080339,-0.396403647551157,0.6270233038686718,0.6716794857077258,0.28963379634944325,0.5721966956691759,0.6439534656369147,0.4326913676801251,0.3931724543849323,0.3761035903472631,0.3549146556798117,0.0659211300765156,0.03590347263095939,0.05650382577987051,0.12360211889346674,0.24661565626839319
426828,0.03564408496387458,-0.8685804334261972,0.2725185605542808,-0.4123483527670148,0.629434048903685,0.6666284008724601,0.3290092985879922,0.592335516668296,0.6813960308925604,0.46514810831948383,0.3931724543849323,0.3761035903472631,0.3549146556798117,0.0659211300765156,0.03590347263095939,0.05650382577987051,0.12360211889346674,0.24661565626839319
442341,0.03564408496387458,-0.8685804334261972,0.2725185605542808,-0.4123483527670148,0.629434048903685,0.6666284008724601,0.3290092985879922,0.592335516668296,0.6813960308925604,0.46514810831948383,0.4549735138316657,0.38140082401412595,0.3761035903472631,0.06886403766921718,0.03649205414949971,0.06180105944673337,0.1188934667451442,0.24249558563861096
449324,0.03961045156955766,-0.862946340126311,0.2665923766653742,-0.4274144720209743,0.5984387555963724,0.6823556422913557,0.33245322006658246,0.6272362889823052,0.6801251344217422,0.5089451559292208,0.4549735138316657,0.38140082401412595,0.3761035903472631,0.06886403766921718,0.03649205414949971,0.06180105944673337,0.1188934667451442,0.24249558563861096
464933,0.03961045156955766,-0.862946340126311,0.2665923766653742,-0.4274144720209743,0.5984387555963724,0.6823556422913557,0.33245322006658246,0.6272362889823052,0.6801251344217422,0.5089451559292208,0.4549735138316657,0.33902295467922305,0.3831665685697469,0.07533843437316068,0.03531489111241907,0.06474396703943497,0.11712772218952325,0.2371983519717481
471840,0.044188539355822565,-0.8618596191209535,0.2652533039232111,-0.4299837842013397,0.5844334749167719,0.7534152221329353,0.2632303983469177,0.6152116531430247,0.5947795483429466,0.562713852771532,0.4549735138316657,0.33902295467922305,0.3831665685697469,0.07533843437316068,0.03531489111241907,0.06474396703943497,0.11712772218952325,0.2371983519717481
479850,0.044188539355822565,-0.8618596191209535,0.2652533039232111,-0.4299837842013397,0.5844334749167719,0.7534152221329353,0.2632303983469177,0.6152116531430247,0.5947795483429466,0.562713852771532,0.429664508534432,0.24367274867569158,0.3443201883460859,0.08357857563272514,0.04002354326074161,0.07416127133608005,0.09358446144791054,0.20600353148911124
486834,0.05431997972282467,-0.864481115498976,0.27129473018871425,-0.41966761862263197,0.6278268855470095,0.7270118241304099,0.24474801974514981,0.5945840258089745,0.45938019356730864,0.6386743572196696,0.429664508534432,0.24367274867569158,0.3443201883460859,0.08357857563272514,0.04002354326074161,0.07416127133608005,0.09358446144791054,0.20600353148911124
510525,0.05431997972282467,-0.864481115498976,0.27129473018871425,-0.41966761862263197,0.6278268855470095,0.7270118241304099,0.24474801974514981,0.5945840258089745,0.45938019356730864,0.6386743572196696,0.4249558563861095,0.1618599175985874,0.2595644496762802,0.09123013537374926,0.0394349617422013,0.08711006474396704,0.10771041789287816,0.1453796350794585
512266,0.07610667392290965,-0.8675672572687736,0.2800750013089273,-0.4038475231338357,0.6642176558374469,0.6517047411319022,0.28515669842727587,0.6402385374914459,0.3611301202463584,0.6958646984064913,0.4249558563861095,0.1618599175985874,0.2595644496762802,0.09123013537374926,0.0394349617422013,0.08711006474396704,0.10771041789287816,0.1453796350794585
524865,0.07610667392290965,-0.8675672572687736,0.2800750013089273,-0.4038475231338357,0.6642176558374469,0.6517047411319022,0.28515669842727587,0.6402385374914459,0.3611301202463584,0.6958646984064913,0.43084167157151265,0.11712772218952325,0.18952324896998235,0.164802825191289,0.2077692760447322,0.11418481459682166,0.164802825191289,0.08357857563272514
531817,0.0950917673886165,-0.866567980348894,0.29552909993304305,-0.3907429363426975,0.668465158994375,0.6696131328205717,0.2859602801056136,0.6061198553133249,0.4067846319288298,0.7490468276468863,0.43084167157151265,0.11712772218952325,0.18952324896998235,0.164802825191289,0.2077692760447322,0.11418481459682166,0.164802825191289,0.08357857563272514
539870,0.0950917673886165,-0.866567980348894,0.29552909993304305,-0.3907429363426975,0.668465158994375,0.6696131328205717,0.2859602801056136,0.6061198553133249,0.4067846319288298,0.7490468276468863,0.392583872866392,0.11359623307828134,0.1483225426721601,0.2248381400824014,0.4114184814596822,0.19599764567392583,0.1912889935256033,0.09652736904061213
546843,0.10033717139111295,-0.8554903475603589,0.32041979915045193,-0.39420790146909884,0.6185282975548158,0.7568591436115256,0.1267363104121226,0.5345586078795581,0.630755694593802,0.7924528301886793,0.392583872866392,0.11359623307828134,0.1483225426721601,0.2248381400824014,0.4114184814596822,0.19599764567392583,0.1912889935256033,0.09652736904061213
562406,0.10033717139111295,-0.8554903475603589,0.32041979915045193,-0.39420790146909884,0.6185282975548158,0.7568591436115256,0.1267363104121226,0.5345586078795581,0.630755694593802,0.7924528301886793,0.5150088287227781,0.11183048852266039,0.13007651559741024,0.2831077104178929,0.6321365509123014,0.39199529134785166,0.20011771630370806,0.18893466745144202
569382,0.1014977029238605,-0.8432914980751537,0.35331942406868816,-0.3920753118357666,0.46699575249684305,0.5988979451268511,0.14280794397887728,0.4469645126600841,0.6198064326913677,0.8293088278424089,0.5150088287227781,0.11183048852266039,0.13007651559741024,0.2831077104178929,0.6321365509123014,0.39199529134785166,0.20011771630370806,0.18893466745144202
584880,0.1014977029238605,-0.8432914980751537,0.35331942406868816,-0.3920753118357666,0.46699575249684305,0.5988979451268511,0.14280794397887728,0.4469645126600841,0.6198064326913677,0.8293088278424089,0.5603296056503826,0.13007651559741024,0.11006474396703944,0.31489111241907003,0.7121836374337845,0.5615067686874632,0.22248381400824013,0.25014714537963506
591863,0.09222422038321956,-0.8367928930866579,0.3811039259250979,-0.3821415246984366,0.44977614510389163,0.42704626334519574,0.39214785902881416,0.32994427607781796,0.5518623521360837,0.7319386059243328,0.5603296056503826,0.13007651559741024,0.11006474396703944,0.31489111241907003,0.7121836374337845,0.5615067686874632,0.22248381400824013,0.25014714537963506
599908,0.09222422038321956,-0.8367928930866579,0.3811039259250979,-0.3821415246984366,0.44977614510389163,0.42704626334519574,0.39214785902881416,0.32994427607781796,0.5518623521360837,0.7319386059243328,0.7157151265450264,0.14067098293113597,0.09770453207769277,0.3331371394938199,0.8040023543260741,0.6545026486168334,0.2477928193054738,0.40965273690406123
606966,0.057187936932337605,-0.8598941765631851,0.3649774416813008,-0.35228257414455993,0.4843301572724142,0.30650901159453564,0.414188956491792,0.21703001270896471,0.34959429074200804,0.25075764981914167,0.7157151265450264,0.14067098293113597,0.09770453207769277,0.3331371394938199,0.8040023543260741,0.6545026486168334,0.2477928193054738,0.40965273690406123
622388,0.057187936932337605,-0.8598941765631851,0.3649774416813008,-0.35228257414455993,0.4843301572724142,0.30650901159453564,0.414188956491792,0.21703001270896471,0.34959429074200804,0.25075764981914167,0.7916421424367275,0.16362566215420835,0.13301942319011184,0.3566804002354326,0.9199529134785168,0.7021777516185992,0.3755150088287228,0.46674514420247204
629396,0.05462406574341383,-0.8784404226200617,0.34965505323353946,-0.32109185461016776,0.7790150384571232,0.7344736540006888,0.3935254276202503,0.46094437383908493,0.22015837325251736,0.38527715319190536,0.7916421424367275,0.16362566215420835,0.13301942319011184,0.3566804002354326,0.9199529134785168,0.7021777516185992,0.3755150088287228,0.46674514420247204
644903,0.05462406574341383,-0.8784404226200617,0.34965505323353946,-0.32109185461016776,0.7790150384571232,0.7344736540006888,0.3935254276202503,0.46094437383908493,0.22015837325251736,0.38527715319190536,0.8958210712183637,0.37021777516185994,0.3225426721600942,0.38787522071806946,0.9040612124779281,0.6974690994702767,0.5844614479105356,0.5456150676868746
651839,0.045347159927825065,-0.8866193704865609,0.33195585847569387,-0.3188338673794861,0.37722419928825623,1,0.16565262312019285,0.6342751002052986,0.6178512073516472,0.40170104604555673,0.8958210712183637,0.37021777516185994,0.3225426721600942,0.38787522071806946,0.9040612124779281,0.6974690994702767,0.5844614479105356,0.5456150676868746
659221,0.045347159927825065,-0.8866193704865609,0.33195585847569387,-0.3188338673794861,0.37722419928825623,1,0.16565262312019285,0.6342751002052986,0.6178512073516472,0.40170104604555673,0.8357857563272513,0.49381989405532667,0.49381989405532667,0.41436138905238373,0.8705120659211301,0.6798116539140671,0.7598587404355504,0.6027074749852854
668306,0.06231622734711074,-0.864309593988673,0.33501838580635734,-0.36993012140140863,0.7784410515440248,0.4682585237056595,0.2504878888761336,0.8341968911917098,0.9672499755596833,0.6647766155049369,0.8357857563272513,0.49381989405532667,0.49381989405532667,0.41436138905238373,0.8705120659211301,0.6798116539140671,0.7598587404355504,0.6027074749852854
682386,0.06231622734711074,-0.864309593988673,0.33501838580635734,-0.36993012140140863,0.7784410515440248,0.4682585237056595,0.2504878888761336,0.8341968911917098,0.9672499755596833,0.6647766155049369,0.8975868157739847,0.5208946439081813,0.5132430841671571,0.47616244849911715,0.8622719246615657,0.5803413772807534,0.7792819305473808,0.6180105944673338
689329,0.06292735873394807,-0.8494888252755473,0.33770812403000455,-0.40045237696744257,0.6836184135001722,0.4198140282401561,0.5364481689817472,0.6422915240981523,0.8318506207840454,0.5967347736826669,0.8975868157739847,0.5208946439081813,0.5132430841671571,0.47616244849911715,0.8622719246615657,0.5803413772807534,0.7792819305473808,0.6180105944673338
704856,0.06292735873394807,-0.8494888252755473,0.33770812403000455,-0.40045237696744257,0.6836184135001722,0.4198140282401561,0.5364481689817472,0.6422915240981523,0.8318506207840454,0.5967347736826669,0.8469688051795173,0.6656856974690994,0.51854031783402,0.6409652736904061,0.9276044732195409,0.5562095350206003,0.8728663919952914,0.5373749264273102
711815,0.09124748330075587,-0.8522942186031806,0.31414768999932474,-0.4081417530649863,0.6103776833888187,0.6599701526805188,0.31133050166456205,0.8678267670349008,0.4955518623521361,0.45556750415485386,0.8469688051795173,0.6656856974690994,0.51854031783402,0.6409652736904061,0.9276044732195409,0.5562095350206003,0.8728663919952914,0.5373749264273102
719230,0.09124748330075587,-0.8522942186031806,0.31414768999932474,-0.4081417530649863,0.6103776833888187,0.6599701526805188,0.31133050166456205,0.8678267670349008,0.4955518623521361,0.45556750415485386,0.857563272513243,0.7198351971748087,0.5150088287227781,0.6350794585050029,0.7998822836962919,0.5150088287227781,0.8493231312536786,0.49440847557386697
734811,0.11486657695028696,-0.8558231360238702,0.3038898441208708,-0.40252129382951246,0.7002640339800252,0.8069108024337045,0.19572953736654805,0.7626356437579431,0.41616971355948773,0.5651578844461824,0.857563272513243,0.7198351971748087,0.5150088287227781,0.6350794585050029,0.7998822836962919,0.5150088287227781,0.8493231312536786,0.49440847557386697
742356,0.11486657695028696,-0.8558231360238702,0.3038898441208708,-0.40252129382951246,0.7002640339800252,0.8069108024337045,0.19572953736654805,0.7626356437579431,0.41616971355948773,0.5651578844461824,0.8016480282519128,0.6662742789876398,0.42377869334902885,0.618599175985874,0.8622719246615657,0.5079458505002943,0.7645673925838729,0.45615067686874633
756869,0.13952209716197364,-0.854527070150828,0.31133080385967954,-0.39165061132475276,0.6014234875444839,0.7364252095052233,0.32062908965675585,0.6873594681787076,0.40658910939485776,0.7143415778668492,0.8016480282519128,0.6662742789876398,0.42377869334902885,0.618599175985874,0.8622719246615657,0.5079458505002943,0.7645673925838729,0.45615067686874633
764923,0.13952209716197364,-0.854527070150828,0.31133080385967954,-0.39165061132475276,0.6014234875444839,0.7364252095052233,0.32062908965675585,0.6873594681787076,0.40658910939485776,0.7143415778668492,0.9358446144791054,0.594467333725721,0.21365509123013537,0.659211300765156,0.9070041200706298,0.4526191877575044,0.711006474396704,0.4072984108298999
771825,0.11608794323763356,-0.8523491731406692,0.31945546525014407,-0.39745777411328587,0.7487085294455287,0.5758236712202962,0.03949029962116864,0.35702414703294555,0.6735751295336787,0.5253690487828723,0.9358446144791054,0.594467333725721,0.21365509123013537,0.659211300765156,0.9070041200706298,0.4526191877575044,0.711006474396704,0.4072984108298999
788109,0.11608794323763356,-0.8523491731406692,0.31945546525014407,-0.39745777411328587,0.7487085294455287,0.5758236712202962,0.03949029962116864,0.35702414703294555,0.6735751295336787,0.5253690487828723,0.8922895821071218,0.5997645673925839,0.1577398469688052,0.6291936433195998,0.9270158917010006,0.5303119482048264,0.6986462625073573,0.38787522071806946
789815,0.10790903027498393,-0.8411167116626433,0.3376429612450289,-0.40850403825252685,0.45792675926988863,0.7747675353001952,0.05039605097003788,0.4625085541108613,0.713461726463975,0.6765079675432594,0.8922895821071218,0.5997645673925839,0.1577398469688052,0.6291936433195998,0.9270158917010006,0.5303119482048264,0.6986462625073573,0.38787522071806946
802384,0.10790903027498393,-0.8411167116626433,0.3376429612450289,-0.40850403825252685,0.45792675926988863,0.7747675353001952,0.05039605097003788,0.4625085541108613,0.713461726463975,0.6765079675432594,0.885226603884638,0.45615067686874633,0.14714537963507945,0.5803413772807534,0.9123013537374927,0.5208946439081813,0.6027074749852854,0.39552678045909356
809335,0.12585211615076722,-0.8281093656322065,0.36437300359848707,-0.4069747383575732,0.4899552290207783,0.41855125703133966,0.2090460337504305,0.5913579039984358,0.5538175774758041,0.85433571219083,0.885226603884638,0.45615067686874633,0.14714537963507945,0.5803413772807534,0.9123013537374927,0.5208946439081813,0.6027074749852854,0.39552678045909356
824881,0.12585211615076722,-0.8281093656322065,0.36437300359848707,-0.4069747383575732,0.4899552290207783,0.41855125703133966,0.2090460337504305,0.5913579039984358,0.5538175774758041,0.85433571219083,0.8658034137728076,0.4067098293113596,0.15891701000588582,0.7227781047675103,0.9799882283696292,0.6386109476162448,0.6698057680988817,0.4155385520894644
831814,0.10308618153317228,-0.8363469186199289,0.3743206343060661,-0.3870156762000269,0.32200665824819197,0.4213063942142119,0.5092411893008839,0.23814644637794505,0.4597712386352527,0.5036660475119757,0.8658034137728076,0.4067098293113596,0.15891701000588582,0.7227781047675103,0.9799882283696292,0.6386109476162448,0.6698057680988817,0.4155385520894644
848129,0.10308618153317228,-0.8363469186199289,0.3743206343060661,-0.3870156762000269,0.32200665824819197,0.4213063942142119,0.5092411893008839,0.23814644637794505,0.4597712386352527,0.5036660475119757,0.8522660388463802,0.3790464979399647,0.1748087110064744,0.744555620953502,0.9064155385520895,0.7127722189523249,0.7663331371394938,0.4031783402001177
849793,0.049680122467738105,-0.8721485873021837,0.3504462692994499,-0.3377515942708387,0.6993456549190679,0.454253243026059,0.4310641717368844,0,0.18770163261315867,0.0951217127773976,0.8522660388463802,0.3790464979399647,0.1748087110064744,0.744555620953502,0.9064155385520895,0.7127722189523249,0.7663331371394938,0.4031783402001177
862920,0.049680122467738105,-0.8721485873021837,0.3504462692994499,-0.3377515942708387,0.6993456549190679,0.454253243026059,0.4310641717368844,0,0.18770163261315867,0.0951217127773976,0.7363154796939376,0.4161271336080047,0.1789287816362566,0.7298410829899941,0.811065332548558,0.7304296645085344,0.773984696880518,0.4284873454973514
869382,0.02819794590812695,-0.8960477140199389,0.34093880052553494,-0.282956011320512,0.7078406612329239,0.8302146711054988,0.489725634255539,0.22485091406784632,0.07928438752566233,0.36680027373154755,0.7363154796939376,0.4161271336080047,0.1789287816362566,0.7298410829899941,0.811065332548558,0.7304296645085344,0.773984696880518,0.4284873454973514
884893,0.02819794590812695,-0.8960477140199389,0.34093880052553494,-0.282956011320512,0.7078406612329239,0.8302146711054988,0.489725634255539,0.22485091406784632,0.07928438752566233,0.36680027373154755,0.7486756915832843,0.5097115950559152,0.34196586227192466,0.8293113596233078,0.8210712183637434,0.7045320776927605,0.885226603884638,0.47380812242495585
891825,0.03661958369566456,-0.9048088804803784,0.3210927163714854,-0.27727128121567346,0.33807829181494664,0.9329583285501091,0.06796005051084836,0.6450288395737609,0.44794212532994426,0.38341968911917096,0.7486756915832843,0.5097115950559152,0.34196586227192466,0.8293113596233078,0.8210712183637434,0.7045320776927605,0.885226603884638,0.47380812242495585
908031,0.03661958369566456,-0.9048088804803784,0.3210927163714854,-0.27727128121567346,0.33807829181494664,0.9329583285501091,0.06796005051084836,0.6450288395737609,0.44794212532994426,0.38341968911917096,0.7763390229546793,0.6839317245438493,0.5391406709829312,0.861094761624485,0.7163037080635668,0.7257210123602119,0.9823425544437905,0.6150676868746321
909779,0.037291077263337816,-0.8987698916201518,0.30455396979387184,-0.3131596030084883,0.7135805303639077,0.5378257375731833,0.25358741820686487,0.6803206569557142,0.8323394271189755,0.4120637403460749,0.7763390229546793,0.6839317245438493,0.5391406709829312,0.861094761624485,0.7163037080635668,0.7257210123602119,0.9823425544437905,0.6150676868746321
922354,0.037291077263337816,-0.8987698916201518,0.30455396979387184,-0.3131596030084883,0.7135805303639077,0.5378257375731833,0.25358741820686487,0.6803206569557142,0.8323394271189755,0.4120637403460749,0.7633902295467923,0.6886403766921718,0.5456150676868746,0.849911712772219,0.7227781047675103,0.7068864037669217,0.9782224838140082,0.6056503825779871
936819,0.01574664793082414,-0.883277088584833,0.30382485813814947,-0.35674091920801193,0.7460681896452761,0.5086672023877855,0.3928366433245322,0.4990712679636328,1,0.5078697819923746,0.7633902295467923,0.6886403766921718,0.5456150676868746,0.849911712772219,0.7227781047675103,0.7068864037669217,0.9782224838140082,0.6056503825779871
944844,0.01574664793082414,-0.883277088584833,0.30382485813814947,-0.35674091920801193,0.7460681896452761,0.5086672023877855,0.3928366433245322,0.4990712679636328,1,0.5078697819923746,0.8422601530311948,0.6839317245438493,0.5467922307239552,0.8675691583284285,0.696291936433196,0.6362566215420836,0.8858151854031784,0.5997645673925839
951817,0.030700107304793736,-0.8680256979896153,0.3034000664257051,-0.3918383477073077,0.5697394099414533,0.8330846056709907,0.37538744116634143,0.7708475901847688,0.829699872910353,0.6347639065402287,0.8422601530311948,0.6839317245438493,0.5467922307239552,0.8675691583284285,0.696291936433196,0.6362566215420836,0.8858151854031784,0.5997645673925839
968074,0.030700107304793736,-0.8680256979896153,0.3034000664257051,-0.3918383477073077,0.5697394099414533,0.8330846056709907,0.37538744116634143,0.7708475901847688,0.829699872910353,0.6347639065402287,0.822248381400824,0.6662742789876398,0.5491465567981165,0.8404944084755739,0.633313713949382,0.5897586815773985,0.786933490288405,0.5721012360211889
969821,0.08288661510383626,-0.8648162366761826,0.2987092005288473,-0.3949626556236557,0.610262886006199,0.8086327631729997,0.3139708414648146,0.9882686479616776,0.43748166976244013,0.7106266497213803,0.822248381400824,0.6662742789876398,0.5491465567981165,0.8404944084755739,0.633313713949382,0.5897586815773985,0.786933490288405,0.5721012360211889
990562,0.08288661510383626,-0.8648162366761826,0.2987092005288473,-0.3949626556236557,0.610262886006199,0.8086327631729997,0.3139708414648146,0.9882686479616776,0.43748166976244013,0.7106266497213803,0.848145968216598,0.5915244261330195,0.4973513831665686,0.7769276044732195,0.505591524426133,0.5403178340200118,0.6474396703943496,0.5361977633902295
992296,0.13000119328485094,-0.8561158395336168,0.316763470961679,-0.3870739754988378,0.6309264148777408,0.7544483985765125,0.2875674434622891,0.8428976439534657,0.4005279108417245,0.8927558901163359,0.848145968216598,0.5915244261330195,0.4973513831665686,0.7769276044732195,0.505591524426133,0.5403178340200118,0.6474396703943496,0.5361977633902295
1004873,0.13000119328485094,-0.8561158395336168,0.316763470961679,-0.3870739754988378,0.6309264148777408,0.7544483985765125,0.2875674434622891,0.8428976439534657,0.4005279108417245,0.8927558901163359,0.861094761624485,0.453796350794585,0.2913478516774573,0.7086521483225426,0.4467333725721012,0.4585050029429076,0.5220718069452619,0.46733372572101234
1011877,0.1719288967783024,-0.8488417097595419,0.34758078351169047,-0.3592990469768783,0.5777752267248307,0.4806566410285846,0.4508093215474687,0.6713266203930003,0.2634666145273243,0.9748753543845928,0.861094761624485,0.453796350794585,0.2913478516774573,0.7086521483225426,0.4467333725721012,0.4585050029429076,0.5220718069452619,0.46733372572101234
1028024,0.1719288967783024,-0.8488417097595419,0.34758078351169047,-0.3592990469768783,0.5777752267248307,0.4806566410285846,0.4508093215474687,0.6713266203930003,0.2634666145273243,0.9748753543845928,0.8775750441436139,0.47969393761035906,0.28134196586227195,0.7298410829899941,0.33078281341965865,0.368452030606239,0.41789287816362564,0.5338434373160683
1029777,0.14056122444571081,-0.859541347750302,0.34941945720872536,-0.3454522493976219,0.7834921363792906,0.6022270692228218,0.2215589484559752,0.24195913579039985,0.5073809756574446,0.44735555772802815,0.8775750441436139,0.47969393761035906,0.28134196586227195,0.7298410829899941,0.33078281341965865,0.368452030606239,0.41789287816362564,0.5338434373160683
1050546,0.14056122444571081,-0.859541347750302,0.34941945720872536,-0.3454522493976219,0.7834921363792906,0.6022270692228218,0.2215589484559752,0.24195913579039985,0.5073809756574446,0.44735555772802815,0.8446144791053561,0.4961742201294879,0.279576221306651,0.7639788110653325,0.3631547969393761,0.4920541494997057,0.41671571512654504,0.7045320776927605
1052289,0.13219570687481993,-0.8488966236943077,0.35923542505318107,-0.364484192731498,0.3895075192285616,0.6598553552978992,0,0.52468471991397,0.7641020627627334,0.6053377651774366,0.8446144791053561,0.4961742201294879,0.279576221306651,0.7639788110653325,0.3631547969393761,0.4920541494997057,0.41671571512654504,0.7045320776927605
1064959,0.13219570687481993,-0.8488966236943077,0.35923542505318107,-0.364484192731498,0.3895075192285616,0.6598553552978992,0,0.52468471991397,0.7641020627627334,0.6053377651774366,0.9334902884049441,0.49323131253678637,0.2625073572689818,0.7775161859917599,0.609181871689229,0.5432607416127133,0.41377280753384343,0.6915832842848735
1076297,0.14178310165008343,-0.8391020583234382,0.3750568917949904,-0.3676106849928767,0.4480541843645965,0.4547124325565377,0.31902192630008036,0.5736631146739661,0.597419102551569,0.7092579919835761,0.9334902884049441,0.49323131253678637,0.2625073572689818,0.7775161859917599,0.609181871689229,0.5432607416127133,0.41377280753384343,0.6915832842848735
1088048,0.14178310165008343,-0.8391020583234382,0.3750568917949904,-0.3676106849928767,0.4480541843645965,0.4547124325565377,0.31902192630008036,0.5736631146739661,0.597419102551569,0.7092579919835761,0.9529134785167745,0.503825779870512,0.2183637433784579,0.7863449087698646,0.7186580341377281,0.5509123013537375,0.4155385520894644,0.6886403766921718
1089797,0.12523857527311658,-0.8518298221670995,0.36961248141032843,-0.349410742416468,0.5564229135575709,0.5103891631270807,0.34944323269429456,0.34783458793625965,0.412454785414019,0.4234040473164532,0.9529134785167745,0.503825779870512,0.2183637433784579,0.7863449087698646,0.7186580341377281,0.5509123013537375,0.4155385520894644,0.6886403766921718
1110536,0.12523857527311658,-0.8518298221670995,0.36961248141032843,-0.349410742416468,0.5564229135575709,0.5103891631270807,0.34944323269429456,0.34783458793625965,0.412454785414019,0.4234040473164532,0.9635079458505003,0.4367274867569158,0.22189523248969983,0.7987051206592113,0.7151265450264862,0.5879929370217775,0.355503237198352,0.6286050618010595
1112269,0.1347037039003999,-0.8593693479463663,0.35784676754329164,-0.33953634109557074,0.7169096544598783,0.7347032487659282,0.2960624497761451,0.6206862840942419,0.3878189461335419,0.4861667807214782,0.9635079458505003,0.4367274867569158,0.22189523248969983,0.7987051206592113,0.7151265450264862,0.5879929370217775,0.355503237198352,0.6286050618010595
1124848,0.1347037039003999,-0.8593693479463663,0.35784676754329164,-0.33953634109557074,0.7169096544598783,0.7347032487659282,0.2960624497761451,0.6206862840942419,0.3878189461335419,0.4861667807214782,1,0.3631547969393761,0.20541494997057091,0.6656856974690994,0.6745144202472042,0.559152442613302,0.3543260741612713,0.5638610947616245
1131866,0.1333003370577364,-0.8587617868142633,0.3611438161037666,-0.33813363887356207,0.5374813454253243,0.7670761106646768,0.2688554700952818,0.5674063935868608,0.5527422035389579,0.5965392511486949,1,0.3631547969393761,0.20541494997057091,0.6656856974690994,0.6745144202472042,0.559152442613302,0.3543260741612713,0.5638610947616245
