Timestamp, Orientation x, Orientation y, Orientation z, Orientation w, Acceleration x, Acceleration y, Acceleration z, Rotation x, Rotation y, Rotation z, EMG 0, EMG 1, EMG 2, EMG 3, EMG 4, EMG 5, EMG 6, EMG 7
0,0.29731826625243146,0.7156147307623705,0.4648687981479199,0.42824573106693886,0.4709385824110839,0.5539832727887134,0.38041733547351525,0.46561582444753513,0.47998763715036313,0.3927265234636584,0,0,0,0,0,0,0,0
809,0.29066044253398016,0.7101709888456236,0.46974438591799905,0.4364789635784318,0.4743600574469883,0.5522936554870322,0.38248711666807467,0.4682944418688508,0.48343893267398136,0.390614536650698,0,0,0,0,0,0,0,0
6840,0.2839492683743353,0.7042576651984267,0.4757309969281104,0.443930143784725,0.46853087775618824,0.5542367153839656,0.3810509419616457,0.47133364240457426,0.48622057384227063,0.3888631329521455,0,0,0,0,0,0,0,0
29294,0.2796697059361022,0.6993573746433565,0.47889317170987733,0.4509384084364738,0.46249049590267804,0.5547013601419278,0.3783053138464138,0.45819811466543037,0.47653634162674496,0.3983928295472106,0,0,0,0,0,0,0,0
44249,0.27668662751687784,0.6953483478209292,0.4790896402779559,0.4587028470746386,0.4651938835853679,0.5571090647968235,0.37691137957252685,0.44696852624529954,0.47087003554319273,0.4078195023953021,0,0,0,0,0,0,0,0
68116,0.27668662751687784,0.6953483478209292,0.4790896402779559,0.4587028470746386,0.4651938835853679,0.5571090647968235,0.37691137957252685,0.44696852624529954,0.47087003554319273,0.4078195023953021,0.2961630695443645,0.17625899280575538,0.4244604316546763,0.6438848920863309,0.15227817745803357,0.06115107913669065,0.046762589928057555,0.09472422062350119
69856,0.27284175724961407,0.6915043104878922,0.47848020919009504,0.46737121594190045,0.4684886373236462,0.5622201571344091,0.38024837374334713,0.44882295369082575,0.47380621233194253,0.4137948797197754,0.2961630695443645,0.17625899280575538,0.4244604316546763,0.6438848920863309,0.15227817745803357,0.06115107913669065,0.046762589928057555,0.09472422062350119
90565,0.27284175724961407,0.6915043104878922,0.47848020919009504,0.46737121594190045,0.4684886373236462,0.5622201571344091,0.38024837374334713,0.44882295369082575,0.47380621233194253,0.4137948797197754,0.28776978417266186,0.1774580335731415,0.4724220623501199,0.6474820143884892,0.21342925659472423,0.06235011990407674,0.05275779376498801,0.09232613908872901
92420,0.26948754154241433,0.6887039481818937,0.47702041611641405,0.474884048289917,0.46046295514066066,0.5628115231899975,0.3820647123426544,0.45016226240148355,0.4683459537423376,0.42152166074280123,0.28776978417266186,0.1774580335731415,0.4724220623501199,0.6474820143884892,0.21342925659472423,0.06235011990407674,0.05275779376498801,0.09232613908872901
105566,0.26948754154241433,0.6887039481818937,0.47702041611641405,0.474884048289917,0.46046295514066066,0.5628115231899975,0.3820647123426544,0.45016226240148355,0.4683459537423376,0.42152166074280123,0.28896882494004794,0.16906474820143885,0.4988009592326139,0.6486810551558753,0.2997601918465228,0.08273381294964029,0.0539568345323741,0.1342925659472422
107321,0.26722769869087964,0.687723727992266,0.4714633953148365,0.48306076003645987,0.46118104249387515,0.560741741995438,0.38012165244572105,0.4365116159274713,0.46031010147839074,0.43712975840931334,0.28896882494004794,0.16906474820143885,0.4988009592326139,0.6486810551558753,0.2997601918465228,0.08273381294964029,0.0539568345323741,0.1342925659472422
128103,0.26722769869087964,0.687723727992266,0.4714633953148365,0.48306076003645987,0.46118104249387515,0.560741741995438,0.38012165244572105,0.4365116159274713,0.46031010147839074,0.43712975840931334,0.29136690647482016,0.16786570743405277,0.5047961630695443,0.63189448441247,0.3249400479616307,0.09232613908872901,0.05875299760191847,0.14028776978417265
129870,0.26600285718968847,0.6867366099681471,0.462971930193618,0.49324669319639114,0.46118104249387515,0.5619667145391569,0.3764467348145645,0.41930665018286717,0.46386442074898265,0.44799876371503633,0.29136690647482016,0.16786570743405277,0.5047961630695443,0.63189448441247,0.3249400479616307,0.09232613908872901,0.05875299760191847,0.14028776978417265
150566,0.26600285718968847,0.6867366099681471,0.462971930193618,0.49324669319639114,0.46118104249387515,0.5619667145391569,0.3764467348145645,0.41930665018286717,0.46386442074898265,0.44799876371503633,0.18585131894484413,0.12949640287769784,0.4616306954436451,0.6067146282973621,0.4244604316546763,0.09112709832134293,0.0671462829736211,0.15227817745803357
152319,0.26697226784316297,0.6842156201467436,0.45233915797569285,0.5059289273324137,0.45763284616034466,0.5577004308524119,0.36918138041733545,0.3939628084273425,0.47323958172358727,0.450986452377273,0.18585131894484413,0.12949640287769784,0.4616306954436451,0.6067146282973621,0.4244604316546763,0.09112709832134293,0.0671462829736211,0.15227817745803357
165615,0.26697226784316297,0.6842156201467436,0.45233915797569285,0.5059289273324137,0.45763284616034466,0.5577004308524119,0.36918138041733545,0.3939628084273425,0.47323958172358727,0.450986452377273,0.17146282973621102,0.11270983213429256,0.4184652278177458,0.4448441247002398,0.5419664268585132,0.2014388489208633,0.10431654676258993,0.15347721822541965
167410,0.27723579923483715,0.6749611334079325,0.44405337724206084,0.5199849787938304,0.45501393934273887,0.5541099940863394,0.3580721466587818,0.3615103281306341,0.49260804615463866,0.4477412043476021,0.17146282973621102,0.11270983213429256,0.4184652278177458,0.4448441247002398,0.5419664268585132,0.2014388489208633,0.10431654676258993,0.15347721822541965
188055,0.27723579923483715,0.6749611334079325,0.44405337724206084,0.5199849787938304,0.45501393934273887,0.5541099940863394,0.3580721466587818,0.3615103281306341,0.49260804615463866,0.4477412043476021,0.19784172661870503,0.0803357314148681,0.2949640287769784,0.2865707434052758,0.5287769784172662,0.2529976019184652,0.1630695443645084,0.17026378896882494
189793,0.2908394613514366,0.6568760300239582,0.4408064197020095,0.538159817573057,0.4543380924220664,0.5644166596265946,0.3560446058967644,0.34245093494050377,0.5283572863545047,0.41080719105753877,0.19784172661870503,0.0803357314148681,0.2949640287769784,0.2865707434052758,0.5287769784172662,0.2529976019184652,0.1630695443645084,0.17026378896882494
210633,0.2908394613514366,0.6568760300239582,0.4408064197020095,0.538159817573057,0.4543380924220664,0.5644166596265946,0.3560446058967644,0.34245093494050377,0.5283572863545047,0.41080719105753877,0.2517985611510791,0.08992805755395683,0.21942446043165467,0.22541966426858512,0.49640287769784175,0.2793764988009592,0.21342925659472423,0.2146282973621103
212402,0.3054327670597043,0.6258808140348138,0.451007736971254,0.558189978969024,0.45894229956914756,0.5785249640956324,0.3521584861028977,0.35079585844537164,0.5845567403286458,0.3415237212177407,0.2517985611510791,0.08992805755395683,0.21942446043165467,0.22541966426858512,0.49640287769784175,0.2793764988009592,0.21342925659472423,0.2146282973621103
225592,0.3054327670597043,0.6258808140348138,0.451007736971254,0.558189978969024,0.45894229956914756,0.5785249640956324,0.3521584861028977,0.35079585844537164,0.5845567403286458,0.3415237212177407,0.27577937649880097,0.1079136690647482,0.19184652278177458,0.2146282973621103,0.47961630695443647,0.302158273381295,0.2841726618705036,0.24940047961630696
227345,0.31362638233647,0.5823269146535469,0.47147726297526166,0.583303563567012,0.45987158908507225,0.579454253611557,0.3537636225394948,0.36676453922629165,0.6621851336733117,0.3073198372224798,0.27577937649880097,0.1079136690647482,0.19184652278177458,0.2146282973621103,0.47961630695443647,0.302158273381295,0.2841726618705036,0.24940047961630696
247161,0.31362638233647,0.5823269146535469,0.47147726297526166,0.583303563567012,0.45987158908507225,0.579454253611557,0.3537636225394948,0.36676453922629165,0.6621851336733117,0.3073198372224798,0.4352517985611511,0.1618705035971223,0.17625899280575538,0.19304556354916066,0.39688249400479614,0.3105515587529976,0.3009592326139089,0.39448441247002397
255865,0.30757892121813035,0.5302516548168086,0.5005253331987832,0.6113123429250993,0.42743093689279377,0.5746388443017657,0.3566359719523528,0.409776953587802,0.7398650388914645,0.31236800082419,0.4352517985611511,0.1618705035971223,0.17625899280575538,0.19304556354916066,0.39688249400479614,0.3105515587529976,0.3009592326139089,0.39448441247002397
270637,0.30757892121813035,0.5302516548168086,0.5005253331987832,0.6113123429250993,0.42743093689279377,0.5746388443017657,0.3566359719523528,0.409776953587802,0.7398650388914645,0.31236800082419,0.7194244604316546,0.23980815347721823,0.16546762589928057,0.1642685851318945,0.18944844124700239,0.2565947242206235,0.2961630695443645,0.4616306954436451
274357,0.27956373070435475,0.4828273165658179,0.534101013900241,0.6351834457881038,0.3900903945256399,0.5519557320266959,0.38704908338261385,0.499201565960954,0.773244732910936,0.37340957090609384,0.7194244604316546,0.23980815347721823,0.16546762589928057,0.1642685851318945,0.18944844124700239,0.2565947242206235,0.2961630695443645,0.4616306954436451
286175,0.27956373070435475,0.4828273165658179,0.534101013900241,0.6351834457881038,0.3900903945256399,0.5519557320266959,0.38704908338261385,0.499201565960954,0.773244732910936,0.37340957090609384,0.7781774580335732,0.2997601918465228,0.17625899280575538,0.2829736211031175,0.16546762589928057,0.21103117505995203,0.27218225419664266,0.5143884892086331
289781,0.22565826150686558,0.4508892555453654,0.5710124523658987,0.6478595584619613,0.38379657007687756,0.5431697220579539,0.4275154177578778,0.6235512285581827,0.7691752949054758,0.4679853706279297,0.7781774580335732,0.2997601918465228,0.17625899280575538,0.2829736211031175,0.16546762589928057,0.21103117505995203,0.27218225419664266,0.5143884892086331
308098,0.22565826150686558,0.4508892555453654,0.5710124523658987,0.6478595584619613,0.38379657007687756,0.5431697220579539,0.4275154177578778,0.6235512285581827,0.7691752949054758,0.4679853706279297,0.9388489208633094,0.3752997601918465,0.19304556354916066,0.3669064748201439,0.14628297362110312,0.16786570743405277,0.2434052757793765,0.511990407673861
309886,0.16742830342522727,0.43514268141394286,0.6170981216292555,0.6338836788446902,0.37450367491763115,0.5255977021204697,0.4721213145222607,0.7574820996239633,0.6811930149899552,0.4775150672229949,0.9388489208633094,0.3752997601918465,0.19304556354916066,0.3669064748201439,0.14628297362110312,0.16786570743405277,0.2434052757793765,0.511990407673861
330542,0.16742830342522727,0.43514268141394286,0.6170981216292555,0.6338836788446902,0.37450367491763115,0.5255977021204697,0.4721213145222607,0.7574820996239633,0.6811930149899552,0.4775150672229949,0.9844124700239808,0.47721822541966424,0.39448441247002397,0.5971223021582733,0.1606714628297362,0.1211031175059952,0.17026378896882494,0.5623501199040767
332293,0.13471159545859515,0.4226294005234766,0.6741073222676596,0.5906068861157076,0.39013263495818196,0.5006758469206725,0.45602770972374757,0.8227991552052748,0.5449956214907536,0.36099520939576574,0.9844124700239808,0.47721822541966424,0.39448441247002397,0.5971223021582733,0.1606714628297362,0.1211031175059952,0.17026378896882494,0.5623501199040767
344881,0.13471159545859515,0.4226294005234766,0.6741073222676596,0.5906068861157076,0.39013263495818196,0.5006758469206725,0.45602770972374757,0.8227991552052748,0.5449956214907536,0.36099520939576574,1,0.5095923261390888,0.4316546762589928,0.6498800959232613,0.15707434052757793,0.09712230215827339,0.1366906474820144,0.4832134292565947
351846,0.11664579936375474,0.3807621645374684,0.7432125866316472,0.5376327581349827,0.4652361240179099,0.4628706597955563,0.35731181887302527,0.8327924586617216,0.5734301756554886,0.20455364961623654,1,0.5095923261390888,0.4316546762589928,0.6498800959232613,0.15707434052757793,0.09712230215827339,0.1366906474820144,0.4832134292565947
368136,0.11664579936375474,0.3807621645374684,0.7432125866316472,0.5376327581349827,0.4652361240179099,0.4628706597955563,0.35731181887302527,0.8327924586617216,0.5734301756554886,0.20455364961623654,0.8812949640287769,0.5251798561151079,0.49160671462829736,0.658273381294964,0.15227817745803357,0.0815347721822542,0.1223021582733813,0.42206235011990406
369864,0.09778510595250438,0.3316880560211665,0.8124953466503032,0.4693318849368328,0.4570837205372983,0.5740474782461772,0.08042578356002365,0.8852830577448102,0.5669396795961469,0.17220419306650184,0.8812949640287769,0.5251798561151079,0.49160671462829736,0.658273381294964,0.15227817745803357,0.0815347721822542,0.1223021582733813,0.42206235011990406
390594,0.09778510595250438,0.3316880560211665,0.8124953466503032,0.4693318849368328,0.4570837205372983,0.5740474782461772,0.08042578356002365,0.8852830577448102,0.5669396795961469,0.17220419306650184,0.8513189448441247,0.5311750599520384,0.5347721822541966,0.6438848920863309,0.16666666666666666,0.07793764988009592,0.12350119904076738,0.36211031175059955
392336,0.006287165011695049,0.3241857609428389,0.8601207978620868,0.3937718591305317,0.2452057109064797,0.9771056855622201,0.19671369434823013,1,0.7338896615669912,0.5252665739452944,0.8513189448441247,0.5311750599520384,0.5347721822541966,0.6438848920863309,0.16666666666666666,0.07793764988009592,0.12350119904076738,0.36211031175059955
404890,0.006287165011695049,0.3241857609428389,0.8601207978620868,0.3937718591305317,0.2452057109064797,0.9771056855622201,0.19671369434823013,1,0.7338896615669912,0.5252665739452944,0.6786570743405276,0.4952038369304556,0.5755395683453237,0.6306954436450839,0.1606714628297362,0.07194244604316546,0.11750599520383694,0.4040767386091127
411885,-0.05963365175712079,0.346326857799287,0.8470786275182419,0.39869704531987005,0.12549632508236885,0.8316718763200135,0.3738700684295007,0.5179518879101633,0.6946376139700201,0.693401329006336,0.6786570743405276,0.4952038369304556,0.5755395683453237,0.6306954436450839,0.1606714628297362,0.07194244604316546,0.11750599520383694,0.4040767386091127
428090,-0.05963365175712079,0.346326857799287,0.8470786275182419,0.39869704531987005,0.12549632508236885,0.8316718763200135,0.3738700684295007,0.5179518879101633,0.6946376139700201,0.693401329006336,0.6067146282973621,0.407673860911271,0.46522781774580335,0.42565947242206237,0.15347721822541965,0.07074340527577938,0.10671462829736211,0.3800959232613909
429827,-0.032960996400158996,0.3504242228394681,0.8130379112039218,0.4637734271266815,0.34316127397144547,0.6182732111176819,0.351144715721889,0.09411219286045433,0.4647401225982589,0.46983979807345594,0.6067146282973621,0.407673860911271,0.46522781774580335,0.42565947242206237,0.15347721822541965,0.07074340527577938,0.10671462829736211,0.3800959232613909
450567,-0.032960996400158996,0.3504242228394681,0.8130379112039218,0.4637734271266815,0.34316127397144547,0.6182732111176819,0.351144715721889,0.09411219286045433,0.4647401225982589,0.46983979807345594,0.5047961630695443,0.35251798561151076,0.43884892086330934,0.36330935251798563,0.1486810551558753,0.07793764988009592,0.1091127098321343,0.5107913669064749
452318,0.004272634259082808,0.38301114251063745,0.7597964465294684,0.5253509009703675,0.3764467348145645,0.5858747993579454,0.3710399594491848,0.04007623757276052,0.3548652964508319,0.5827023128831196,0.5047961630695443,0.35251798561151076,0.43884892086330934,0.36330935251798563,0.1486810551558753,0.07793764988009592,0.1091127098321343,0.5107913669064749
464881,0.004272634259082808,0.38301114251063745,0.7597964465294684,0.5253509009703675,0.3764467348145645,0.5858747993579454,0.3710399594491848,0.04007623757276052,0.3548652964508319,0.5827023128831196,0.4184652278177458,0.2949640287769784,0.39928057553956836,0.40167865707434053,0.19544364508393286,0.08992805755395683,0.1223021582733813,0.5611510791366906
471869,0.03729458738023754,0.42830788812950377,0.6896751928139181,0.58267451903723,0.4317817014446228,0.5186280307510349,0.3603953704485934,0.01447483644980168,0.3277185391232679,0.6577551125534435,0.4184652278177458,0.2949640287769784,0.39928057553956836,0.40167865707434053,0.19544364508393286,0.08992805755395683,0.1223021582733813,0.5611510791366906
488053,0.03729458738023754,0.42830788812950377,0.6896751928139181,0.58267451903723,0.4317817014446228,0.5186280307510349,0.3603953704485934,0.01447483644980168,0.3277185391232679,0.6577551125534435,0.4460431654676259,0.2565947242206235,0.3345323741007194,0.36930455635491605,0.21942446043165467,0.11630695443645084,0.17026378896882494,0.6019184652278178
489843,0.07800647592046667,0.4621181762080228,0.614957155632787,0.6341841039230428,0.4229112106107967,0.47545830869308103,0.35034214750359044,0,0.32483387420800497,0.6045433472415391,0.4460431654676259,0.2565947242206235,0.3345323741007194,0.36930455635491605,0.21942446043165467,0.11630695443645084,0.17026378896882494,0.6019184652278178
510609,0.07800647592046667,0.4621181762080228,0.614957155632787,0.6341841039230428,0.4229112106107967,0.47545830869308103,0.35034214750359044,0,0.32483387420800497,0.6045433472415391,0.4136690647482014,0.23980815347721823,0.26139088729016785,0.3117505995203837,0.3225419664268585,0.14388489208633093,0.20023980815347722,0.5599520383693045
512360,0.12250850238404465,0.49076649684490237,0.5545539333129276,0.6607645930778692,0.42979640111514744,0.4593647038945679,0.34561121905888315,0.10601143563591407,0.28269716169577086,0.5345387111729254,0.4136690647482014,0.23980815347721823,0.26139088729016785,0.3117505995203837,0.3225419664268585,0.14388489208633093,0.20023980815347722,0.5599520383693045
524841,0.12250850238404465,0.49076649684490237,0.5545539333129276,0.6607645930778692,0.42979640111514744,0.4593647038945679,0.34561121905888315,0.10601143563591407,0.28269716169577086,0.5345387111729254,0.43764988009592326,0.22541966426858512,0.25539568345323743,0.31414868105515587,0.34532374100719426,0.20623501199040767,0.2565947242206235,0.5347721822541966
531819,0.16346198743141307,0.5093079996742759,0.5224313481797851,0.6640414343787687,0.4678550308355158,0.45349328377122583,0.36149362169468613,0.26698604028228506,0.28383042291248134,0.45721938906918047,0.43764988009592326,0.22541966426858512,0.25539568345323743,0.31414868105515587,0.34532374100719426,0.20623501199040767,0.2565947242206235,0.5347721822541966
548568,0.16346198743141307,0.5093079996742759,0.5224313481797851,0.6640414343787687,0.4678550308355158,0.45349328377122583,0.36149362169468613,0.26698604028228506,0.28383042291248134,0.45721938906918047,0.407673860911271,0.22302158273381295,0.2422062350119904,0.29136690647482016,0.34772182254196643,0.21223021582733814,0.27218225419664266,0.41606714628297364
550335,0.21120329075313746,0.5132362048128265,0.5127478735047267,0.6550354084022885,0.4731350849032694,0.46101208076370703,0.3908929627439385,0.340132900633596,0.30093236491011177,0.33657858136300417,0.407673860911271,0.22302158273381295,0.2422062350119904,0.29136690647482016,0.34772182254196643,0.21223021582733814,0.27218225419664266,0.41606714628297364
570599,0.21120329075313746,0.5132362048128265,0.5127478735047267,0.6550354084022885,0.4731350849032694,0.46101208076370703,0.3908929627439385,0.340132900633596,0.30093236491011177,0.33657858136300417,0.49640287769784175,0.23381294964028776,0.17386091127098321,0.18465227817745802,0.3261390887290168,0.21342925659472423,0.2805755395683453,0.3597122302158273
572343,0.2531213423736687,0.5153372302051807,0.4992234046959817,0.6489477000522896,0.49184759651938836,0.5528850215426206,0.39439891864492693,0.3326636789780044,0.32339154175037343,0.3420388399526091,0.49640287769784175,0.23381294964028776,0.17386091127098321,0.18465227817745802,0.3261390887290168,0.21342925659472423,0.2805755395683453,0.3597122302158273
584896,0.2531213423736687,0.5153372302051807,0.4992234046959817,0.6489477000522896,0.49184759651938836,0.5528850215426206,0.39439891864492693,0.3326636789780044,0.32339154175037343,0.3420388399526091,0.5575539568345323,0.2733812949640288,0.1618705035971223,0.15707434052757793,0.30815347721822545,0.2038369304556355,0.26258992805755393,0.32014388489208634
591820,0.26429095089722315,0.5019696951914003,0.49788020472717076,0.6559664778966414,0.47651431950663176,0.5950409732195657,0.29657007687758724,0.39643537835471077,0.4903930355947046,0.4062226343172101,0.5575539568345323,0.2733812949640288,0.1618705035971223,0.15707434052757793,0.30815347721822545,0.2038369304556355,0.26258992805755393,0.32014388489208634
608089,0.26429095089722315,0.5019696951914003,0.49788020472717076,0.6559664778966414,0.47651431950663176,0.5950409732195657,0.29657007687758724,0.39643537835471077,0.4903930355947046,0.4062226343172101,0.7350119904076738,0.3980815347721823,0.12589928057553956,0.15227817745803357,0.20023980815347722,0.18585131894484413,0.2565947242206235,0.447242206235012
609840,0.2532532068111074,0.4832503346164226,0.5102908674236823,0.6647820379319765,0.37539072400101375,0.5691053476387599,0.3480611641463209,0.47184876113944263,0.5843506928346984,0.4299696079946428,0.7350119904076738,0.3980815347721823,0.12589928057553956,0.15227817745803357,0.20023980815347722,0.18585131894484413,0.2565947242206235,0.447242206235012
630541,0.2532532068111074,0.4832503346164226,0.5102908674236823,0.6647820379319765,0.37539072400101375,0.5691053476387599,0.3480611641463209,0.47184876113944263,0.5843506928346984,0.4299696079946428,0.7637889688249401,0.45443645083932854,0.1091127098321343,0.12350119904076738,0.14388489208633093,0.11151079136690648,0.20743405275779375,0.45443645083932854
632269,0.21955811665102312,0.4602358074919973,0.5505128312692736,0.6609938407600582,0.3445129678127904,0.537551744529864,0.35566444200388614,0.6379745531344975,0.65667336321022,0.41508267655694636,0.7637889688249401,0.45443645083932854,0.1091127098321343,0.12350119904076738,0.14388489208633093,0.11151079136690648,0.20743405275779375,0.45443645083932854
653086,0.1641312348509401,0.4391685514140997,0.6045815846777842,0.6439511073549342,0.35596012503168034,0.5611219058883163,0.3794880459575906,0.7703085561221862,0.6909287590789677,0.4438778138360892,0.7637889688249401,0.45443645083932854,0.1091127098321343,0.12350119904076738,0.14388489208633093,0.11151079136690648,0.20743405275779375,0.45443645083932854
653887,0.1641312348509401,0.4391685514140997,0.6045815846777842,0.6439511073549342,0.35596012503168034,0.5611219058883163,0.3794880459575906,0.7703085561221862,0.6909287590789677,0.4438778138360892,0.8393285371702638,0.45323741007194246,0.10551558752997602,0.1342925659472422,0.1354916067146283,0.09352517985611511,0.2278177458033573,0.4412470023980815
668079,0.11297973679604281,0.42121726830334494,0.6624360256334159,0.6090895696854194,0.37598209005660216,0.573709554785841,0.4050857480780603,0.831659197445011,0.63272034203884,0.41492814093648583,0.8393285371702638,0.45323741007194246,0.10551558752997602,0.1342925659472422,0.1354916067146283,0.09352517985611511,0.2278177458033573,0.4412470023980815
668890,0.11297973679604281,0.42121726830334494,0.6624360256334159,0.6090895696854194,0.37598209005660216,0.573709554785841,0.4050857480780603,0.831659197445011,0.63272034203884,0.41492814093648583,0.8585131894484412,0.4520383693045564,0.12709832134292565,0.1750599520383693,0.1498800959232614,0.09112709832134293,0.2314148681055156,0.49760191846522783
690625,0.07904660149429873,0.4031681875442804,0.7206974701491777,0.5583925177373319,0.3926248204781617,0.5664019599560699,0.4160260201064459,0.850873126255602,0.5450986452377273,0.35285633338484523,0.8585131894484412,0.4520383693045564,0.12709832134292565,0.1750599520383693,0.1498800959232614,0.09112709832134293,0.2314148681055156,0.49760191846522783
691415,0.07904660149429873,0.4031681875442804,0.7206974701491777,0.5583925177373319,0.3926248204781617,0.5664019599560699,0.4160260201064459,0.850873126255602,0.5450986452377273,0.35285633338484523,0.8729016786570744,0.434052757793765,0.11870503597122302,0.1906474820143885,0.14268585131894485,0.07673860911270983,0.23381294964028776,0.5047961630695443
713091,0.06683872142954982,0.3635538126341541,0.7736810905201315,0.5145665951151643,0.4416237222269156,0.5629382444876235,0.37940356509250656,0.7588214083346211,0.5366506979858857,0.22701282645649823,0.8729016786570744,0.434052757793765,0.11870503597122302,0.1906474820143885,0.14268585131894485,0.07673860911270983,0.23381294964028776,0.5047961630695443
713891,0.06683872142954982,0.3635538126341541,0.7736810905201315,0.5145665951151643,0.4416237222269156,0.5629382444876235,0.37940356509250656,0.7588214083346211,0.5366506979858857,0.22701282645649823,0.86810551558753,0.40047961630695444,0.11990407673860912,0.1882494004796163,0.1223021582733813,0.07314148681055156,0.2146282973621103,0.39928057553956836
728062,0.04559472401169523,0.31434113609133923,0.8218647373727929,0.47291555775450417,0.44601672721128666,0.5253020190926755,0.30801723409647713,0.7398135270179776,0.5964559831041055,0.22124349662597229,0.86810551558753,0.40047961630695444,0.11990407673860912,0.1882494004796163,0.1223021582733813,0.07314148681055156,0.2146282973621103,0.39928057553956836
728844,0.04559472401169523,0.31434113609133923,0.8218647373727929,0.47291555775450417,0.44601672721128666,0.5253020190926755,0.30801723409647713,0.7398135270179776,0.5964559831041055,0.22124349662597229,0.8621103117505995,0.44364508393285373,0.26618705035971224,0.20743405275779375,0.11630695443645084,0.0683453237410072,0.2014388489208633,0.38489208633093525
750592,0.017030165488495806,0.28200489088476927,0.8436341118870987,0.4565793471467693,0.3551575568133818,0.7751964180113204,0.16828588324744445,0.6078401071446968,0.6239633235460774,0.3626435893473446,0.8621103117505995,0.44364508393285373,0.26618705035971224,0.20743405275779375,0.11630695443645084,0.0683453237410072,0.2014388489208633,0.38489208633093525
751429,0.017030165488495806,0.28200489088476927,0.8436341118870987,0.4565793471467693,0.3551575568133818,0.7751964180113204,0.16828588324744445,0.6078401071446968,0.6239633235460774,0.3626435893473446,0.7925659472422062,0.47601918465227816,0.34652278177458035,0.22182254196642687,0.11151079136690648,0.06954436450839328,0.15587529976019185,0.41007194244604317
773098,-0.07410010257901062,0.3118430181846501,0.8384176351114414,0.44081626097661836,0,1,0.3124524795133902,0.6365837325503528,0.739040848915675,0.7826714057590275,0.7925659472422062,0.47601918465227816,0.34652278177458035,0.22182254196642687,0.11151079136690648,0.06954436450839328,0.15587529976019185,0.41007194244604317
773892,-0.07410010257901062,0.3118430181846501,0.8384176351114414,0.44081626097661836,0,1,0.3124524795133902,0.6365837325503528,0.739040848915675,0.7826714057590275,0.7050359712230215,0.4952038369304556,0.4028776978417266,0.26258992805755393,0.13788968824940048,0.08992805755395683,0.1342925659472422,0.35611510791366907
788068,-0.0977202247928238,0.33606968001829346,0.8017208948493071,0.4845116454749752,0.2678888231815494,0.6592886711159922,0.3451465743009208,0.23664554679853705,0.5807448616906197,0.6446710966877865,0.7050359712230215,0.4952038369304556,0.4028776978417266,0.26258992805755393,0.13788968824940048,0.08992805755395683,0.1342925659472422,0.35611510791366907
788893,-0.0977202247928238,0.33606968001829346,0.8017208948493071,0.4845116454749752,0.2678888231815494,0.6592886711159922,0.3451465743009208,0.23664554679853705,0.5807448616906197,0.6446710966877865,0.5851318944844125,0.49760191846522783,0.42565947242206237,0.2637889688249401,0.2278177458033573,0.1342925659472422,0.10431654676258993,0.30935251798561153
810625,-0.07764078853036348,0.36763401675973206,0.7427757512782964,0.5541672319710456,0.33796570076877586,0.5558840922531046,0.3501731857734223,0.009375160974604646,0.4546437953948385,0.599495183639829,0.5851318944844125,0.49760191846522783,0.42565947242206237,0.2637889688249401,0.2278177458033573,0.1342925659472422,0.10431654676258993,0.30935251798561153
811392,-0.07764078853036348,0.36763401675973206,0.7427757512782964,0.5541672319710456,0.33796570076877586,0.5558840922531046,0.3501731857734223,0.009375160974604646,0.4546437953948385,0.599495183639829,0.34532374100719426,0.434052757793765,0.42805755395683454,0.2841726618705036,0.23621103117505995,0.13908872901678657,0.11390887290167866,0.3441247002398082
833069,-0.051821080697162056,0.416643930316641,0.679838865494689,0.6012832343318533,0.3761510517867703,0.5375939849624061,0.3588324744445383,0.061041570081903876,0.34785968165662184,0.6550249832586411,0.34532374100719426,0.434052757793765,0.42805755395683454,0.2841726618705036,0.23621103117505995,0.13908872901678657,0.11390887290167866,0.3441247002398082
833918,-0.051821080697162056,0.416643930316641,0.679838865494689,0.6012832343318533,0.3761510517867703,0.5375939849624061,0.3588324744445383,0.061041570081903876,0.34785968165662184,0.6550249832586411,0.24580335731414868,0.3441247002398082,0.38848920863309355,0.31414868105515587,0.2529976019184652,0.14628297362110312,0.11270983213429256,0.3237410071942446
848067,-0.019958810904144596,0.46735356297564273,0.6145726819383239,0.6352028901511707,0.4254033961307764,0.47799273464560277,0.3734476641040804,0.08504610312677072,0.29516303507958586,0.6395714212125895,0.24580335731414868,0.3441247002398082,0.38848920863309355,0.31414868105515587,0.2529976019184652,0.14628297362110312,0.11270983213429256,0.3237410071942446
848898,-0.019958810904144596,0.46735356297564273,0.6145726819383239,0.6352028901511707,0.4254033961307764,0.47799273464560277,0.3734476641040804,0.08504610312677072,0.29516303507958586,0.6395714212125895,0.24940047961630696,0.3261390887290168,0.3261390887290168,0.3057553956834532,0.26139088729016785,0.15587529976019185,0.16906474820143885,0.32014388489208634
870636,0.020753245896969735,0.5086376413513201,0.5558207562876659,0.6572064663902152,0.4368083129171243,0.4569147588071302,0.36200050688519053,0.11945603461597898,0.27265234636583735,0.5677638695719364,0.24940047961630696,0.3261390887290168,0.3261390887290168,0.3057553956834532,0.26139088729016785,0.15587529976019185,0.16906474820143885,0.32014388489208634
871445,0.020753245896969735,0.5086376413513201,0.5558207562876659,0.6572064663902152,0.4368083129171243,0.4569147588071302,0.36200050688519053,0.11945603461597898,0.27265234636583735,0.5677638695719364,0.2541966426858513,0.27577937649880097,0.24580335731414868,0.25059952038369304,0.26019184652278177,0.18105515587529977,0.32014388489208634,0.31654676258992803
893095,0.06512859009485204,0.5454443121720691,0.5077222234385935,0.6636768135907462,0.4520993494973389,0.4652361240179099,0.36246515164315285,0.18513367331169836,0.24086952042445783,0.5167156029464791,0.2541966426858513,0.27577937649880097,0.24580335731414868,0.25059952038369304,0.26019184652278177,0.18105515587529977,0.32014388489208634,0.31654676258992803
893893,0.06512859009485204,0.5454443121720691,0.5077222234385935,0.6636768135907462,0.4520993494973389,0.4652361240179099,0.36246515164315285,0.18513367331169836,0.24086952042445783,0.5167156029464791,0.26258992805755393,0.23381294964028776,0.20743405275779375,0.23381294964028776,0.2314148681055156,0.17625899280575538,0.4196642685851319,0.3333333333333333
908080,0.10639089102590242,0.5708362667092596,0.48019342495741496,0.6574505377165777,0.4838219143364028,0.48344175044352455,0.3720959702627355,0.2866120640807706,0.25714727244629887,0.439808375830629,0.26258992805755393,0.23381294964028776,0.20743405275779375,0.23381294964028776,0.2314148681055156,0.17625899280575538,0.4196642685851319,0.3333333333333333
908866,0.10639089102590242,0.5708362667092596,0.48019342495741496,0.6574505377165777,0.4838219143364028,0.48344175044352455,0.3720959702627355,0.2866120640807706,0.25714727244629887,0.439808375830629,0.27817745803357313,0.2302158273381295,0.2038369304556355,0.20983213429256595,0.3057553956834532,0.19544364508393286,0.46522781774580335,0.3057553956834532
930596,0.14874922024807727,0.5806529881903812,0.4710290244786263,0.6471842356546423,0.49949311480949565,0.5145307087944581,0.37463039621525723,0.34245093494050377,0.3008293411631381,0.35022922783701643,0.27817745803357313,0.2302158273381295,0.2038369304556355,0.20983213429256595,0.3057553956834532,0.19544364508393286,0.46522781774580335,0.3057553956834532
931382,0.14874922024807727,0.5806529881903812,0.4710290244786263,0.6471842356546423,0.49949311480949565,0.5145307087944581,0.37463039621525723,0.34245093494050377,0.3008293411631381,0.35022922783701643,0.2997601918465228,0.19424460431654678,0.14268585131894485,0.14268585131894485,0.3261390887290168,0.19424460431654678,0.5107913669064749,0.3345323741007194
953084,0.18268696060024842,0.5798617192456933,0.46529325113788633,0.6433413179841692,0.48965109402720286,0.5726113035397482,0.37171580636985724,0.3548137845773451,0.37273991655076494,0.353577499613661,0.2997601918465228,0.19424460431654678,0.14268585131894485,0.14268585131894485,0.3261390887290168,0.19424460431654678,0.5107913669064749,0.3345323741007194
953887,0.18268696060024842,0.5798617192456933,0.46529325113788633,0.6433413179841692,0.48965109402720286,0.5726113035397482,0.37171580636985724,0.3548137845773451,0.37273991655076494,0.353577499613661,0.3213429256594724,0.14268585131894485,0.12709832134292565,0.12470023980815348,0.3333333333333333,0.18705035971223022,0.5095923261390888,0.3333333333333333
966810,0.20545558046747597,0.5635684416090926,0.4623666137971273,0.6529898395249726,0.41741995438033286,0.563614091408296,0.3509757539917209,0.34682944418688505,0.4878689537938495,0.3655797661360944,0.3213429256594724,0.14268585131894485,0.12709832134292565,0.12470023980815348,0.3333333333333333,0.18705035971223022,0.5095923261390888,0.3333333333333333
974919,0.20545558046747597,0.5635684416090926,0.4623666137971273,0.6529898395249726,0.41741995438033286,0.563614091408296,0.3509757539917209,0.34682944418688505,0.4878689537938495,0.3655797661360944,0.33213429256594723,0.14028776978417265,0.11151079136690648,0.09832134292565947,0.3213429256594724,0.14628297362110312,0.4364508393285372,0.33573141486810554
989883,0.21308736264626707,0.5426982931217303,0.4742735055174721,0.6596491343793206,0.3766156965447326,0.5432542029230379,0.37302525977866013,0.4375418533972081,0.539741410395096,0.36326173182918664,0.33213429256594723,0.14028776978417265,0.11151079136690648,0.09832134292565947,0.3213429256594724,0.14628297362110312,0.4364508393285372,0.33573141486810554
990773,0.21308736264626707,0.5426982931217303,0.4742735055174721,0.6596491343793206,0.3766156965447326,0.5432542029230379,0.37302525977866013,0.4375418533972081,0.539741410395096,0.36326173182918664,0.3237410071942446,0.12589928057553956,0.09832134292565947,0.08872901678657075,0.29256594724220625,0.11630695443645084,0.3537170263788969,0.37410071942446044
1013161,0.1878781747217933,0.5229214824046794,0.5079058777972846,0.6582450410005909,0.356931654980147,0.5382275914505364,0.3725183745881558,0.6086127852469995,0.6111368670478545,0.40668624117859165,0.3237410071942446,0.12589928057553956,0.09832134292565947,0.08872901678657075,0.29256594724220625,0.11630695443645084,0.3537170263788969,0.37410071942446044
1013892,0.1878781747217933,0.5229214824046794,0.5079058777972846,0.6582450410005909,0.356931654980147,0.5382275914505364,0.3725183745881558,0.6086127852469995,0.6111368670478545,0.40668624117859165,0.30335731414868106,0.1211031175059952,0.09352517985611511,0.0803357314148681,0.20863309352517986,0.07194244604316546,0.2865707434052758,0.3645083932853717
1026786,0.1332492399308895,0.5136474365636441,0.5508204952525638,0.6442109382641354,0.36728056095294415,0.5517445298639858,0.387260285545324,0.7534126616185031,0.6249935610158142,0.48900221501055996,0.30335731414868106,0.1211031175059952,0.09352517985611511,0.0803357314148681,0.20863309352517986,0.07194244604316546,0.2865707434052758,0.3645083932853717
1034898,0.1332492399308895,0.5136474365636441,0.5508204952525638,0.6442109382641354,0.36728056095294415,0.5517445298639858,0.387260285545324,0.7534126616185031,0.6249935610158142,0.48900221501055996,0.3057553956834532,0.10071942446043165,0.08992805755395683,0.10671462829736211,0.1618705035971223,0.06354916067146282,0.19784172661870503,0.3441247002398082
1049924,0.076479895516182,0.5103339237117301,0.5985330051330254,0.612754725528293,0.388738700684295,0.5550392836022641,0.40854946354650673,0.8263019626023799,0.5699788801318704,0.48601452634832326,0.3057553956834532,0.10071942446043165,0.08992805755395683,0.10671462829736211,0.1618705035971223,0.06354916067146282,0.19784172661870503,0.3441247002398082
1050766,0.076479895516182,0.5103339237117301,0.5985330051330254,0.612754725528293,0.388738700684295,0.5550392836022641,0.40854946354650673,0.8263019626023799,0.5699788801318704,0.48601452634832326,0.2709832134292566,0.0803357314148681,0.08273381294964029,0.11870503597122302,0.13309352517985612,0.06474820143884892,0.1498800959232614,0.31654676258992803
1073084,0.037050597022732716,0.502166823238916,0.6547029714428848,0.5637550479439198,0.38751372814057616,0.560615020697812,0.43287995269071555,0.8618966671817854,0.4921444392932571,0.39561118837892134,0.2709832134292566,0.0803357314148681,0.08273381294964029,0.11870503597122302,0.13309352517985612,0.06474820143884892,0.1498800959232614,0.31654676258992803
1073895,0.037050597022732716,0.502166823238916,0.6547029714428848,0.5637550479439198,0.38751372814057616,0.560615020697812,0.43287995269071555,0.8618966671817854,0.4921444392932571,0.39561118837892134,0.24820143884892087,0.07553956834532374,0.11270983213429256,0.1774580335731415,0.11990407673860912,0.06115107913669065,0.12589928057553956,0.28896882494004794
1086778,0.032288996130222514,0.47627795237074905,0.7059021554745243,0.5232770582691826,0.4163217031342401,0.540424093942722,0.3951170059981414,0.7302323185494256,0.4519136661000361,0.25606552310307523,0.24820143884892087,0.07553956834532374,0.11270983213429256,0.1774580335731415,0.11990407673860912,0.06115107913669065,0.12589928057553956,0.28896882494004794
1094842,0.032288996130222514,0.47627795237074905,0.7059021554745243,0.5232770582691826,0.4163217031342401,0.540424093942722,0.3951170059981414,0.7302323185494256,0.4519136661000361,0.25606552310307523,0.24700239808153476,0.0815347721822542,0.12350119904076738,0.2182254196642686,0.10431654676258993,0.05635491606714628,0.07793764988009592,0.20023980815347722
1109246,0.038760289521417086,0.43289444611951183,0.7499353024568982,0.4986953785668939,0.4540424093942722,0.615569823434992,0.34975078144800203,0.63174161644259,0.4911657136970072,0.18729717199814558,0.24700239808153476,0.0815347721822542,0.12350119904076738,0.2182254196642686,0.10431654676258993,0.05635491606714628,0.07793764988009592,0.20023980815347722
1117380,0.038760289521417086,0.43289444611951183,0.7499353024568982,0.4986953785668939,0.4540424093942722,0.615569823434992,0.34975078144800203,0.63174161644259,0.4911657136970072,0.18729717199814558,0.23741007194244604,0.07793764988009592,0.1211031175059952,0.2278177458033573,0.10071942446043165,0.0539568345323741,0.07194244604316546,0.21103117505995203
1133095,0.046634595011269174,0.40970078758591455,0.7742319412603903,0.4801410004694284,0.45294415814817945,0.6752133141843373,0.20963926670609107,0.5631278009581209,0.45345902230464125,0.30644413537320353,0.23741007194244604,0.07793764988009592,0.1211031175059952,0.2278177458033573,0.10071942446043165,0.0539568345323741,0.07194244604316546,0.21103117505995203
1133915,0.046634595011269174,0.40970078758591455,0.7742319412603903,0.4801410004694284,0.45294415814817945,0.6752133141843373,0.20963926670609107,0.5631278009581209,0.45345902230464125,0.30644413537320353,0.20983213429256595,0.09592326139088729,0.13189448441247004,0.21942446043165467,0.08513189448441247,0.047961630695443645,0.05995203836930456,0.20983213429256595
1146705,-0.008301336416691125,0.44204616418880244,0.7640281465273736,0.4698800568800609,0.3530455351862803,0.8405846075863816,0.33851482639182223,0.5881625714727244,0.565960953999897,0.7209086694483078,0.20983213429256595,0.09592326139088729,0.13189448441247004,0.21942446043165467,0.08513189448441247,0.047961630695443645,0.05995203836930456,0.20983213429256595
1154866,-0.008301336416691125,0.44204616418880244,0.7640281465273736,0.4698800568800609,0.3530455351862803,0.8405846075863816,0.33851482639182223,0.5881625714727244,0.565960953999897,0.7209086694483078,0.18944844124700239,0.11031175059952038,0.14268585131894485,0.20983213429256595,0.08273381294964029,0.04196642685851319,0.05755395683453238,0.21342925659472423
1169267,-0.07269671990269533,0.48061626575467925,0.7257464312704008,0.4868421813130965,0.28744614344850894,0.7131874630396215,0.39629973810931823,0.4470200381187864,0.6447226085612734,0.8231082264461959,0.18944844124700239,0.11031175059952038,0.14268585131894485,0.20983213429256595,0.08273381294964029,0.04196642685851319,0.05755395683453238,0.21342925659472423
1177364,-0.07269671990269533,0.48061626575467925,0.7257464312704008,0.4868421813130965,0.28744614344850894,0.7131874630396215,0.39629973810931823,0.4470200381187864,0.6447226085612734,0.8231082264461959,0.19424460431654678,0.11270983213429256,0.12949640287769784,0.16666666666666666,0.06954436450839328,0.04316546762589928,0.05755395683453238,0.20503597122302158
1193093,-0.06561489623942834,0.4889683104874981,0.6842260342734807,0.5370655553588186,0.33547351524879615,0.5950832136521078,0.3377122581735237,0.17199814557255447,0.5524133312728584,0.5586977798382528,0.19424460431654678,0.11270983213429256,0.12949640287769784,0.16666666666666666,0.06954436450839328,0.04316546762589928,0.05755395683453238,0.20503597122302158
1193866,-0.06561489623942834,0.4889683104874981,0.6842260342734807,0.5370655553588186,0.33547351524879615,0.5950832136521078,0.3377122581735237,0.17199814557255447,0.5524133312728584,0.5586977798382528,0.18944844124700239,0.11390887290167866,0.12589928057553956,0.11510791366906475,0.06474820143884892,0.04196642685851319,0.05995203836930456,0.2182254196642686
1206784,-0.029054053895228932,0.49788638156172776,0.6450488268167633,0.5789447504122824,0.3712511616118949,0.5518712511616118,0.32660302441497,0.13094318240354402,0.43434811724102407,0.47370318858496885,0.18944844124700239,0.11390887290167866,0.12589928057553956,0.11510791366906475,0.06474820143884892,0.04196642685851319,0.05995203836930456,0.2182254196642686
1214841,-0.029054053895228932,0.49788638156172776,0.6450488268167633,0.5789447504122824,0.3712511616118949,0.5518712511616118,0.32660302441497,0.13094318240354402,0.43434811724102407,0.47370318858496885,0.18345323741007194,0.1091127098321343,0.12470023980815348,0.09712230215827339,0.05635491606714628,0.03836930455635491,0.06354916067146282,0.21103117505995203
1230348,0.015381847462485974,0.5127892878267646,0.6017842624311477,0.6120998664833704,0.4342738869646025,0.5227675931401538,0.3592971192025006,0.12883119559058362,0.3676402410755679,0.4709215474166795,0.18345323741007194,0.1091127098321343,0.12470023980815348,0.09712230215827339,0.05635491606714628,0.03836930455635491,0.06354916067146282,0.21103117505995203
1237400,0.015381847462485974,0.5127892878267646,0.6017842624311477,0.6120998664833704,0.4342738869646025,0.5227675931401538,0.3592971192025006,0.12883119559058362,0.3676402410755679,0.4709215474166795,0.15467625899280577,0.08872901678657075,0.10071942446043165,0.08273381294964029,0.050359712230215826,0.03477218225419664,0.05875299760191847,0.19664268585131894
1253093,0.054140585566075025,0.518028353663223,0.5637457139664813,0.6410196500731905,0.4618146489820056,0.4991129509166174,0.37272957675086593,0.16993767063308093,0.40081388760109204,0.44073558955339204,0.15467625899280577,0.08872901678657075,0.10071942446043165,0.08273381294964029,0.050359712230215826,0.03477218225419664,0.05875299760191847,0.19664268585131894
1253919,0.054140585566075025,0.518028353663223,0.5637457139664813,0.6410196500731905,0.4618146489820056,0.4991129509166174,0.37272957675086593,0.16993767063308093,0.40081388760109204,0.44073558955339204,0.14388489208633093,0.07074340527577938,0.07793764988009592,0.0815347721822542,0.04196642685851319,0.03357314148681055,0.05515587529976019,0.17865707434052758
1266739,0.08447690450552196,0.5132094025162056,0.536098737190751,0.6648893936261927,0.4572526822674664,0.49108726873363184,0.3878938920334544,0.23489414309998455,0.44418688507701026,0.4119404522742492,0.14388489208633093,0.07074340527577938,0.07793764988009592,0.0815347721822542,0.04196642685851319,0.03357314148681055,0.05515587529976019,0.17865707434052758
1274882,0.08447690450552196,0.5132094025162056,0.536098737190751,0.6648893936261927,0.4572526822674664,0.49108726873363184,0.3878938920334544,0.23489414309998455,0.44418688507701026,0.4119404522742492,0.09472422062350119,0.05995203836930456,0.06354916067146282,0.07434052757793765,0.039568345323741004,0.03117505995203837,0.049160671462829736,0.1606714628297362
1289945,0.10553438526387195,0.504050291214028,0.5215681446383955,0.680266468343466,0.43938497930218806,0.49607163977359126,0.40280476472079074,0.3205583887085973,0.46613094318240356,0.39751712769793435,0.09472422062350119,0.05995203836930456,0.06354916067146282,0.07434052757793765,0.039568345323741004,0.03117505995203837,0.049160671462829736,0.1606714628297362
1290766,0.10553438526387195,0.504050291214028,0.5215681446383955,0.680266468343466,0.43938497930218806,0.49607163977359126,0.40280476472079074,0.3205583887085973,0.46613094318240356,0.39751712769793435,0.06235011990407674,0.045563549160671464,0.05275779376498801,0.05635491606714628,0.03597122302158273,0.02877697841726619,0.046762589928057555,0.14028776978417265
