Timestamp, Orientation x, Orientation y, Orientation z, Orientation w, Acceleration x, Acceleration y, Acceleration z, Rotation x, Rotation y, Rotation z, EMG 0, EMG 1, EMG 2, EMG 3, EMG 4, EMG 5, EMG 6, EMG 7
0,-0.5084934273778385,0.20709617081899007,0.8299716271136537,0.0984515542384412,0.7304356396609502,0.7120047309284447,0.3035679085353834,0.5470518401266323,0.5512465373961218,0.5499010684606253,0,0,0,0,0,0,0,0
787,-0.5086715495607144,0.2073382834002576,0.8297803835226676,0.09863369619511812,0.7302385176424206,0.7101320717524148,0.30544056771141337,0.547605856747131,0.5500593589236249,0.5502967946181243,0,0,0,0,0,0,0,0
14274,-0.5086715495607144,0.2073382834002576,0.8297803835226676,0.09863369619511812,0.7293514685590381,0.7102306327616795,0.30406071358170705,0.5509299564701227,0.5490304709141274,0.5503759398496241,0,0,0,0,0,0,0,0
36780,-0.508551596250499,0.2074612188736733,0.8298448754946932,0.0984509991301074,0.7289572245219791,0.7123989749655036,0.30228661541494184,0.5506133755441235,0.5485555995251286,0.5514048278591215,0,0,0,0,0,0,0,0
59269,-0.5083054517997684,0.2079486880741848,0.8299026450674173,0.09820646877351433,0.7274788093830081,0.7131874630396215,0.3077074709245023,0.5498219232291255,0.5452314998021369,0.5543332014246142,0,0,0,0,0,0,0,0
67405,-0.5083054517997684,0.2079486880741848,0.8299026450674173,0.09820646877351433,0.7274788093830081,0.7131874630396215,0.3077074709245023,0.5498219232291255,0.5452314998021369,0.5543332014246142,0.03392226148409894,0.02402826855123675,0.02756183745583039,0.03745583038869258,0.05653710247349823,0.04946996466431095,0.16395759717314487,0.1137809187279152
74364,-0.5068576710554702,0.2099699408033258,0.8303578705489663,0.09753836203596356,0.7285629804849202,0.7174255864380051,0.32367435442538933,0.5457063711911357,0.52797783933518,0.5661258409180847,0.03392226148409894,0.02402826855123675,0.02756183745583039,0.03745583038869258,0.05653710247349823,0.04946996466431095,0.16395759717314487,0.1137809187279152
89928,-0.5068576710554702,0.2099699408033258,0.8303578705489663,0.09753836203596356,0.7285629804849202,0.7174255864380051,0.32367435442538933,0.5457063711911357,0.52797783933518,0.5661258409180847,0.03674911660777385,0.04169611307420495,0.02685512367491166,0.04098939929328622,0.05724381625441696,0.05724381625441696,0.21484098939929328,0.12226148409893993
96873,-0.5016507169111118,0.21679807111184687,0.8319137694973178,0.09625297245027661,0.7287601025034496,0.7156514882712399,0.3327419672777449,0.5264740799366838,0.49062129006727345,0.5931143648595172,0.03674911660777385,0.04169611307420495,0.02685512367491166,0.04098939929328622,0.05724381625441696,0.05724381625441696,0.21484098939929328,0.12226148409893993
112452,-0.5016507169111118,0.21679807111184687,0.8319137694973178,0.09625297245027661,0.7287601025034496,0.7156514882712399,0.3327419672777449,0.5264740799366838,0.49062129006727345,0.5931143648595172,0.06713780918727916,0.053003533568904596,0.0303886925795053,0.04876325088339223,0.06713780918727916,0.08551236749116607,0.2706713780918728,0.19081272084805653
119359,-0.4907997255716486,0.22840101642695051,0.8358427362241209,0.09118950254993695,0.7305342006702149,0.6979105066035877,0.32801103883303767,0.5222793826671943,0.4341115947764147,0.6239018599129402,0.06713780918727916,0.053003533568904596,0.0303886925795053,0.04876325088339223,0.06713780918727916,0.08551236749116607,0.2706713780918728,0.19081272084805653
127367,-0.4907997255716486,0.22840101642695051,0.8358427362241209,0.09118950254993695,0.7305342006702149,0.6979105066035877,0.32801103883303767,0.5222793826671943,0.4341115947764147,0.6239018599129402,0.07985865724381626,0.058657243816254416,0.03109540636042403,0.051590106007067135,0.06925795053003533,0.09752650176678446,0.3795053003533569,0.24522968197879857
134310,-0.4727946663154348,0.24457632686882874,0.8428636131099716,0.07892118558557414,0.746501084171102,0.6700177409816677,0.31027005716538536,0.5403244954491492,0.3786307874950534,0.6668777206173329,0.07985865724381626,0.058657243816254416,0.03109540636042403,0.051590106007067135,0.06925795053003533,0.09752650176678446,0.3795053003533569,0.24522968197879857
149922,-0.4727946663154348,0.24457632686882874,0.8428636131099716,0.07892118558557414,0.746501084171102,0.6700177409816677,0.31027005716538536,0.5403244954491492,0.3786307874950534,0.6668777206173329,0.111660777385159,0.1088339222614841,0.03392226148409894,0.05441696113074205,0.052296819787985865,0.12791519434628976,0.5060070671378092,0.28833922261484096
156872,-0.4518623156003207,0.26325572972905353,0.8504997305923097,0.056276787111103024,0.7579341612458111,0.6307904592943032,0.283264340626848,0.5889988128215276,0.3374752671151563,0.7141274238227147,0.111660777385159,0.1088339222614841,0.03392226148409894,0.05441696113074205,0.052296819787985865,0.12791519434628976,0.5060070671378092,0.28833922261484096
172429,-0.4518623156003207,0.26325572972905353,0.8504997305923097,0.056276787111103024,0.7579341612458111,0.6307904592943032,0.283264340626848,0.5889988128215276,0.3374752671151563,0.7141274238227147,0.18303886925795054,0.15053003533568904,0.0431095406360424,0.058657243816254416,0.058657243816254416,0.18091872791519434,0.6190812720848057,0.3646643109540636
179415,-0.4267680304906065,0.28510204096419095,0.857930697450796,0.023254951318209538,0.7676917011630199,0.6081214271634141,0.24748669426374925,0.6372774040364068,0.29853581321725364,0.7689750692520776,0.18303886925795054,0.15053003533568904,0.0431095406360424,0.058657243816254416,0.058657243816254416,0.18091872791519434,0.6190812720848057,0.3646643109540636
187442,-0.4267680304906065,0.28510204096419095,0.857930697450796,0.023254951318209538,0.7676917011630199,0.6081214271634141,0.24748669426374925,0.6372774040364068,0.29853581321725364,0.7689750692520776,0.2826855123674912,0.15406360424028268,0.04734982332155477,0.06007067137809187,0.059363957597173146,0.20848056537102475,0.6975265017667844,0.49045936395759715
194386,-0.3979058309419659,0.31068272426669835,0.863014349392308,-0.018799661900617503,0.7704514094224325,0.5991523753203233,0.19091267494579145,0.6741590819153146,0.2630787495053423,0.824376731301939,0.2826855123674912,0.15406360424028268,0.04734982332155477,0.06007067137809187,0.059363957597173146,0.20848056537102475,0.6975265017667844,0.49045936395759715
209928,-0.3979058309419659,0.31068272426669835,0.863014349392308,-0.018799661900617503,0.7704514094224325,0.5991523753203233,0.19091267494579145,0.6741590819153146,0.2630787495053423,0.824376731301939,0.36325088339222616,0.1625441696113074,0.04946996466431095,0.058657243816254416,0.0558303886925795,0.2049469964664311,0.6954063604240283,0.631095406360424
216897,-0.3646360011054097,0.34254054874515555,0.8636147940476133,-0.06225790444049513,0.7343780800315395,0.613739404691504,0.12004730928444707,0.6550059358923624,0.24582508903838543,0.8790660862683023,0.36325088339222616,0.1625441696113074,0.04946996466431095,0.058657243816254416,0.0558303886925795,0.2049469964664311,0.6954063604240283,0.631095406360424
232395,-0.3646360011054097,0.34254054874515555,0.8636147940476133,-0.06225790444049513,0.7343780800315395,0.613739404691504,0.12004730928444707,0.6550059358923624,0.24582508903838543,0.8790660862683023,0.3950530035335689,0.1667844522968198,0.05653710247349823,0.08268551236749117,0.06219081272084806,0.20424028268551236,0.657243816254417,0.6544169611307421
239370,-0.3242239739000197,0.3859315111012471,0.8580460514093519,-0.09845129327950523,0.6668637886851961,0.6305933372757737,0.10969840331164991,0.5643055005935892,0.2403640680648991,0.950771666007123,0.3950530035335689,0.1667844522968198,0.05653710247349823,0.08268551236749117,0.06219081272084806,0.20424028268551236,0.657243816254417,0.6544169611307421
247383,-0.3242239739000197,0.3859315111012471,0.8580460514093519,-0.09845129327950523,0.6668637886851961,0.6305933372757737,0.10969840331164991,0.5643055005935892,0.2403640680648991,0.950771666007123,0.39293286219081275,0.14275618374558305,0.059363957597173146,0.09469964664310954,0.07561837455830389,0.19081272084805653,0.5674911660777385,0.6473498233215548
254366,-0.27900555861190485,0.43843730639013617,0.8461724040771902,-0.11798681793848437,0.5884092253104671,0.6784939877784348,0.15513502858269268,0.4421052631578947,0.2713889988128215,1,0.39293286219081275,0.14275618374558305,0.059363957597173146,0.09469964664310954,0.07561837455830389,0.19081272084805653,0.5674911660777385,0.6473498233215548
269913,-0.27900555861190485,0.43843730639013617,0.8461724040771902,-0.11798681793848437,0.5884092253104671,0.6784939877784348,0.15513502858269268,0.4421052631578947,0.2713889988128215,1,0.3674911660777385,0.10247349823321555,0.09681978798586573,0.1717314487632509,0.08551236749116607,0.14558303886925794,0.43250883392226147,0.6098939929328622
276877,-0.23297445645945822,0.49298786607886924,0.8291742182346712,-0.12310963549350988,0.5231618371772127,0.6826335501675537,0.2238320520402129,0.3475267115156312,0.3233082706766917,0.9977839335180055,0.3674911660777385,0.10247349823321555,0.09681978798586573,0.1717314487632509,0.08551236749116607,0.14558303886925794,0.43250883392226147,0.6098939929328622
292381,-0.23297445645945822,0.49298786607886924,0.8291742182346712,-0.12310963549350988,0.5231618371772127,0.6826335501675537,0.2238320520402129,0.3475267115156312,0.3233082706766917,0.9977839335180055,0.30247349823321557,0.09823321554770319,0.111660777385159,0.21625441696113074,0.09964664310954063,0.11448763250883393,0.2643109540636042,0.5236749116607774
299365,-0.19764182815348272,0.5407377874032437,0.8092450147186145,-0.11688823375970334,0.5228661541494185,0.716735659373152,0.25734279519022274,0.3331222793826672,0.42382271468144045,0.9389790265136525,0.30247349823321557,0.09823321554770319,0.111660777385159,0.21625441696113074,0.09964664310954063,0.11448763250883393,0.2643109540636042,0.5236749116607774
307393,-0.19764182815348272,0.5407377874032437,0.8092450147186145,-0.11688823375970334,0.5228661541494185,0.716735659373152,0.25734279519022274,0.3331222793826672,0.42382271468144045,0.9389790265136525,0.19575971731448763,0.08268551236749117,0.12296819787985866,0.22473498233215547,0.0989399293286219,0.11095406360424029,0.21696113074204948,0.31802120141342755
314368,-0.18195163150508906,0.578082489763401,0.7886605268960939,-0.10357997942439992,0.5104474669820619,0.7663118470333137,0.2758722649319929,0.38741590819153143,0.5593984962406015,0.8525524337158686,0.19575971731448763,0.08268551236749117,0.12296819787985866,0.22473498233215547,0.0989399293286219,0.11095406360424029,0.21696113074204948,0.31802120141342755
329885,-0.18195163150508906,0.578082489763401,0.7886605268960939,-0.10357997942439992,0.5104474669820619,0.7663118470333137,0.2758722649319929,0.38741590819153143,0.5593984962406015,0.8525524337158686,0.11519434628975266,0.0706713780918728,0.12226148409893993,0.2183745583038869,0.09469964664310954,0.10459363957597173,0.17102473498233214,0.22685512367491167
336833,-0.17102352106149682,0.5994978671898722,0.7783950621332152,-0.07385384028708464,0.47220579538734475,0.7411787896708062,0.23841908141139365,0.3233082706766917,0.6338741590819154,0.6895132568262762,0.11519434628975266,0.0706713780918728,0.12226148409893993,0.2183745583038869,0.09469964664310954,0.10459363957597173,0.17102473498233214,0.22685512367491167
352362,-0.17102352106149682,0.5994978671898722,0.7783950621332152,-0.07385384028708464,0.47220579538734475,0.7411787896708062,0.23841908141139365,0.3233082706766917,0.6338741590819154,0.6895132568262762,0.096113074204947,0.06713780918727916,0.12367491166077739,0.21484098939929328,0.08904593639575972,0.10671378091872792,0.15053003533568904,0.19646643109540637
359344,-0.1579646805178131,0.5963349801619142,0.7863442732268108,-0.033082247620036594,0.5113345160654446,0.6114725014784151,0.1961364084368224,0.25793430945785517,0.6314998021369213,0.4561139691333597,0.096113074204947,0.06713780918727916,0.12367491166077739,0.21484098939929328,0.08904593639575972,0.10671378091872792,0.15053003533568904,0.19646643109540637
367394,-0.1579646805178131,0.5963349801619142,0.7863442732268108,-0.033082247620036594,0.5113345160654446,0.6114725014784151,0.1961364084368224,0.25793430945785517,0.6314998021369213,0.4561139691333597,0.09752650176678446,0.06643109540636043,0.127208480565371,0.16466431095406361,0.09187279151943463,0.1625441696113074,0.2282685512367491,0.2
374337,-0.14923600901129822,0.583271698205303,0.7983668702935708,-0.011536035052407101,0.6339444115907746,0.41366055588409223,0.2419672777449241,0.401582904629996,0.5765730114760586,0.4009497427779976,0.09752650176678446,0.06643109540636043,0.127208480565371,0.16466431095406361,0.09187279151943463,0.1625441696113074,0.2282685512367491,0.2
389866,-0.14923600901129822,0.583271698205303,0.7983668702935708,-0.011536035052407101,0.6339444115907746,0.41366055588409223,0.2419672777449241,0.401582904629996,0.5765730114760586,0.4009497427779976,0.1371024734982332,0.0685512367491166,0.15335689045936396,0.13851590106007067,0.17314487632508835,0.21130742049469964,0.38798586572438165,0.2989399293286219
396836,-0.1497234762276432,0.5884565977622128,0.7945171178374364,-0.006653020346030619,0.8915828898087916,0.5306524738813325,0.1817465010841711,0.5185595567867036,0.5783933518005541,0.5913731697665215,0.1371024734982332,0.0685512367491166,0.15335689045936396,0.13851590106007067,0.17314487632508835,0.21130742049469964,0.38798586572438165,0.2989399293286219
412377,-0.1497234762276432,0.5884565977622128,0.7945171178374364,-0.006653020346030619,0.8915828898087916,0.5306524738813325,0.1817465010841711,0.5185595567867036,0.5783933518005541,0.5913731697665215,0.2049469964664311,0.09187279151943463,0.19575971731448763,0.15547703180212014,0.18657243816254418,0.22473498233215547,0.5010600706713781,0.384452296819788
419307,-0.16443524197171733,0.6023798823381138,0.7809148054143102,-0.016480146745495056,0.6747486694263749,0.4012418687167357,0.20599250936329588,0.6552433715868619,0.6081519588444796,0.6980609418282548,0.2049469964664311,0.09187279151943463,0.19575971731448763,0.15547703180212014,0.18657243816254418,0.22473498233215547,0.5010600706713781,0.384452296819788
427363,-0.16443524197171733,0.6023798823381138,0.7809148054143102,-0.016480146745495056,0.6747486694263749,0.4012418687167357,0.20599250936329588,0.6552433715868619,0.6081519588444796,0.6980609418282548,0.2183745583038869,0.10247349823321555,0.21201413427561838,0.15830388692579506,0.19575971731448763,0.2579505300353357,0.6,0.46925795053003533
434336,-0.18836321952802498,0.61080710881949,0.7671864245780123,-0.05346927424061889,0.5292726197516262,0.4378080031539523,0.0904790065050266,0.8561931143648596,0.5418282548476454,0.6993272655322517,0.2183745583038869,0.10247349823321555,0.21201413427561838,0.15830388692579506,0.19575971731448763,0.2579505300353357,0.6,0.46925795053003533
449607,-0.18836321952802498,0.61080710881949,0.7671864245780123,-0.05346927424061889,0.5292726197516262,0.4378080031539523,0.0904790065050266,0.8561931143648596,0.5418282548476454,0.6993272655322517,0.2325088339222615,0.10600706713780919,0.21201413427561838,0.18021201413427562,0.2,0.2756183745583039,0.6897526501766784,0.5561837455830388
458474,-0.2005664648959635,0.611343186974428,0.7569156211731112,-0.11450477423762251,0.4142519219396807,0.6020106445890006,0,0.9477641472101306,0.3612979817965968,0.6777997625643055,0.2325088339222615,0.10600706713780919,0.21201413427561838,0.18021201413427562,0.2,0.2756183745583039,0.6897526501766784,0.5561837455830388
472347,-0.2005664648959635,0.611343186974428,0.7569156211731112,-0.11450477423762251,0.4142519219396807,0.6020106445890006,0,0.9477641472101306,0.3612979817965968,0.6777997625643055,0.23109540636042403,0.10459363957597173,0.1950530035335689,0.17950530035335688,0.19434628975265017,0.26148409893992935,0.7477031802120141,0.5547703180212014
479308,-0.20038650009108583,0.6004270488565371,0.7549132601664786,-0.1715767443667506,0.5149812734082397,0.7084565345949142,0.09885669229252908,0.900831024930748,0.27661258409180844,0.5914523149980214,0.23109540636042403,0.10459363957597173,0.1950530035335689,0.17950530035335688,0.19434628975265017,0.26148409893992935,0.7477031802120141,0.5547703180212014
487359,-0.20038650009108583,0.6004270488565371,0.7549132601664786,-0.1715767443667506,0.5149812734082397,0.7084565345949142,0.09885669229252908,0.900831024930748,0.27661258409180844,0.5914523149980214,0.20706713780918728,0.09752650176678446,0.16537102473498233,0.15335689045936396,0.1392226148409894,0.2254416961130742,0.7045936395759718,0.5102473498233215
494322,-0.19470580235005436,0.6000478817878948,0.7475726229415254,-0.20776757090896084,0.6333530455351862,0.7331953479203627,0.1489256849990144,0.7330431341511674,0.3713494261970716,0.6402057776018995,0.20706713780918728,0.09752650176678446,0.16537102473498233,0.15335689045936396,0.1392226148409894,0.2254416961130742,0.7045936395759718,0.5102473498233215
509643,-0.19470580235005436,0.6000478817878948,0.7475726229415254,-0.20776757090896084,0.6333530455351862,0.7331953479203627,0.1489256849990144,0.7330431341511674,0.3713494261970716,0.6402057776018995,0.13851590106007067,0.07420494699646643,0.392226148409894,0.26855123674911663,0.3300353356890459,0.2431095406360424,0.6409893992932862,0.44876325088339225
518493,-0.17676369000429437,0.6163535019555817,0.7326903780426621,-0.2280959632410387,0.6760299625468165,0.7221565148827124,0.20007884880741178,0.5818757419865453,0.40957657301147604,0.7590027700831025,0.13851590106007067,0.07420494699646643,0.392226148409894,0.26855123674911663,0.3300353356890459,0.2431095406360424,0.6409893992932862,0.44876325088339225
532411,-0.17676369000429437,0.6163535019555817,0.7326903780426621,-0.2280959632410387,0.6760299625468165,0.7221565148827124,0.20007884880741178,0.5818757419865453,0.40957657301147604,0.7590027700831025,0.12296819787985866,0.06713780918727916,0.6395759717314488,0.5067137809187279,0.4508833922261484,0.30247349823321557,0.5604240282685512,0.3646643109540636
539387,-0.15533792596078322,0.6430807025236982,0.716812810406066,-0.220219739436741,0.6537551744529864,0.6557263946382811,0.24472698600433668,0.4041155520379897,0.5362880886426593,0.7884447962010289,0.12296819787985866,0.06713780918727916,0.6395759717314488,0.5067137809187279,0.4508833922261484,0.30247349823321557,0.5604240282685512,0.3646643109540636
547346,-0.15533792596078322,0.6430807025236982,0.716812810406066,-0.220219739436741,0.6537551744529864,0.6557263946382811,0.24472698600433668,0.4041155520379897,0.5362880886426593,0.7884447962010289,0.10530035335689046,0.06501766784452297,0.6537102473498233,0.5731448763250884,0.4530035335689046,0.2968197879858657,0.465017667844523,0.21201413427561838
554315,-0.15991934159676016,0.6725768034559925,0.6921699746974276,-0.20728476490938838,0.6804652079637296,0.723043563966095,0.333826138379657,0.5105658884052235,0.7090621290067274,0.7968341907400079,0.10530035335689046,0.06501766784452297,0.6537102473498233,0.5731448763250884,0.4530035335689046,0.2968197879858657,0.465017667844523,0.21201413427561838
569852,-0.15991934159676016,0.6725768034559925,0.6921699746974276,-0.20728476490938838,0.6804652079637296,0.723043563966095,0.333826138379657,0.5105658884052235,0.7090621290067274,0.7968341907400079,0.0989399293286219,0.0657243816254417,0.662190812720848,0.5851590106007067,0.4657243816254417,0.3363957597173145,0.3187279151943463,0.18374558303886926
576814,-0.1736470420309849,0.6937947018510389,0.6770098383858294,-0.1736470420309849,0.524935935343978,0.812635521387739,0.2422629607727183,0.46798575385833,0.815591610605461,0.6802532647407994,0.0989399293286219,0.0657243816254417,0.662190812720848,0.5851590106007067,0.4657243816254417,0.3363957597173145,0.3187279151943463,0.18374558303886926
592142,-0.1736470420309849,0.6937947018510389,0.6770098383858294,-0.1736470420309849,0.524935935343978,0.812635521387739,0.2422629607727183,0.46798575385833,0.815591610605461,0.6802532647407994,0.096113074204947,0.0657243816254417,0.6685512367491167,0.6190812720848057,0.46431095406360423,0.3399293286219081,0.25865724381625443,0.14982332155477032
600849,-0.1709637385957238,0.6978323539324921,0.6834276976281041,-0.1293367233432127,0.4720086733688153,0.7957815888034694,0.2136802680859452,0.325207756232687,0.7458646616541353,0.49125445191927186,0.096113074204947,0.0657243816254417,0.6685512367491167,0.6190812720848057,0.46431095406360423,0.3399293286219081,0.25865724381625443,0.14982332155477032
607457,-0.1709637385957238,0.6978323539324921,0.6834276976281041,-0.1293367233432127,0.4720086733688153,0.7957815888034694,0.2136802680859452,0.325207756232687,0.7458646616541353,0.49125445191927186,0.09045936395759717,0.0685512367491166,0.5554770318021202,0.5759717314487632,0.35053003533568905,0.32296819787985864,0.2332155477031802,0.13498233215547703
617322,-0.16077500931250552,0.6830801553592442,0.7087772999760114,-0.0720252509448582,0.5105460279913266,0.7170313424009462,0.14439187857283659,0.2186782746339533,0.7322516818361694,0.2927582113177681,0.09045936395759717,0.0685512367491166,0.5554770318021202,0.5759717314487632,0.35053003533568905,0.32296819787985864,0.2332155477031802,0.13498233215547703
629857,-0.16077500931250552,0.6830801553592442,0.7087772999760114,-0.0720252509448582,0.5105460279913266,0.7170313424009462,0.14439187857283659,0.2186782746339533,0.7322516818361694,0.2927582113177681,0.08268551236749117,0.06784452296819787,0.21908127208480566,0.3858657243816254,0.1667844522968198,0.2826855123674912,0.24028268551236748,0.11590106007067137
636857,-0.15876230567691768,0.648172596687116,0.7444920578013706,-0.01995973623850522,0.467277744924108,0.6173861620342992,0.09166173861620343,0.2924416303917689,0.7345468935496636,0.133597150771666,0.08268551236749117,0.06784452296819787,0.21908127208480566,0.3858657243816254,0.1667844522968198,0.2826855123674912,0.24028268551236748,0.11590106007067137
652424,-0.15876230567691768,0.648172596687116,0.7444920578013706,-0.01995973623850522,0.467277744924108,0.6173861620342992,0.09166173861620343,0.2924416303917689,0.7345468935496636,0.133597150771666,0.0685512367491166,0.06784452296819787,0.3166077738515901,0.2657243816254417,0.15830388692579506,0.3696113074204947,0.4021201413427562,0.17385159010600706
659362,-0.15674413629922831,0.5924903937136329,0.790129612302769,0.00903354056553185,0.478809383008082,0.49536763256455746,0.06997831657796176,0.4410763751483973,0.615195884447962,0,0.0685512367491166,0.06784452296819787,0.3166077738515901,0.2657243816254417,0.15830388692579506,0.3696113074204947,0.4021201413427562,0.17385159010600706
666892,-0.15674413629922831,0.5924903937136329,0.790129612302769,0.00903354056553185,0.478809383008082,0.49536763256455746,0.06997831657796176,0.4410763751483973,0.615195884447962,0,0.0784452296819788,0.07561837455830389,0.4501766784452297,0.24522968197879857,0.192226148409894,0.35830388692579507,0.4812720848056537,0.22120141342756183
675842,-0.15582866793379085,0.5726535693516748,0.8045959658062009,0.02026444095339544,0.9936920954070569,0.5174452986398581,0.05667258032722255,0.5055005935892363,0.5778393351800554,0.36161456272259596,0.0784452296819788,0.07561837455830389,0.4501766784452297,0.24522968197879857,0.192226148409894,0.35830388692579507,0.4812720848056537,0.22120141342756183
689926,-0.15582866793379085,0.5726535693516748,0.8045959658062009,0.02026444095339544,0.9936920954070569,0.5174452986398581,0.05667258032722255,0.5055005935892363,0.5778393351800554,0.36161456272259596,0.15618374558303888,0.10600706713780919,0.4628975265017668,0.17667844522968199,0.2763250883392226,0.3908127208480565,0.6042402826855123,0.35901060070671376
696881,-0.1712696075897581,0.5960255588431889,0.7842634311905923,0.01873833554171623,0.5973782771535581,0.5674157303370787,0.14320914646165978,0.5840126632370399,0.6380688563514049,0.7747526711515631,0.15618374558303888,0.10600706713780919,0.4628975265017668,0.17667844522968199,0.2763250883392226,0.3908127208480565,0.6042402826855123,0.35901060070671376
712429,-0.1712696075897581,0.5960255588431889,0.7842634311905923,0.01873833554171623,0.5973782771535581,0.5674157303370787,0.14320914646165978,0.5840126632370399,0.6380688563514049,0.7747526711515631,0.18657243816254418,0.1265017667844523,0.4614840989399293,0.1717314487632509,0.2876325088339223,0.4070671378091873,0.7385159010600707,0.44381625441696115
719376,-0.18201331755623953,0.6121433808757634,0.7694976171802521,-0.005005061046147432,0.3691109796964321,0.41050660358762076,0.10033510743150009,0.7096952908587257,0.5246537396121884,0.7366046695686584,0.18657243816254418,0.1265017667844523,0.4614840989399293,0.1717314487632509,0.2876325088339223,0.4070671378091873,0.7385159010600707,0.44381625441696115
726679,-0.18201331755623953,0.6121433808757634,0.7694976171802521,-0.005005061046147432,0.3691109796964321,0.41050660358762076,0.10033510743150009,0.7096952908587257,0.5246537396121884,0.7366046695686584,0.23604240282685512,0.18445229681978798,0.4628975265017668,0.1773851590106007,0.2826855123674912,0.42614840989399294,0.8402826855123675,0.537809187279152
735813,-0.18109831591714085,0.617394494607981,0.7637014252629815,-0.052797453073248,0.38083973979893554,0.5984624482554701,0.1234969446087128,0.8055401662049861,0.34531064503363673,0.6669568658488326,0.23604240282685512,0.18445229681978798,0.4628975265017668,0.1773851590106007,0.2826855123674912,0.42614840989399294,0.8402826855123675,0.537809187279152
749909,-0.18109831591714085,0.617394494607981,0.7637014252629815,-0.052797453073248,0.38083973979893554,0.5984624482554701,0.1234969446087128,0.8055401662049861,0.34531064503363673,0.6669568658488326,0.2734982332155477,0.207773851590106,0.3823321554770318,0.17597173144876324,0.280565371024735,0.3901060070671378,0.8593639575971731,0.5893992932862191
756890,-0.186280882558332,0.6043142261500803,0.7687443367700496,-0.09558186831138529,0.8080031539522965,0.5046323674354425,0.14025231618371772,0.8261179263949348,0.37522754254056195,0.5089829837752275,0.2734982332155477,0.207773851590106,0.3823321554770318,0.17597173144876324,0.280565371024735,0.3901060070671378,0.8593639575971731,0.5893992932862191
772397,-0.186280882558332,0.6043142261500803,0.7687443367700496,-0.09558186831138529,0.8080031539522965,0.5046323674354425,0.14025231618371772,0.8261179263949348,0.37522754254056195,0.5089829837752275,0.2734982332155477,0.20989399293286218,0.25865724381625443,0.1674911660777385,0.23745583038869258,0.407773851590106,1,0.6374558303886926
779355,-0.20283566947016549,0.613573322152905,0.7511573122178322,-0.13471511360838254,0.5511531638083974,0.5216834220382417,0.1365069978316578,0.8390977443609022,0.4857142857142857,0.7272655322516819,0.2734982332155477,0.20989399293286218,0.25865724381625443,0.1674911660777385,0.23745583038869258,0.407773851590106,1,0.6374558303886926
795599,-0.20283566947016549,0.613573322152905,0.7511573122178322,-0.13471511360838254,0.5511531638083974,0.5216834220382417,0.1365069978316578,0.8390977443609022,0.4857142857142857,0.7272655322516819,0.2381625441696113,0.20424028268551236,0.607773851590106,0.3512367491166078,0.12367491166077739,0.3872791519434629,0.934982332155477,0.5858657243816254
797364,-0.20667341710020568,0.6186774234281408,0.7303152497353694,-0.20288908400504538,0.7339838359944806,0.9043958210132071,0.20411985018726592,0.9522754254056193,0.30273051048674315,0.7677087455480808,0.2381625441696113,0.20424028268551236,0.607773851590106,0.3512367491166078,0.12367491166077739,0.3872791519434629,0.934982332155477,0.5858657243816254
809871,-0.20667341710020568,0.6186774234281408,0.7303152497353694,-0.20288908400504538,0.7339838359944806,0.9043958210132071,0.20411985018726592,0.9522754254056193,0.30273051048674315,0.7677087455480808,0.2176678445229682,0.19151943462897528,0.7590106007067138,0.6381625441696113,0.24522968197879857,0.39293286219081275,0.8593639575971731,0.5462897526501767
816851,-0.1814052018993687,0.6462712912888681,0.7170754750719326,-0.1876921251145891,0.4562389118864577,0.6910112359550562,0.2515276956436034,0.3445191927186387,0.5344677483181638,0.777206173328057,0.2176678445229682,0.19151943462897528,0.7590106007067138,0.6381625441696113,0.24522968197879857,0.39293286219081275,0.8593639575971731,0.5462897526501767
832387,-0.1814052018993687,0.6462712912888681,0.7170754750719326,-0.1876921251145891,0.4562389118864577,0.6910112359550562,0.2515276956436034,0.3445191927186387,0.5344677483181638,0.777206173328057,0.16395759717314487,0.14063604240282684,0.896113074204947,0.7491166077738516,0.26713780918727914,0.3674911660777385,0.7604240282685513,0.46219081272084805
839329,-0.1699260549081143,0.6839157490105677,0.6889817915958312,-0.1693767249892303,0.6442933175635719,0.6309875813128326,0.4049871870687956,0.38939453897902654,0.6646616541353384,0.8698060941828255,0.16395759717314487,0.14063604240282684,0.896113074204947,0.7491166077738516,0.26713780918727914,0.3674911660777385,0.7604240282685513,0.46219081272084805
855556,-0.1699260549081143,0.6839157490105677,0.6889817915958312,-0.1693767249892303,0.6442933175635719,0.6309875813128326,0.4049871870687956,0.38939453897902654,0.6646616541353384,0.8698060941828255,0.08833922261484099,0.10318021201413427,0.9187279151943463,0.7957597173144876,0.272791519434629,0.32438162544169613,0.6551236749116608,0.37385159010600705
857288,-0.1774924659760241,0.7081998221182283,0.66846543582167,-0.14178645064040715,0.48767987384190814,0.7268874433274197,0.30011827321111767,0.4548476454293629,0.7668381480015829,0.7368421052631579,0.08833922261484099,0.10318021201413427,0.9187279151943463,0.7957597173144876,0.272791519434629,0.32438162544169613,0.6551236749116608,0.37385159010600705
869925,-0.1774924659760241,0.7081998221182283,0.66846543582167,-0.14178645064040715,0.48767987384190814,0.7268874433274197,0.30011827321111767,0.4548476454293629,0.7668381480015829,0.7368421052631579,0.07915194346289753,0.09328621908127209,0.9187279151943463,0.8084805653710248,0.28197879858657243,0.2607773851590106,0.3017667844522968,0.2530035335689046
876842,-0.18292493542664903,0.717783530402867,0.6630342254053014,-0.10821685369084041,0.45190222747880937,0.7671003351074315,0.23211117681845062,0.42398100514444004,0.7574990106846062,0.5806885635140483,0.07915194346289753,0.09328621908127209,0.9187279151943463,0.8084805653710248,0.28197879858657243,0.2607773851590106,0.3017667844522968,0.2530035335689046
892370,-0.18292493542664903,0.717783530402867,0.6630342254053014,-0.10821685369084041,0.45190222747880937,0.7671003351074315,0.23211117681845062,0.42398100514444004,0.7574990106846062,0.5806885635140483,0.07279151943462897,0.09257950530035336,0.7257950530035335,0.7484098939929329,0.2954063604240283,0.2904593639575972,0.30812720848056535,0.2127208480565371
899345,-0.18561750121883172,0.7071288232884464,0.67990573695382,-0.05694874338611312,0.5262172284644194,0.7298442736053617,0.18608318549181943,0.3294815987336763,0.786782746339533,0.3473684210526316,0.07279151943462897,0.09257950530035336,0.7257950530035335,0.7484098939929329,0.2954063604240283,0.2904593639575972,0.30812720848056535,0.2127208480565371
915524,-0.18561750121883172,0.7071288232884464,0.67990573695382,-0.05694874338611312,0.5262172284644194,0.7298442736053617,0.18608318549181943,0.3294815987336763,0.786782746339533,0.3473684210526316,0.06219081272084806,0.10035335689045936,0.5710247349823322,0.5265017667844523,0.18939929328621907,0.3067137809187279,0.35406360424028266,0.16325088339222615
917263,-0.18744093886883736,0.6778635841997095,0.7108839514833438,-0.003295933148458879,0.4997043169722058,0.6757342795190223,0.062290557855312435,0.32774040364068063,0.7770478828650573,0.17593984962406015,0.06219081272084806,0.10035335689045936,0.5710247349823322,0.5265017667844523,0.18939929328621907,0.3067137809187279,0.35406360424028266,0.16325088339222615
929837,-0.18744093886883736,0.6778635841997095,0.7108839514833438,-0.003295933148458879,0.4997043169722058,0.6757342795190223,0.062290557855312435,0.32774040364068063,0.7770478828650573,0.17593984962406015,0.06713780918727916,0.09681978798586573,0.4579505300353357,0.3498233215547703,0.15830388692579506,0.28692579505300353,0.415547703180212,0.17314487632508835
936814,-0.19031438413237586,0.6266702315224834,0.7554589905087928,0.018616384592807775,0.5191208357973586,0.5088704908338262,0.007096392667060911,0.5195092995647013,0.6110011871784725,0.03545706371191136,0.06713780918727916,0.09681978798586573,0.4579505300353357,0.3498233215547703,0.15830388692579506,0.28692579505300353,0.415547703180212,0.17314487632508835
952339,-0.19031438413237586,0.6266702315224834,0.7554589905087928,0.018616384592807775,0.5191208357973586,0.5088704908338262,0.007096392667060911,0.5195092995647013,0.6110011871784725,0.03545706371191136,0.07703180212014134,0.10035335689045936,0.519434628975265,0.26360424028268553,0.1618374558303887,0.29823321554770316,0.4975265017667845,0.2049469964664311
959314,-0.18543284532576312,0.6066547234011717,0.7724944339838242,0.028931918592630584,0.8380642617780406,0.5039424403705894,0.011630199093238714,0.5011476058567471,0.5492679066086268,0.3477641472101306,0.07703180212014134,0.10035335689045936,0.519434628975265,0.26360424028268553,0.1618374558303887,0.29823321554770316,0.4975265017667845,0.2049469964664311
975543,-0.18543284532576312,0.6066547234011717,0.7724944339838242,0.028931918592630584,0.8380642617780406,0.5039424403705894,0.011630199093238714,0.5011476058567471,0.5492679066086268,0.3477641472101306,0.08197879858657244,0.103886925795053,0.6268551236749117,0.2275618374558304,0.1978798586572438,0.30318021201413425,0.6084805653710247,0.20424028268551236
977283,-0.18939822975587298,0.6247150762331163,0.7570435848089244,0.02728359932351763,0.6872659176029963,0.6705105460279913,0.15247388133254486,0.5495053423031262,0.5821923229125445,0.7229125445191927,0.08197879858657244,0.103886925795053,0.6268551236749117,0.2275618374558304,0.1978798586572438,0.30318021201413425,0.6084805653710247,0.20424028268551236
998061,-0.18939822975587298,0.6247150762331163,0.7570435848089244,0.02728359932351763,0.6872659176029963,0.6705105460279913,0.15247388133254486,0.5495053423031262,0.5821923229125445,0.7229125445191927,0.096113074204947,0.12508833922261484,0.6770318021201414,0.2021201413427562,0.17526501766784452,0.2579505300353357,0.6289752650176679,0.2756183745583039
999757,-0.19586670263757833,0.6355749375397641,0.7466616931646917,0.013305996003425389,0.4018332347723241,0.36053617189040016,0.13778829095209935,0.6387811634349031,0.5342303126236644,0.6770874554808073,0.096113074204947,0.12508833922261484,0.6770318021201414,0.2021201413427562,0.17526501766784452,0.2579505300353357,0.6289752650176679,0.2756183745583039
1012342,-0.19586670263757833,0.6355749375397641,0.7466616931646917,0.013305996003425389,0.4018332347723241,0.36053617189040016,0.13778829095209935,0.6387811634349031,0.5342303126236644,0.6770874554808073,0.13356890459363957,0.2480565371024735,0.6720848056537102,0.1978798586572438,0.1696113074204947,0.2,0.657243816254417,0.3399293286219081
1019324,-0.19721248076493564,0.6387584683395393,0.7426444609925632,-0.03967443902730058,0.39207569485511534,0.5820027597082594,0.1693278139168145,0.8355362089434112,0.32156707558369607,0.6591214879303522,0.13356890459363957,0.2480565371024735,0.6720848056537102,0.1978798586572438,0.1696113074204947,0.2,0.657243816254417,0.3399293286219081
1035570,-0.19721248076493564,0.6387584683395393,0.7426444609925632,-0.03967443902730058,0.39207569485511534,0.5820027597082594,0.1693278139168145,0.8355362089434112,0.32156707558369607,0.6591214879303522,0.16042402826855123,0.28833922261484096,0.5957597173144876,0.21060070671378092,0.17314487632508835,0.20706713780918728,0.6876325088339222,0.42968197879858655
1037308,-0.20661134569844755,0.602255287446553,0.7661405055264147,-0.08734441231742347,1,0.6920954070569683,0.23871476443918785,0.8965571824297586,0.3350217649386624,0.30945785516422636,0.16042402826855123,0.28833922261484096,0.5957597173144876,0.21060070671378092,0.17314487632508835,0.20706713780918728,0.6876325088339222,0.42968197879858655
1058058,-0.20661134569844755,0.602255287446553,0.7661405055264147,-0.08734441231742347,1,0.6920954070569683,0.23871476443918785,0.8965571824297586,0.3350217649386624,0.30945785516422636,0.15830388692579506,0.2939929328621908,0.6070671378091873,0.16325088339222615,0.16466431095406361,0.19646643109540637,0.6565371024734983,0.42968197879858655
1059782,-0.24213704860241053,0.599513509294902,0.7522301454439393,-0.12689763651232958,0.6744529863985808,0.5478020894933964,0.15247388133254486,0.9385041551246538,0.5943015433320142,0.6326078353779184,0.15830388692579506,0.2939929328621908,0.6070671378091873,0.16325088339222615,0.16466431095406361,0.19646643109540637,0.6565371024734983,0.42968197879858655
1072445,-0.24213704860241053,0.599513509294902,0.7522301454439393,-0.12689763651232958,0.6744529863985808,0.5478020894933964,0.15247388133254486,0.9385041551246538,0.5943015433320142,0.6326078353779184,0.15901060070671377,0.2954063604240283,0.6452296819787986,0.19151943462897528,0.096113074204947,0.20848056537102475,0.6063604240282685,0.4558303886925795
1083764,-0.24005285015258762,0.6069375901137379,0.7376757556430648,-0.17273062952754206,0.3600433668440765,0.42874039030159666,0.046619357382219596,0.79200633161852,0.37158686189157103,0.7367629600316581,0.15901060070671377,0.2954063604240283,0.6452296819787986,0.19151943462897528,0.096113074204947,0.20848056537102475,0.6063604240282685,0.4558303886925795
1095581,-0.24005285015258762,0.6069375901137379,0.7376757556430648,-0.17273062952754206,0.3600433668440765,0.42874039030159666,0.046619357382219596,0.79200633161852,0.37158686189157103,0.7367629600316581,0.15265017667844524,0.28692579505300353,0.7745583038869258,0.25865724381625443,0.0911660777385159,0.20141342756183744,0.5823321554770318,0.4219081272084806
1097283,-0.22424570822782275,0.6193917928949225,0.7248617394974478,-0.20160140834961857,0.6140350877192983,0.9403705893948354,0.29381036861817467,0.6294420261179264,0.37617728531855954,0.7432528690146418,0.15265017667844524,0.28692579505300353,0.7745583038869258,0.25865724381625443,0.0911660777385159,0.20141342756183744,0.5823321554770318,0.4219081272084806
1118095,-0.22424570822782275,0.6193917928949225,0.7248617394974478,-0.20160140834961857,0.6140350877192983,0.9403705893948354,0.29381036861817467,0.6294420261179264,0.37617728531855954,0.7432528690146418,0.12438162544169612,0.19151943462897528,0.7795053003533569,0.3498233215547703,0.09257950530035336,0.1971731448763251,0.488339222614841,0.37385159010600705
1119782,-0.20093698552586925,0.6512140639658259,0.7090780561524979,-0.18097757049945393,0.4490439582101321,0.7080622905578553,0.2640449438202247,0.31943015433320143,0.5837752275425405,0.7954887218045112,0.12438162544169612,0.19151943462897528,0.7795053003533569,0.3498233215547703,0.09257950530035336,0.1971731448763251,0.488339222614841,0.37385159010600705
