Timestamp, Orientation x, Orientation y, Orientation z, Orientation w, Acceleration x, Acceleration y, Acceleration z, Rotation x, Rotation y, Rotation z, EMG 0, EMG 1, EMG 2, EMG 3, EMG 4, EMG 5, EMG 6, EMG 7
0,0.808026336110748,0.39272106409854607,0.1402662426637331,0.4161598096089349,0.5184013021068813,0.8214124242698255,0.15299755854959762,0.6137155803415825,0.6086615545486233,0.5982049494597421,0,0,0,0,0,0,0,0
785,0.8083859752283123,0.39320616523865815,0.14118066752515,0.41469150677296546,0.5193055429966543,0.8210507279139163,0.15363052717243875,0.6173753921226909,0.60953293830603,0.5970721505751133,0,0,0,0,0,0,0,0
6784,0.8086956117869211,0.39381870988370554,0.14234117040433994,0.41310679300882197,0.517406637128131,0.820056062935166,0.15335925490550684,0.618943882886023,0.610317183687696,0.5964621819449285,0,0,0,0,0,0,0,0
29299,0.8088710705266642,0.3944863966807901,0.1437436893367261,0.4116379791451723,0.5187629984627905,0.8178858847997107,0.15326883081652953,0.6201638201463925,0.6128441965841757,0.5963750435691879,0,0,0,0,0,0,0,0
44272,0.8088614771348436,0.3952751981531276,0.14581724033165872,0.4101682105603795,0.5185821502848359,0.8152635862193688,0.14938059499050546,0.6238236319275009,0.6162425932380621,0.5953293830602998,0,0,0,0,0,0,0,0
68114,0.8088614771348436,0.3952751981531276,0.14581724033165872,0.4101682105603795,0.5185821502848359,0.8152635862193688,0.14938059499050546,0.6238236319275009,0.6162425932380621,0.5953293830602998,0.04481998530492285,0.03820720058780309,0.0213078618662748,0.034533431300514325,0.02645113886847906,0.029390154298310066,0.024246877296105803,0.02204261572373255
69825,0.8086998721037795,0.3963844040638496,0.1484457762062338,0.40847003880432425,0.518310878017904,0.8152635862193688,0.14413599782982187,0.6288776577204601,0.618682467758801,0.5928023701638201,0.04481998530492285,0.03820720058780309,0.0213078618662748,0.034533431300514325,0.02645113886847906,0.029390154298310066,0.024246877296105803,0.02204261572373255
82485,0.8086998721037795,0.3963844040638496,0.1484457762062338,0.40847003880432425,0.518310878017904,0.8152635862193688,0.14413599782982187,0.6288776577204601,0.618682467758801,0.5928023701638201,0.06612784717119764,0.05143277002204261,0.02204261572373255,0.0440852314474651,0.02645113886847906,0.029390154298310066,0.024981631153563555,0.024246877296105803
89399,0.8088725637333167,0.3983935423700089,0.15131263850700966,0.40510769736628605,0.5148747626367665,0.8183380052445972,0.14296048467311692,0.6359358661554548,0.6116242593238062,0.581822934820495,0.06612784717119764,0.05143277002204261,0.02204261572373255,0.0440852314474651,0.02645113886847906,0.029390154298310066,0.024981631153563555,0.024246877296105803
104996,0.8088725637333167,0.3983935423700089,0.15131263850700966,0.40510769736628605,0.5148747626367665,0.8183380052445972,0.14296048467311692,0.6359358661554548,0.6116242593238062,0.581822934820495,0.07053637031594416,0.055841293166789124,0.025716385011021307,0.04922850844966936,0.025716385011021307,0.03306392358559882,0.03085966201322557,0.027920646583394562
111901,0.8105255268628965,0.40187514638642297,0.15283951496834797,0.39772455252945504,0.5021249660909667,0.8303644090785786,0.13862012840220636,0.6416869989543394,0.5833042872080865,0.5562913907284768,0.07053637031594416,0.055841293166789124,0.025716385011021307,0.04922850844966936,0.025716385011021307,0.03306392358559882,0.03085966201322557,0.027920646583394562
128084,0.8105255268628965,0.40187514638642297,0.15283951496834797,0.39772455252945504,0.5021249660909667,0.8303644090785786,0.13862012840220636,0.6416869989543394,0.5833042872080865,0.5562913907284768,0.07567964731814843,0.055106539309331376,0.025716385011021307,0.05216752387950037,0.027920646583394562,0.03820720058780309,0.03306392358559882,0.030124908155767818
129818,0.8141549932955585,0.4081762213350877,0.14991487955719685,0.3847978015995802,0.4754498598426621,0.8664436205805226,0.13355637941947734,0.645869640989892,0.5257058208434995,0.5323283373997909,0.07567964731814843,0.055106539309331376,0.025716385011021307,0.05216752387950037,0.027920646583394562,0.03820720058780309,0.03306392358559882,0.030124908155767818
142406,0.8141549932955585,0.4081762213350877,0.14991487955719685,0.3847978015995802,0.4754498598426621,0.8664436205805226,0.13355637941947734,0.645869640989892,0.5257058208434995,0.5323283373997909,0.07641440117560618,0.05290227773695812,0.02645113886847906,0.05216752387950037,0.028655400440852314,0.045554739162380606,0.03379867744305658,0.03159441587068332
149350,0.819975447709879,0.41505382197611856,0.13867680640143257,0.3689706402714172,0.44416312505651506,0.8834433493082557,0.1219820960303825,0.6204252352736145,0.457215057511328,0.5345939351690484,0.07641440117560618,0.05290227773695812,0.02645113886847906,0.05216752387950037,0.028655400440852314,0.045554739162380606,0.03379867744305658,0.03159441587068332
164916,0.819975447709879,0.41505382197611856,0.13867680640143257,0.3689706402714172,0.44416312505651506,0.8834433493082557,0.1219820960303825,0.6204252352736145,0.457215057511328,0.5345939351690484,0.08155767817781043,0.05437178545187362,0.028655400440852314,0.05951506245407789,0.03526818515797208,0.04481998530492285,0.0426157237325496,0.034533431300514325
171853,0.8284645976782427,0.41700951383907414,0.11530020076727329,0.35560559537857817,0.45221086897549506,0.8714169454742744,0.11610453024685777,0.5411293133495991,0.3979609620076682,0.5771174625304984,0.08155767817781043,0.05437178545187362,0.028655400440852314,0.05951506245407789,0.03526818515797208,0.04481998530492285,0.0426157237325496,0.034533431300514325
188095,0.8284645976782427,0.41700951383907414,0.11530020076727329,0.35560559537857817,0.45221086897549506,0.8714169454742744,0.11610453024685777,0.5411293133495991,0.3979609620076682,0.5771174625304984,0.0668626010286554,0.04996326230712711,0.03159441587068332,0.05804555473916238,0.046289493019838354,0.07053637031594416,0.04996326230712711,0.03379867744305658
189824,0.8388852335322089,0.41132476635430415,0.08477965580444108,0.34625989012137814,0.4904602586128945,0.8118274708382313,0.11330138348856135,0.45982920878354827,0.383757406761938,0.6152840711049146,0.0668626010286554,0.04996326230712711,0.03159441587068332,0.05804555473916238,0.046289493019838354,0.07053637031594416,0.04996326230712711,0.03379867744305658
202393,0.8388852335322089,0.41132476635430415,0.08477965580444108,0.34625989012137814,0.4904602586128945,0.8118274708382313,0.11330138348856135,0.45982920878354827,0.383757406761938,0.6152840711049146,0.07494489346069066,0.05437178545187362,0.03085966201322557,0.06465833945628215,0.055841293166789124,0.08008817046289493,0.060249816311535635,0.03306392358559882
209426,0.849453226410326,0.3985111816650872,0.05584894030074357,0.34131942531339676,0.5074599873406276,0.7790035265394701,0.15299755854959762,0.4130359010108052,0.42837225514116417,0.634803067270826,0.07494489346069066,0.05437178545187362,0.03085966201322557,0.06465833945628215,0.055841293166789124,0.08008817046289493,0.060249816311535635,0.03306392358559882
225004,0.849453226410326,0.3985111816650872,0.05584894030074357,0.34131942531339676,0.5074599873406276,0.7790035265394701,0.15299755854959762,0.4130359010108052,0.42837225514116417,0.634803067270826,0.07347538574577517,0.05657604702424688,0.03306392358559882,0.06612784717119764,0.05657604702424688,0.08890521675238795,0.0639235855988244,0.03085966201322557
231880,0.8578204678701874,0.37946989104517964,0.03607313907152986,0.344739576101524,0.5188534225517678,0.7666154263495796,0.19097567592006512,0.3987452073893343,0.5352910421749738,0.6648658069013593,0.07347538574577517,0.05657604702424688,0.03306392358559882,0.06612784717119764,0.05657604702424688,0.08890521675238795,0.0639235855988244,0.03085966201322557
248074,0.8578204678701874,0.37946989104517964,0.03607313907152986,0.344739576101524,0.5188534225517678,0.7666154263495796,0.19097567592006512,0.3987452073893343,0.5352910421749738,0.6648658069013593,0.07127112417340191,0.05657604702424688,0.03232916972814107,0.07421013960323292,0.05951506245407789,0.0940484937545922,0.06612784717119764,0.03232916972814107
249805,0.8627019701631775,0.3581671968952544,0.033082246202663236,0.3554815532920862,0.5444434397323447,0.7731259607559454,0.21240618500768604,0.43839316835134196,0.679505054025793,0.673579644475427,0.07127112417340191,0.05657604702424688,0.03232916972814107,0.07421013960323292,0.05951506245407789,0.0940484937545922,0.06612784717119764,0.03232916972814107
262412,0.8627019701631775,0.3581671968952544,0.033082246202663236,0.3554815532920862,0.5444434397323447,0.7731259607559454,0.21240618500768604,0.43839316835134196,0.679505054025793,0.673579644475427,0.06318883174136664,0.05657604702424688,0.03159441587068332,0.07641440117560618,0.05731080088170463,0.12123438648052902,0.06245407788390889,0.03085966201322557
269354,0.864146792154121,0.3406415628628443,0.04449519787260589,0.3677415187687936,0.5215661452210869,0.804593543720047,0.21964011212587034,0.5143778319972115,0.7735273614499826,0.6535378180550715,0.06318883174136664,0.05657604702424688,0.03159441587068332,0.07641440117560618,0.05731080088170463,0.12123438648052902,0.06245407788390889,0.03085966201322557
284917,0.864146792154121,0.3406415628628443,0.04449519787260589,0.3677415187687936,0.5215661452210869,0.804593543720047,0.21964011212587034,0.5143778319972115,0.7735273614499826,0.6535378180550715,0.07788390889052167,0.10213078618662748,0.03232916972814107,0.0852314474650992,0.05143277002204261,0.21160911094783247,0.0653930933137399,0.029390154298310066
291849,0.8590140252491771,0.335108860841184,0.06415289849619024,0.3816822781129187,0.4759019802875486,0.807577538656298,0.23989510805678632,0.6390728476821192,0.8021087486929244,0.6663471592889508,0.07788390889052167,0.10213078618662748,0.03232916972814107,0.0852314474650992,0.05143277002204261,0.21160911094783247,0.0653930933137399,0.029390154298310066
308108,0.8590140252491771,0.335108860841184,0.06415289849619024,0.3816822781129187,0.4759019802875486,0.807577538656298,0.23989510805678632,0.6390728476821192,0.8021087486929244,0.6663471592889508,0.08449669360764143,0.13299044819985306,0.036737692872887584,0.0852314474650992,0.041146216017634095,0.2402645113886848,0.07494489346069066,0.029390154298310066
309840,0.8480784494217655,0.3425519114837302,0.0784353539302554,0.39657159103880885,0.43873767971787686,0.8237634505832354,0.1632154806040329,0.7267340536772394,0.7311781108400139,0.7115719762983618,0.08449669360764143,0.13299044819985306,0.036737692872887584,0.0852314474650992,0.041146216017634095,0.2402645113886848,0.07494489346069066,0.029390154298310066
321737,0.8480784494217655,0.3425519114837302,0.0784353539302554,0.39657159103880885,0.43873767971787686,0.8237634505832354,0.1632154806040329,0.7267340536772394,0.7311781108400139,0.7115719762983618,0.09698750918442321,0.16678912564290962,0.0683321087435709,0.09184423218221896,0.04188096987509184,0.24099926524614254,0.08449669360764143,0.03085966201322557
330870,0.8334362504489644,0.35848623838338717,0.08191529574502053,0.41250638498125836,0.5444434397323447,0.7847002441450402,0.1422370919612985,0.759410944579993,0.6363715580341582,0.765074939003137,0.09698750918442321,0.16678912564290962,0.0683321087435709,0.09184423218221896,0.04188096987509184,0.24099926524614254,0.08449669360764143,0.03085966201322557
344984,0.8334362504489644,0.35848623838338717,0.08191529574502053,0.41250638498125836,0.5444434397323447,0.7847002441450402,0.1422370919612985,0.759410944579993,0.6363715580341582,0.765074939003137,0.18736223365172666,0.17413666421748714,0.07494489346069066,0.09037472446730345,0.03967670830271859,0.2828802351212344,0.0867009551800147,0.030124908155767818
351879,0.8166893541131629,0.3791074423316035,0.08551433371543657,0.42659505948407295,0.5739216927389457,0.8043222714531151,0.11520028935708473,0.7982746601603347,0.6172011153712095,0.762635064482398,0.18736223365172666,0.17413666421748714,0.07494489346069066,0.09037472446730345,0.03967670830271859,0.2828802351212344,0.0867009551800147,0.030124908155767818
368067,0.8166893541131629,0.3791074423316035,0.08551433371543657,0.42659505948407295,0.5739216927389457,0.8043222714531151,0.11520028935708473,0.7982746601603347,0.6172011153712095,0.762635064482398,0.20867009551800147,0.17854518736223365,0.07935341660543718,0.0940484937545922,0.038941954445260836,0.32916972814107276,0.0896399706098457,0.029390154298310066
369798,0.8003366755533393,0.4063332252256391,0.0949758898078856,0.4305044671047668,0.5497784609820056,0.885613527443711,0.1353648611990234,0.8671139769954688,0.6024747298710352,0.6817706517950506,0.20867009551800147,0.17854518736223365,0.07935341660543718,0.0940484937545922,0.038941954445260836,0.32916972814107276,0.0896399706098457,0.029390154298310066
390609,0.8003366755533393,0.4063332252256391,0.0949758898078856,0.4305044671047668,0.5497784609820056,0.885613527443711,0.1353648611990234,0.8671139769954688,0.6024747298710352,0.6817706517950506,0.21381337252020574,0.1623806024981631,0.10506980161645849,0.10286554004408523,0.03526818515797208,0.6274797942689199,0.09257898603967671,0.03232916972814107
392342,0.7919181511045291,0.43593952791649043,0.11365435465982991,0.4121954119322403,0.5024866624468759,0.9941224342164753,0.15851342797721313,0.9054548623213663,0.5748518647612408,0.4839665388637156,0.21381337252020574,0.1623806024981631,0.10506980161645849,0.10286554004408523,0.03526818515797208,0.6274797942689199,0.09257898603967671,0.03232916972814107
404888,0.7919181511045291,0.43593952791649043,0.11365435465982991,0.4121954119322403,0.5024866624468759,0.9941224342164753,0.15851342797721313,0.9054548623213663,0.5748518647612408,0.4839665388637156,0.21528288023512124,0.14033798677443057,0.12049963262307127,0.10360029390154299,0.036737692872887584,0.8126377663482733,0.08229243203526819,0.03085966201322557
411855,0.7946087013257079,0.45260589340375823,0.12726679538055777,0.3841198768968106,0.35256352292250653,0.9607559453838502,0.15715706664255358,0.7766643429766469,0.5412164517253398,0.3913384454513768,0.21528288023512124,0.14033798677443057,0.12049963262307127,0.10360029390154299,0.036737692872887584,0.8126377663482733,0.08229243203526819,0.03085966201322557
428103,0.7946087013257079,0.45260589340375823,0.12726679538055777,0.3841198768968106,0.35256352292250653,0.9607559453838502,0.15715706664255358,0.7766643429766469,0.5412164517253398,0.3913384454513768,0.216017634092579,0.10139603232916973,0.1080088170462895,0.10433504775900074,0.04041146216017634,0.8324761204996326,0.07788390889052167,0.03379867744305658
429812,0.8027633701742418,0.4566204966752968,0.1318406994811711,0.36012042913838405,0.3975042951442264,0.8969165385658739,0.2510172710009947,0.6449111188567445,0.5320669222725688,0.42035552457302194,0.216017634092579,0.10139603232916973,0.1080088170462895,0.10433504775900074,0.04041146216017634,0.8324761204996326,0.07788390889052167,0.03379867744305658
450622,0.8027633701742418,0.4566204966752968,0.1318406994811711,0.36012042913838405,0.3975042951442264,0.8969165385658739,0.2510172710009947,0.6449111188567445,0.5320669222725688,0.42035552457302194,0.1462160176340926,0.09992652461425422,0.106539309331374,0.12637766348273327,0.06980161645848641,0.8317413666421749,0.08155767817781043,0.041146216017634095
452294,0.8102722726670959,0.46058866813905125,0.12592027860732344,0.33979553611583596,0.585043855683154,0.7897639931277692,0.1831087801790397,0.612757058208435,0.4789125130707564,0.48414081561519695,0.1462160176340926,0.09992652461425422,0.106539309331374,0.12637766348273327,0.06980161645848641,0.8317413666421749,0.08155767817781043,0.041146216017634095
464903,0.8102722726670959,0.46058866813905125,0.12592027860732344,0.33979553611583596,0.585043855683154,0.7897639931277692,0.1831087801790397,0.612757058208435,0.4789125130707564,0.48414081561519695,0.21160911094783247,0.16605437178545188,0.1337252020573108,0.19985304922850844,0.09257898603967671,0.8185157972079353,0.1337252020573108,0.046289493019838354
471857,0.8114520309674593,0.46029485222849487,0.08960520396120282,0.34877665901519955,0.5975223799620218,0.6725743738131839,0.03535581879012569,0.49651446497037294,0.4077204600906239,0.798710352039038,0.21160911094783247,0.16605437178545188,0.1337252020573108,0.19985304922850844,0.09257898603967671,0.8185157972079353,0.1337252020573108,0.046289493019838354
488110,0.8114520309674593,0.46029485222849487,0.08960520396120282,0.34877665901519955,0.5975223799620218,0.6725743738131839,0.03535581879012569,0.49651446497037294,0.4077204600906239,0.798710352039038,0.2843497428361499,0.22850844966936076,0.18442321822189567,0.2637766348273328,0.1080088170462895,0.6032329169728141,0.16017634092578986,0.0440852314474651
489831,0.8231862543074251,0.43460522991760836,0.038577318161225914,0.36331043939179847,0.5050185369382404,0.7943756216656117,0.08192422461343701,0.24756012547926107,0.3960439177413733,0.8418438480306727,0.2843497428361499,0.22850844966936076,0.18442321822189567,0.2637766348273328,0.1080088170462895,0.6032329169728141,0.16017634092578986,0.0440852314474651
510621,0.8231862543074251,0.43460522991760836,0.038577318161225914,0.36331043939179847,0.5050185369382404,0.7943756216656117,0.08192422461343701,0.24756012547926107,0.3960439177413733,0.8418438480306727,0.29977957384276266,0.24981631153563555,0.26818515797207937,0.2858192505510654,0.11021307861866275,0.29977957384276266,0.16458486407053638,0.0440852314474651
512312,0.8315196452651828,0.4060853116016488,0.011536167727748629,0.37886239728114146,0.4834976037616421,0.7882267836151551,0.15887512433312234,0.31021261763680724,0.5665737190658766,0.7736144998257233,0.29977957384276266,0.24981631153563555,0.26818515797207937,0.2858192505510654,0.11021307861866275,0.29977957384276266,0.16458486407053638,0.0440852314474651
524935,0.8315196452651828,0.4060853116016488,0.011536167727748629,0.37886239728114146,0.4834976037616421,0.7882267836151551,0.15887512433312234,0.31021261763680724,0.5665737190658766,0.7736144998257233,0.29977957384276266,0.25349008082292435,0.36590742101396034,0.28802351212343863,0.11168258633357825,0.24834680382072005,0.1704628949301984,0.0440852314474651
531859,0.839689191929361,0.3729985208897525,0.008972473011093702,0.39460570079401897,0.5025770865358532,0.7949181661994755,0.20444886517768335,0.3546531892645521,0.7439874520738934,0.6957127919135587,0.29977957384276266,0.25349008082292435,0.36590742101396034,0.28802351212343863,0.11168258633357825,0.24834680382072005,0.1704628949301984,0.0440852314474651
548122,0.839689191929361,0.3729985208897525,0.008972473011093702,0.39460570079401897,0.5025770865358532,0.7949181661994755,0.20444886517768335,0.3546531892645521,0.7439874520738934,0.6957127919135587,0.32770022042615726,0.27920646583394565,0.4357090374724467,0.2961058045554739,0.09698750918442321,0.35194709772226307,0.18442321822189567,0.03967670830271859
549834,0.8431275325667624,0.34529591339536486,0.03174012285055502,0.4109735522168979,0.5044759924043766,0.8396780902432408,0.2538204177592911,0.48509933774834435,0.899093760892297,0.6392471244336005,0.32770022042615726,0.27920646583394565,0.4357090374724467,0.2961058045554739,0.09698750918442321,0.35194709772226307,0.18442321822189567,0.03967670830271859
570581,0.8431275325667624,0.34529591339536486,0.03174012285055502,0.4109735522168979,0.5044759924043766,0.8396780902432408,0.2538204177592911,0.48509933774834435,0.899093760892297,0.6392471244336005,0.2931667891256429,0.26818515797207937,0.4452608376193975,0.2556943423952976,0.08008817046289493,0.5121234386480529,0.17266715650257164,0.038941954445260836
572316,0.8409454229903931,0.33974756655037586,0.06586195190583104,0.4159862856702859,0.3894565512252464,0.7780992856496971,0.11176417397594719,0.68943882886023,0.8731265249215755,0.5557685604740328,0.2931667891256429,0.26818515797207937,0.4452608376193975,0.2556943423952976,0.08008817046289493,0.5121234386480529,0.17266715650257164,0.038941954445260836
584924,0.8409454229903931,0.33974756655037586,0.06586195190583104,0.4159862856702859,0.3894565512252464,0.7780992856496971,0.11176417397594719,0.68943882886023,0.8731265249215755,0.5557685604740328,0.22997795738427626,0.2924320352681852,0.42689199118295373,0.19691403379867745,0.0653930933137399,0.5672299779573843,0.2828802351212344,0.04188096987509184
591902,0.8298844989222253,0.35018000664289545,0.08075442718991645,0.42678379056076776,0.4589022515598155,0.7458178858847997,0.14947101907948276,0.7542697804112931,0.7108748692924364,0.6847333565702335,0.22997795738427626,0.2924320352681852,0.42689199118295373,0.19691403379867745,0.0653930933137399,0.5672299779573843,0.2828802351212344,0.04188096987509184
608066,0.8298844989222253,0.35018000664289545,0.08075442718991645,0.42678379056076776,0.4589022515598155,0.7458178858847997,0.14947101907948276,0.7542697804112931,0.7108748692924364,0.6847333565702335,0.21381337252020574,0.2975753122703894,0.3798677443056576,0.16531961792799413,0.06318883174136664,0.5686994856722998,0.30639235855988245,0.04188096987509184
609806,0.8071668516022048,0.38356295337781726,0.0961348904471773,0.4383140624134477,0.6139795641558912,0.7289990053350213,0.06754679446604575,0.9406587661205995,0.6451725339839666,0.7429417915650053,0.21381337252020574,0.2975753122703894,0.3798677443056576,0.16531961792799413,0.06318883174136664,0.5686994856722998,0.30639235855988245,0.04188096987509184
630610,0.8071668516022048,0.38356295337781726,0.0961348904471773,0.4383140624134477,0.6139795641558912,0.7289990053350213,0.06754679446604575,0.9406587661205995,0.6451725339839666,0.7429417915650053,0.21895664952240998,0.3019838354151359,0.29022777369581193,0.1623806024981631,0.055841293166789124,0.5672299779573843,0.3071271124173402,0.038941954445260836
632338,0.785986112027048,0.41713357844162824,0.12018378928176265,0.4402059361605243,0.6078307261054345,0.8198752147572114,0.09349850800253187,0.9747298710352039,0.6700941094458,0.6485709306378529,0.21895664952240998,0.3019838354151359,0.29022777369581193,0.1623806024981631,0.055841293166789124,0.5672299779573843,0.3071271124173402,0.038941954445260836
644899,0.785986112027048,0.41713357844162824,0.12018378928176265,0.4402059361605243,0.6078307261054345,0.8198752147572114,0.09349850800253187,0.9747298710352039,0.6700941094458,0.6485709306378529,0.19544452608376195,0.2924320352681852,0.16825863335782512,0.14180749448934607,0.05731080088170463,0.4981631153563556,0.30124908155767816,0.036737692872887584
651914,0.7691456362753332,0.4447262206096403,0.1541831503239022,0.4322743747402515,0.542454109774844,0.9536124423546433,0.17822587937426532,0.9675845242244685,0.7167131404670617,0.5330254444057163,0.19544452608376195,0.2924320352681852,0.16825863335782512,0.14180749448934607,0.05731080088170463,0.4981631153563556,0.30124908155767816,0.036737692872887584
668084,0.7691456362753332,0.4447262206096403,0.1541831503239022,0.4322743747402515,0.542454109774844,0.9536124423546433,0.17822587937426532,0.9675845242244685,0.7167131404670617,0.5330254444057163,0.18956649522409993,0.27553269654665685,0.11829537105069801,0.15723732549595884,0.050698016164584865,0.5003673769287289,0.2946362968405584,0.036737692872887584
669815,0.7585899493559642,0.4696934068469701,0.19282150386349298,0.40834943363303833,0.45781716249208787,1,0.1956777285468849,0.9645346810735448,0.6898745207389334,0.3930812129661903,0.18956649522409993,0.27553269654665685,0.11829537105069801,0.15723732549595884,0.050698016164584865,0.5003673769287289,0.2946362968405584,0.036737692872887584
690623,0.7585899493559642,0.4696934068469701,0.19282150386349298,0.40834943363303833,0.45781716249208787,1,0.1956777285468849,0.9645346810735448,0.6898745207389334,0.3930812129661903,0.1763409257898604,0.19103600293901543,0.10139603232916973,0.14842027920646583,0.06098457016899339,0.5231447465099192,0.17487141807494488,0.03526818515797208
692340,0.7610155845108736,0.48292872190006675,0.2193077474452654,0.37354951693988986,0.4278867890406004,0.951442264219188,0.2671127588389547,0.8217148832345765,0.5933252004182642,0.3123039386545835,0.1763409257898604,0.19103600293901543,0.10139603232916973,0.14842027920646583,0.06098457016899339,0.5231447465099192,0.17487141807494488,0.03526818515797208
704920,0.7610155845108736,0.48292872190006675,0.2193077474452654,0.37354951693988986,0.4278867890406004,0.951442264219188,0.2671127588389547,0.8217148832345765,0.5933252004182642,0.3123039386545835,0.17560617193240263,0.15135929463629685,0.08596620132255695,0.16531961792799413,0.08155767817781043,0.5598824393828068,0.14768552534900808,0.04188096987509184
711861,0.7654766195275781,0.48592292225971206,0.22022483400490403,0.3597575309381664,0.47246586490641107,0.9085812460439461,0.25797992585224705,0.6382014639247124,0.5458347856395956,0.515074939003137,0.17560617193240263,0.15135929463629685,0.08596620132255695,0.16531961792799413,0.08155767817781043,0.5598824393828068,0.14768552534900808,0.04188096987509184
728090,0.7654766195275781,0.48592292225971206,0.22022483400490403,0.3597575309381664,0.47246586490641107,0.9085812460439461,0.25797992585224705,0.6382014639247124,0.5458347856395956,0.515074939003137,0.21748714180749448,0.13445995591476856,0.0881704628949302,0.18442321822189567,0.09110947832476121,0.5664952240999265,0.1550330639235856,0.045554739162380606
729818,0.7700398628770534,0.48316705410072563,0.17627418547787968,0.37751240899608235,0.533502124966091,0.723844832263315,0.04141423275160503,0.41791565005228304,0.41016033461136286,0.871645172533984,0.21748714180749448,0.13445995591476856,0.0881704628949302,0.18442321822189567,0.09110947832476121,0.5664952240999265,0.1550330639235856,0.045554739162380606
750560,0.7700398628770534,0.48316705410072563,0.17627418547787968,0.37751240899608235,0.533502124966091,0.723844832263315,0.04141423275160503,0.41791565005228304,0.41016033461136286,0.871645172533984,0.3071271124173402,0.09845701689933872,0.11829537105069801,0.2799412196914034,0.11829537105069801,0.56208670095518,0.1961792799412197,0.046289493019838354
752297,0.7905696335919081,0.44295582388638644,0.09869912735624733,0.411154806352308,0.5331404286101817,0.7648069445700335,0,0,0.35413035901010803,1,0.3071271124173402,0.09845701689933872,0.11829537105069801,0.2799412196914034,0.11829537105069801,0.56208670095518,0.1961792799412197,0.046289493019838354
764881,0.7905696335919081,0.44295582388638644,0.09869912735624733,0.411154806352308,0.5331404286101817,0.7648069445700335,0,0,0.35413035901010803,1,0.31373989713445993,0.07641440117560618,0.12049963262307127,0.27553269654665685,0.12417340191036003,0.4650991917707568,0.19250551065393093,0.0440852314474651
771853,0.8057247998303924,0.39694154343159405,0.05109027708015442,0.43661738584748455,0.6203092503843024,0.7195949000813817,0.12424269825481508,0.08818403624956431,0.5388637155803416,0.8542174973858487,0.31373989713445993,0.07641440117560618,0.12049963262307127,0.27553269654665685,0.12417340191036003,0.4650991917707568,0.19250551065393093,0.0440852314474651
788091,0.8057247998303924,0.39694154343159405,0.05109027708015442,0.43661738584748455,0.6203092503843024,0.7195949000813817,0.12424269825481508,0.08818403624956431,0.5388637155803416,0.8542174973858487,0.32255694342395297,0.0867009551800147,0.11976487876561352,0.2828802351212344,0.11682586333578251,0.5400440852314474,0.1888317413666422,0.0426157237325496
789876,0.8181127233893617,0.35555522000619505,0.051090080539945966,0.44906776885589306,0.636585586400217,0.7158875124333123,0.20074147752961388,0.29923318229348206,0.7892994074590449,0.6305332868595329,0.32255694342395297,0.0867009551800147,0.11976487876561352,0.2828802351212344,0.11682586333578251,0.5400440852314474,0.1888317413666422,0.0426157237325496
810585,0.8181127233893617,0.35555522000619505,0.051090080539945966,0.44906776885589306,0.636585586400217,0.7158875124333123,0.20074147752961388,0.29923318229348206,0.7892994074590449,0.6305332868595329,0.32255694342395297,0.09625275532696546,0.12343864805290228,0.28067597354886115,0.106539309331374,0.7560617193240264,0.25642909625275534,0.04335047759000735
812291,0.8239639248446469,0.3347372519333316,0.08746872392787458,0.4487578913592002,0.4506736594628809,0.9306447237544082,0.1755131567049462,0.588271174625305,0.919832694318578,0.47525270128964797,0.32255694342395297,0.09625275532696546,0.12343864805290228,0.28067597354886115,0.106539309331374,0.7560617193240264,0.25642909625275534,0.04335047759000735
824880,0.8239639248446469,0.3347372519333316,0.08746872392787458,0.4487578913592002,0.4506736594628809,0.9306447237544082,0.1755131567049462,0.588271174625305,0.919832694318578,0.47525270128964797,0.2975753122703894,0.10066127847171198,0.11682586333578251,0.2784717119764879,0.10213078618662748,0.8927259368111683,0.544452608376194,0.03967670830271859
831869,0.8246610834565078,0.33468665585433255,0.11133840238524577,0.44217948842035104,0.30255900171805766,0.7713174789763994,0.12225336829731441,0.698588358313001,0.7495643081212966,0.5007842453816661,0.2975753122703894,0.10066127847171198,0.11682586333578251,0.2784717119764879,0.10213078618662748,0.8927259368111683,0.544452608376194,0.03967670830271859
848112,0.8246610834565078,0.33468665585433255,0.11133840238524577,0.44217948842035104,0.30255900171805766,0.7713174789763994,0.12225336829731441,0.698588358313001,0.7495643081212966,0.5007842453816661,0.21087435709037472,0.12343864805290228,0.0852314474650992,0.1807494489346069,0.06612784717119764,1,0.6186627479794269,0.03820720058780309
849834,0.8165947660067978,0.34878326304102575,0.12348416890654447,0.4430292130122095,0.47707749344425354,0.7752961388914007,0.14865720227868703,0.7669048448936912,0.6500522830254444,0.6245207389334263,0.21087435709037472,0.12343864805290228,0.0852314474650992,0.1807494489346069,0.06612784717119764,1,0.6186627479794269,0.03820720058780309
870569,0.8165947660067978,0.34878326304102575,0.12348416890654447,0.4430292130122095,0.47707749344425354,0.7752961388914007,0.14865720227868703,0.7669048448936912,0.6500522830254444,0.6245207389334263,0.19030124908155768,0.1704628949301984,0.07861866274797942,0.1807494489346069,0.05951506245407789,0.9831006612784717,0.6664217487141807,0.03600293901542983
872311,0.799108833364955,0.3827079426518689,0.1373353861190917,0.4428303227973379,0.5405552039063206,0.7585676824305995,0.0864454290623022,0.9298536075287557,0.597420704078076,0.6659114674102474,0.19030124908155768,0.1704628949301984,0.07861866274797942,0.1807494489346069,0.05951506245407789,0.9831006612784717,0.6664217487141807,0.03600293901542983
884911,0.799108833364955,0.3827079426518689,0.1373353861190917,0.4428303227973379,0.5405552039063206,0.7585676824305995,0.0864454290623022,0.9298536075287557,0.597420704078076,0.6659114674102474,0.19397501836884642,0.29831006612784716,0.07714915503306392,0.17119764878765614,0.060249816311535635,0.8978692138133725,0.6649522409992652,0.03600293901542983
