Timestamp, Orientation x, Orientation y, Orientation z, Orientation w, Acceleration x, Acceleration y, Acceleration z, Rotation x, Rotation y, Rotation z, EMG 0, EMG 1, EMG 2, EMG 3, EMG 4, EMG 5, EMG 6, EMG 7
0,-0.28513310605407843,-0.8610751269942193,-0.37551883594836144,-0.19035320158019492,0.26773315180394824,0.6159972770592239,0.2257998638529612,0.5319353597537514,0.49552712581762215,0.5028376298576376,0,0,0,0,0,0,0,0
7496,-0.2830649265843781,-0.8620724639940364,-0.3769316486815694,-0.18608558886497817,0.2646017699115044,0.6161334240980259,0.22620830496936692,0.5164486340900346,0.49552712581762215,0.49884570988841864,0,0,0,0,0,0,0,0
14943,-0.28343394186776816,-0.8619589924630685,-0.37852224536259654,-0.1827917002355654,0.26296800544588156,0.6130020422055821,0.2307011572498298,0.5049538283955367,0.49605617545209696,0.4953828395536745,0,0,0,0,0,0,0,0
37537,-0.28410372021029706,-0.8615880168010234,-0.38035110297541813,-0.1796780563478227,0.2635125936010892,0.6061946902654868,0.23485364193328795,0.5025009619084263,0.4963928434013082,0.49350711812235476,0,0,0,0,0,0,0,0
52542,-0.28361669485348234,-0.8615307218747055,-0.38254991249012854,-0.17601690293898065,0.26078965282505107,0.6012253233492172,0.23655547991831177,0.507454790303963,0.49653712966525587,0.4933147364370912,0,0,0,0,0,0,0,0
68131,-0.28361669485348234,-0.8615307218747055,-0.38254991249012854,-0.17601690293898065,0.26078965282505107,0.6012253233492172,0.23655547991831177,0.507454790303963,0.49653712966525587,0.4933147364370912,0.0585325638911789,0.036273701566364384,0.051112943116240726,0.07749381698268755,0.06265457543281121,0.09315746084089035,0.03544929925803792,0.026380873866446827
75095,-0.2817256784918094,-0.8620219850559611,-0.38474841360753176,-0.17180627923623126,0.25949625595643294,0.6023825731790333,0.2360789652825051,0.5150538668718738,0.4964409388226241,0.4945171219699885,0.0585325638911789,0.036273701566364384,0.051112943116240726,0.07749381698268755,0.06265457543281121,0.09315746084089035,0.03544929925803792,0.026380873866446827
90584,-0.2817256784918094,-0.8620219850559611,-0.38474841360753176,-0.17180627923623126,0.25949625595643294,0.6023825731790333,0.2360789652825051,0.5150538668718738,0.4964409388226241,0.4945171219699885,0.057708161582852434,0.03544929925803792,0.05193734542456719,0.08573784006595218,0.06760098928276999,0.08491343775762572,0.03297609233305853,0.02720527617477329
97552,-0.2794706137665486,-0.862641986236383,-0.3868278554383894,-0.1676579550156604,0.2604492852280463,0.6059904697072839,0.2346494213750851,0.5176991150442478,0.4967776067718353,0.49547903039630625,0.057708161582852434,0.03544929925803792,0.05193734542456719,0.08573784006595218,0.06760098928276999,0.08491343775762572,0.03297609233305853,0.02720527617477329
113803,-0.2794706137665486,-0.862641986236383,-0.3868278554383894,-0.1676579550156604,0.2604492852280463,0.6059904697072839,0.2346494213750851,0.5176991150442478,0.4967776067718353,0.49547903039630625,0.048639736191261336,0.03792250618301731,0.05028854080791426,0.08573784006595218,0.07254740313272877,0.07502061005770816,0.030502885408079144,0.02720527617477329
115579,-0.2778857564014965,-0.8630144070979925,-0.38860061739695323,-0.16424128497176083,0.26065350578624913,0.6082368958475153,0.23430905377808034,0.514524817237399,0.4975471335128896,0.49620046171604465,0.048639736191261336,0.03792250618301731,0.05028854080791426,0.08573784006595218,0.07254740313272877,0.07502061005770816,0.030502885408079144,0.02720527617477329
128058,-0.2778857564014965,-0.8630144070979925,-0.38860061739695323,-0.16424128497176083,0.26065350578624913,0.6082368958475153,0.23430905377808034,0.514524817237399,0.4975471335128896,0.49620046171604465,0.03544929925803792,0.03462489694971146,0.048639736191261336,0.09315746084089035,0.07584501236603462,0.06347897774113767,0.023083264633140973,0.023907666941467436
135043,-0.2775173159427173,-0.86294641084541,-0.39006227538814736,-0.16173760440910506,0.26092579986385295,0.6091218515997278,0.23458134785568413,0.5077914582531743,0.49865332820315506,0.4968257021931512,0.03544929925803792,0.03462489694971146,0.048639736191261336,0.09315746084089035,0.07584501236603462,0.06347897774113767,0.023083264633140973,0.023907666941467436
150577,-0.2775173159427173,-0.86294641084541,-0.39006227538814736,-0.16173760440910506,0.26092579986385295,0.6091218515997278,0.23458134785568413,0.5077914582531743,0.49865332820315506,0.4968257021931512,0.033800494641384994,0.03544929925803792,0.05028854080791426,0.09398186314921682,0.07914262159934048,0.06183017312448475,0.023083264633140973,0.02225886232481451
157540,-0.2781778600816076,-0.8625466644434753,-0.3912066878286759,-0.15996142414960365,0.2604492852280463,0.6078965282505105,0.23533015656909462,0.5018757214313198,0.4993747595228934,0.4975471335128896,0.033800494641384994,0.03544929925803792,0.05028854080791426,0.09398186314921682,0.07914262159934048,0.06183017312448475,0.023083264633140973,0.02225886232481451
173763,-0.2781778600816076,-0.8625466644434753,-0.3912066878286759,-0.15996142414960365,0.2604492852280463,0.6078965282505105,0.23533015656909462,0.5018757214313198,0.4993747595228934,0.4975471335128896,0.031327287716405604,0.03792250618301731,0.04204451772464963,0.09150865622423743,0.08161582852431987,0.07831821929101401,0.02720527617477329,0.02225886232481451
175515,-0.2791635353319657,-0.8620257483665684,-0.3921960817759536,-0.15862396771486204,0.26024506466984343,0.6044247787610619,0.23628318584070795,0.49874951904578685,0.5,0.49822046941131204,0.031327287716405604,0.03792250618301731,0.04204451772464963,0.09150865622423743,0.08161582852431987,0.07831821929101401,0.02720527617477329,0.02225886232481451
188106,-0.2791635353319657,-0.8620257483665684,-0.3921960817759536,-0.15862396771486204,0.26024506466984343,0.6044247787610619,0.23628318584070795,0.49874951904578685,0.5,0.49822046941131204,0.031327287716405604,0.03544929925803792,0.033800494641384994,0.08738664468260511,0.07666941467436109,0.10717230008244023,0.03297609233305853,0.023907666941467436
195055,-0.27964333917206485,-0.8617555541487464,-0.39291659048226835,-0.15745958425664064,0.2599727705922396,0.6017018379850239,0.23859768550034036,0.5003366679492113,0.5012985763755291,0.4999038091573682,0.031327287716405604,0.03544929925803792,0.033800494641384994,0.08738664468260511,0.07666941467436109,0.10717230008244023,0.03297609233305853,0.023907666941467436
211235,-0.27964333917206485,-0.8617555541487464,-0.39291659048226835,-0.15745958425664064,0.2599727705922396,0.6017018379850239,0.23859768550034036,0.5003366679492113,0.5012985763755291,0.4999038091573682,0.028029678483099753,0.03297609233305853,0.03215169002473207,0.09150865622423743,0.07502061005770816,0.10882110469909316,0.03709810387469085,0.025556471558120363
213003,-0.27904163781457786,-0.861843168761954,-0.3936611032161039,-0.15618275397364495,0.25936010891763106,0.5995234853641933,0.24009530292716133,0.5046652558676414,0.5025009619084263,0.5012023855328973,0.028029678483099753,0.03297609233305853,0.03215169002473207,0.09150865622423743,0.07502061005770816,0.10882110469909316,0.03709810387469085,0.025556471558120363
233773,-0.27904163781457786,-0.861843168761954,-0.3936611032161039,-0.15618275397364495,0.25936010891763106,0.5995234853641933,0.24009530292716133,0.5046652558676414,0.5025009619084263,0.5012023855328973,0.026380873866446827,0.030502885408079144,0.02967848309975268,0.06100577081615829,0.05935696619950536,0.10634789777411377,0.03709810387469085,0.023083264633140973
235530,-0.2772155774801278,-0.8624077740630133,-0.39433946413454557,-0.15459864767881193,0.2590197413206263,0.599931926480599,0.23900612661674608,0.5108214697960755,0.5029819161215853,0.5028376298576376,0.026380873866446827,0.030502885408079144,0.02967848309975268,0.06100577081615829,0.05935696619950536,0.10634789777411377,0.03709810387469085,0.023083264633140973
248078,-0.2772155774801278,-0.8624077740630133,-0.39433946413454557,-0.15459864767881193,0.2590197413206263,0.599931926480599,0.23900612661674608,0.5108214697960755,0.5029819161215853,0.5028376298576376,0.021434460016488046,0.02720527617477329,0.02967848309975268,0.06100577081615829,0.06347897774113767,0.1079967023907667,0.03709810387469085,0.023083264633140973
255029,-0.27453435226247713,-0.8633366858054111,-0.39489489976394554,-0.15277000527189424,0.26010891763104155,0.6020422055820286,0.23662355343771274,0.5151500577145056,0.5028376298576376,0.503943824547903,0.021434460016488046,0.02720527617477329,0.02967848309975268,0.06100577081615829,0.06347897774113767,0.1079967023907667,0.03709810387469085,0.023083264633140973
271251,-0.27453435226247713,-0.8633366858054111,-0.39489489976394554,-0.15277000527189424,0.26010891763104155,0.6020422055820286,0.23662355343771274,0.5151500577145056,0.5028376298576376,0.503943824547903,0.018136850783182192,0.02225886232481451,0.026380873866446827,0.07254740313272877,0.06183017312448475,0.09645507007419621,0.033800494641384994,0.02225886232481451
273003,-0.27195538474561687,-0.8642029281862511,-0.3954216646694012,-0.15111344987211567,0.2605854322668482,0.6046970728386658,0.23675970047651462,0.5156310119276645,0.5029819161215853,0.5040400153905348,0.018136850783182192,0.02225886232481451,0.026380873866446827,0.07254740313272877,0.06183017312448475,0.09645507007419621,0.033800494641384994,0.02225886232481451
293813,-0.27195538474561687,-0.8642029281862511,-0.3954216646694012,-0.15111344987211567,0.2605854322668482,0.6046970728386658,0.23675970047651462,0.5156310119276645,0.5029819161215853,0.5040400153905348,0.043693322341302555,0.02720527617477329,0.02720527617477329,0.06842539159109645,0.06100577081615829,0.06677658697444352,0.028854080791426217,0.020610057708161583
295550,-0.26993683045523453,-0.8648597839432803,-0.3959032826504876,-0.14970722249755603,0.2592239618788291,0.60571817562968,0.23546630360789653,0.5133224317045018,0.5037033474413236,0.5041362062331666,0.043693322341302555,0.02720527617477329,0.02720527617477329,0.06842539159109645,0.06100577081615829,0.06677658697444352,0.028854080791426217,0.020610057708161583
308074,-0.26993683045523453,-0.8648597839432803,-0.3959032826504876,-0.14970722249755603,0.2592239618788291,0.60571817562968,0.23546630360789653,0.5133224317045018,0.5037033474413236,0.5041362062331666,0.05688375927452597,0.033800494641384994,0.026380873866446827,0.06100577081615829,0.05688375927452597,0.06265457543281121,0.051112943116240726,0.04781533388293487
315032,-0.26847566325226635,-0.8652984663765929,-0.39621368625453807,-0.14897683428024144,0.2588835942818244,0.6045609257998639,0.2371000680735194,0.5095228934205464,0.5049538283955367,0.5048576375529049,0.05688375927452597,0.033800494641384994,0.026380873866446827,0.06100577081615829,0.05688375927452597,0.06265457543281121,0.051112943116240726,0.04781533388293487
331262,-0.26847566325226635,-0.8652984663765929,-0.39621368625453807,-0.14897683428024144,0.2588835942818244,0.6045609257998639,0.2371000680735194,0.5095228934205464,0.5049538283955367,0.5048576375529049,0.16982687551525144,0.05441055234954658,0.02720527617477329,0.060181368507831824,0.05441055234954658,0.06677658697444352,0.12530915086562242,0.14756801319043694
333059,-0.2671998531090078,-0.8657446131455632,-0.3961002847595844,-0.1489800916946295,0.25718175629680057,0.6006807351940096,0.23805309734513275,0.5066852635629088,0.5078876490958061,0.5077914582531743,0.16982687551525144,0.05441055234954658,0.02720527617477329,0.060181368507831824,0.05441055234954658,0.06677658697444352,0.12530915086562242,0.14756801319043694
353751,-0.2671998531090078,-0.8657446131455632,-0.3961002847595844,-0.1489800916946295,0.25718175629680057,0.6006807351940096,0.23805309734513275,0.5066852635629088,0.5078876490958061,0.5077914582531743,0.21434460016488047,0.08161582852431987,0.028029678483099753,0.05688375927452597,0.041220115416323165,0.05441055234954658,0.1327287716405606,0.1615828524319868
355515,-0.26511910121903887,-0.8667636914163881,-0.39499328340000445,-0.14970928989187438,0.24731109598366235,0.5889040163376447,0.24098025867937373,0.5054828780300116,0.5135629088110811,0.5157752981916122,0.21434460016488047,0.08161582852431987,0.028029678483099753,0.05688375927452597,0.041220115416323165,0.05441055234954658,0.1327287716405606,0.1615828524319868
368052,-0.26511910121903887,-0.8667636914163881,-0.39499328340000445,-0.14970928989187438,0.24731109598366235,0.5889040163376447,0.24098025867937373,0.5054828780300116,0.5135629088110811,0.5157752981916122,0.23000824402308326,0.08903544929925804,0.028854080791426217,0.03957131079967024,0.03957131079967024,0.05358615004122012,0.14179719703215168,0.19455894476504534
375033,-0.25932417776176303,-0.8700695406381957,-0.39096980059822406,-0.1512368351361847,0.22416609938733834,0.5563648740639892,0.25302927161334243,0.5119757599076568,0.5254424778761062,0.5389572912658714,0.23000824402308326,0.08903544929925804,0.028854080791426217,0.03957131079967024,0.03957131079967024,0.05358615004122012,0.14179719703215168,0.19455894476504534
390553,-0.25932417776176303,-0.8700695406381957,-0.39096980059822406,-0.1512368351361847,0.22416609938733834,0.5563648740639892,0.25302927161334243,0.5119757599076568,0.5254424778761062,0.5389572912658714,0.23495465787304204,0.0898598516075845,0.043693322341302555,0.06760098928276999,0.04534212695795548,0.046166529266281946,0.14591920857378401,0.20527617477328935
397526,-0.2445470959621914,-0.8790757100672336,-0.3784468535217242,-0.15556539745635783,0.2082368958475153,0.5315861130020422,0.25017018379850237,0.5515582916506349,0.5315986918045402,0.5864755675259715,0.23495465787304204,0.0898598516075845,0.043693322341302555,0.06760098928276999,0.04534212695795548,0.046166529266281946,0.14591920857378401,0.20527617477328935
413748,-0.2445470959621914,-0.8790757100672336,-0.3784468535217242,-0.15556539745635783,0.2082368958475153,0.5315861130020422,0.25017018379850237,0.5515582916506349,0.5315986918045402,0.5864755675259715,0.24154987633965375,0.09233305853256389,0.05276174773289365,0.10882110469909316,0.06842539159109645,0.0494641384995878,0.14262159934047816,0.20527617477328935
415503,-0.2183723116890318,-0.8938128856025351,-0.3580134098289157,-0.15886616191351308,0.2192648059904697,0.560857726344452,0.23097345132743363,0.5997979992304733,0.5341958445555983,0.6332243170450174,0.24154987633965375,0.09233305853256389,0.05276174773289365,0.10882110469909316,0.06842539159109645,0.0494641384995878,0.14262159934047816,0.20527617477328935
428021,-0.2183723116890318,-0.8938128856025351,-0.3580134098289157,-0.15886616191351308,0.2192648059904697,0.560857726344452,0.23097345132743363,0.5997979992304733,0.5341958445555983,0.6332243170450174,0.1912613355317395,0.08903544929925804,0.06347897774113767,0.13849958779884583,0.0807914262159934,0.04534212695795548,0.09150865622423743,0.16570486397361914
435019,-0.18504361462771018,-0.9106318515369604,-0.332370555825366,-0.1613638908560903,0.2394145677331518,0.6046970728386658,0.226072157930565,0.6323105040400154,0.5346767987687572,0.6610715659869181,0.1912613355317395,0.08903544929925804,0.06347897774113767,0.13849958779884583,0.0807914262159934,0.04534212695795548,0.09150865622423743,0.16570486397361914
450601,-0.18504361462771018,-0.9106318515369604,-0.332370555825366,-0.1613638908560903,0.2394145677331518,0.6046970728386658,0.226072157930565,0.6323105040400154,0.5346767987687572,0.6610715659869181,0.14509480626545754,0.07089859851607584,0.08161582852431987,0.1615828524319868,0.09398186314921682,0.04781533388293487,0.08903544929925804,0.15910964550700743
457576,-0.14769458388383322,-0.9269360909205202,-0.3060085304105536,-0.15916837800373432,0.2786929884275017,0.6292035398230088,0.21095983662355344,0.657127741439015,0.5191419776837245,0.6614563293574451,0.14509480626545754,0.07089859851607584,0.08161582852431987,0.1615828524319868,0.09398186314921682,0.04781533388293487,0.08903544929925804,0.15910964550700743
473755,-0.14769458388383322,-0.9269360909205202,-0.3060085304105536,-0.15916837800373432,0.2786929884275017,0.6292035398230088,0.21095983662355344,0.657127741439015,0.5191419776837245,0.6614563293574451,0.12943116240725475,0.06924979389942292,0.09315746084089035,0.190436933223413,0.10964550700741962,0.048639736191261336,0.08656224237427865,0.15004122011541632
475544,-0.11046635430576425,-0.9407949456482629,-0.2853205560107447,-0.14592544372656482,0.3314499659632403,0.6324710687542546,0.204356705241661,0.6758849557522124,0.4747979992304733,0.6263466717968449,0.12943116240725475,0.06924979389942292,0.09315746084089035,0.190436933223413,0.10964550700741962,0.048639736191261336,0.08656224237427865,0.15004122011541632
488079,-0.11046635430576425,-0.9407949456482629,-0.2853205560107447,-0.14592544372656482,0.3314499659632403,0.6324710687542546,0.204356705241661,0.6758849557522124,0.4747979992304733,0.6263466717968449,0.1170651277823578,0.07254740313272877,0.09398186314921682,0.18961253091508656,0.11211871393239901,0.05358615004122012,0.16488046166529266,0.22341302555647155
495030,-0.07269130766856799,-0.9506631471415742,-0.2773988189367267,-0.1183446226442933,0.3805309734513274,0.6096664397549353,0.19571136827773997,0.7018083878414775,0.4197768372450943,0.5606483262793382,0.1170651277823578,0.07254740313272877,0.09398186314921682,0.18961253091508656,0.11211871393239901,0.05358615004122012,0.16488046166529266,0.22341302555647155
510559,-0.07269130766856799,-0.9506631471415742,-0.2773988189367267,-0.1183446226442933,0.3805309734513274,0.6096664397549353,0.19571136827773997,0.7018083878414775,0.4197768372450943,0.5606483262793382,0.10057708161582853,0.06595218466611706,0.09150865622423743,0.17147568013190437,0.09975267930750206,0.05276174773289365,0.16982687551525144,0.23248145094806266
517528,-0.027891604406833716,-0.9513051157315474,-0.2971035672920493,-0.07726645772221331,0.43036078965282504,0.5865214431586113,0.20544588155207624,0.7588495575221239,0.37894382454790304,0.43213736052327817,0.10057708161582853,0.06595218466611706,0.09150865622423743,0.17147568013190437,0.09975267930750206,0.05276174773289365,0.16982687551525144,0.23248145094806266
533779,-0.027891604406833716,-0.9513051157315474,-0.2971035672920493,-0.07726645772221331,0.43036078965282504,0.5865214431586113,0.20544588155207624,0.7588495575221239,0.37894382454790304,0.43213736052327817,0.08491343775762572,0.06100577081615829,0.09068425391591096,0.15333882934872217,0.10305028854080792,0.05028854080791426,0.169002473206925,0.22588623248145095
535565,0.001159658840486832,-0.9365160657068395,-0.34887420695909116,-0.03497286924205025,0.34431586113002044,0.6857726344452009,0.1123213070115725,0.7139284340130819,0.36903616775682957,0.27414390150057716,0.08491343775762572,0.06100577081615829,0.09068425391591096,0.15333882934872217,0.10305028854080792,0.05028854080791426,0.169002473206925,0.22588623248145095
548056,0.001159658840486832,-0.9365160657068395,-0.34887420695909116,-0.03497286924205025,0.34431586113002044,0.6857726344452009,0.1123213070115725,0.7139284340130819,0.36903616775682957,0.27414390150057716,0.08161582852431987,0.07914262159934048,0.16735366859027206,0.21022258862324814,0.4971145919208574,0.0585325638911789,0.16982687551525144,0.22588623248145095
555020,-0.017149742540198517,-0.9284663105481852,-0.3707640068743986,-0.013793031366850053,0.13546630360789652,0.9132062627637849,0.11654186521443159,0.4661889188149288,0.3911119661408234,0.4000577145055791,0.08161582852431987,0.07914262159934048,0.16735366859027206,0.21022258862324814,0.4971145919208574,0.0585325638911789,0.16982687551525144,0.22588623248145095
570538,-0.017149742540198517,-0.9284663105481852,-0.3707640068743986,-0.013793031366850053,0.13546630360789652,0.9132062627637849,0.11654186521443159,0.4661889188149288,0.3911119661408234,0.4000577145055791,0.0741962077493817,0.07996702390766694,0.28359439406430337,0.23495465787304204,0.6702390766694146,0.08738664468260511,0.19703215169002472,0.2448474855729596
577546,-0.07152865311341806,-0.9235252379797289,-0.3768070855991836,0.0010985629317760454,0.33505786249149083,0.7648740639891083,0.2150442477876106,0.30684878799538284,0.3563870719507503,0.4683532127741439,0.0741962077493817,0.07996702390766694,0.28359439406430337,0.23495465787304204,0.6702390766694146,0.08738664468260511,0.19703215169002472,0.2448474855729596
593742,-0.07152865311341806,-0.9235252379797289,-0.3768070855991836,0.0010985629317760454,0.33505786249149083,0.7648740639891083,0.2150442477876106,0.30684878799538284,0.3563870719507503,0.4683532127741439,0.27947238252267104,0.22176422093981862,0.44105523495465787,0.37098103874690846,0.7287716405605935,0.11376751854905194,0.19291014014839242,0.2967848309975268
595545,-0.1386076741146089,-0.9096471928683976,-0.391531584960465,0.005737173653356775,0.29891082368958477,0.6800544588155207,0.2004084411164057,0.2458156983455175,0.372787610619469,0.4190554059253559,0.27947238252267104,0.22176422093981862,0.44105523495465787,0.37098103874690846,0.7287716405605935,0.11376751854905194,0.19291014014839242,0.2967848309975268
608076,-0.1386076741146089,-0.9096471928683976,-0.391531584960465,0.005737173653356775,0.29891082368958477,0.6800544588155207,0.2004084411164057,0.2458156983455175,0.372787610619469,0.4190554059253559,0.5127782357790602,0.42868920032976093,0.5836768342951361,0.40807914262159933,0.7361912613355317,0.13107996702390767,0.2761747732893652,0.4154987633965375
615030,-0.1996939576917045,-0.8946557841695282,-0.39950997770473645,-0.01025323499150561,0.2559564329475834,0.6556160653505786,0.1708645336963921,0.2277318199307426,0.46546748749519046,0.45733936129280495,0.5127782357790602,0.42868920032976093,0.5836768342951361,0.40807914262159933,0.7361912613355317,0.13107996702390767,0.2761747732893652,0.4154987633965375
630579,-0.1996939576917045,-0.8946557841695282,-0.39950997770473645,-0.01025323499150561,0.2559564329475834,0.6556160653505786,0.1708645336963921,0.2277318199307426,0.46546748749519046,0.45733936129280495,0.7980214344600165,0.6471558120362737,0.6504534212695795,0.4896949711459192,0.761747732893652,0.17065127782357792,0.3099752679307502,0.5441055234954658
637556,-0.2671346170921696,-0.8730547629662981,-0.40353988764300336,-0.05974978070213253,0.2824370319945541,0.48556841388699795,0.10469707283866576,0.116198537899192,0.581425548287803,0.4915833012697191,0.7980214344600165,0.6471558120362737,0.6504534212695795,0.4896949711459192,0.761747732893652,0.17065127782357792,0.3099752679307502,0.5441055234954658
653751,-0.2671346170921696,-0.8730547629662981,-0.40353988764300336,-0.05974978070213253,0.2824370319945541,0.48556841388699795,0.10469707283866576,0.116198537899192,0.581425548287803,0.4915833012697191,0.9274525968672712,0.761747732893652,0.6545754328112119,0.4756801319043693,0.5993404781533388,0.17807089859851608,0.31986809563066776,0.606760098928277
655528,-0.33073026309198017,-0.8499261199149135,-0.39395900503021447,-0.11419013143478408,0.20326752893124575,0.37542545949625594,0.24778761061946902,0.1146594844170835,0.6000865717583687,0.5530973451327433,0.9274525968672712,0.761747732893652,0.6545754328112119,0.4756801319043693,0.5993404781533388,0.17807089859851608,0.31986809563066776,0.606760098928277
667389,-0.33073026309198017,-0.8499261199149135,-0.39395900503021447,-0.11419013143478408,0.20326752893124575,0.37542545949625594,0.24778761061946902,0.1146594844170835,0.6000865717583687,0.5530973451327433,1,0.8252267106347898,0.6183017312448474,0.482275350370981,0.437757625721352,0.17147568013190437,0.30502885408079145,0.6042868920032977
676529,-0.35326382790998234,-0.8410462247062123,-0.38194972962347434,-0.148190147575231,0,0.40633083730428865,0.3117086453369639,0.34316083108888035,0.5810888803385917,0.5735378991919969,1,0.8252267106347898,0.6183017312448474,0.482275350370981,0.437757625721352,0.17147568013190437,0.30502885408079145,0.6042868920032977
690538,-0.35326382790998234,-0.8410462247062123,-0.38194972962347434,-0.148190147575231,0,0.40633083730428865,0.3117086453369639,0.34316083108888035,0.5810888803385917,0.5735378991919969,0.9760923330585326,0.8062654575432812,0.5218466611706513,0.40643033800494643,0.40560593569661996,0.15910964550700743,0.27535037098103876,0.5663643858202803
697508,-0.3422067081421361,-0.850725754377249,-0.3649106309937278,-0.16124667788684208,0.1773995915588836,0.3979577944179714,0.3298842750170184,0.517602924201616,0.5443439784532512,0.6174009234320893,0.9760923330585326,0.8062654575432812,0.5218466611706513,0.40643033800494643,0.40560593569661996,0.15910964550700743,0.27535037098103876,0.5663643858202803
713729,-0.3422067081421361,-0.850725754377249,-0.3649106309937278,-0.16124667788684208,0.1773995915588836,0.3979577944179714,0.3298842750170184,0.517602924201616,0.5443439784532512,0.6174009234320893,0.8837592745259687,0.7246496290189612,0.3619126133553174,0.4031327287716406,0.42868920032976093,0.1483924154987634,0.19868095630667765,0.4962901896125309
715526,-0.31633292875040697,-0.8686796401513684,-0.34770378064655,-0.15630496440860356,0.22688904016337644,0.4943498978897209,0.27937372362151125,0.6180742593305117,0.49191996921893033,0.6114851866102347,0.8837592745259687,0.7246496290189612,0.3619126133553174,0.4031327287716406,0.42868920032976093,0.1483924154987634,0.19868095630667765,0.4962901896125309
727433,-0.31633292875040697,-0.8686796401513684,-0.34770378064655,-0.15630496440860356,0.22688904016337644,0.4943498978897209,0.27937372362151125,0.6180742593305117,0.49191996921893033,0.6114851866102347,0.6471558120362737,0.5474031327287716,0.23495465787304204,0.34789777411376754,0.3866446826051113,0.10469909315746084,0.1434460016488046,0.3511953833470734
736524,-0.2681661893682219,-0.8943348518438606,-0.3326139581376444,-0.13274043283474798,0.3366916269571137,0.5945541184479237,0.2181075561606535,0.75,0.44473836090804153,0.5985475182762601,0.6471558120362737,0.5474031327287716,0.23495465787304204,0.34789777411376754,0.3866446826051113,0.10469909315746084,0.1434460016488046,0.3511953833470734
750595,-0.2681661893682219,-0.8943348518438606,-0.3326139581376444,-0.13274043283474798,0.3366916269571137,0.5945541184479237,0.2181075561606535,0.75,0.44473836090804153,0.5985475182762601,0.44847485572959606,0.3751030502885408,0.17724649629018963,0.35614179719703215,0.3792250618301731,0.09315746084089035,0.17230008244023085,0.2761747732893652
757528,-0.20396907385240326,-0.9163960634033019,-0.33256357971925354,-0.08953400099984309,0.3788291354663036,0.5648059904697073,0.10108917631041525,0.842006540977299,0.40635821469796074,0.5187572143131974,0.44847485572959606,0.3751030502885408,0.17724649629018963,0.35614179719703215,0.3792250618301731,0.09315746084089035,0.17230008244023085,0.2761747732893652
773781,-0.20396907385240326,-0.9163960634033019,-0.33256357971925354,-0.08953400099984309,0.3788291354663036,0.5648059904697073,0.10108917631041525,0.842006540977299,0.40635821469796074,0.5187572143131974,0.24896949711459193,0.20362737015663643,0.16075845012366036,0.33553173948887055,0.33470733718054413,0.08161582852431987,0.18796372629843364,0.27040395713107995
775523,-0.12120961607208086,-0.9306774599613097,-0.3421455728600631,-0.045651960131881414,0.3969366916269571,0.5834581347855684,0.10599046970728386,0.9219892266256252,0.4390631011927664,0.47580800307810694,0.24896949711459193,0.20362737015663643,0.16075845012366036,0.33553173948887055,0.33470733718054413,0.08161582852431987,0.18796372629843364,0.27040395713107995
796258,-0.12120961607208086,-0.9306774599613097,-0.3421455728600631,-0.045651960131881414,0.3969366916269571,0.5834581347855684,0.10599046970728386,0.9219892266256252,0.4390631011927664,0.47580800307810694,0.1953833470733718,0.17477328936521022,0.1483924154987634,0.3165704863973619,0.25968672712283597,0.07254740313272877,0.1863149216817807,0.2522671063478978
798025,-0.044675920815660984,-0.9327624287236979,-0.35771252991883745,0.0002441307148396775,0.27719537100068076,0.7215112321307011,0.14063989108236896,0.9121777606771835,0.43704309349749904,0.43468641785302037,0.1953833470733718,0.17477328936521022,0.1483924154987634,0.3165704863973619,0.25968672712283597,0.07254740313272877,0.1863149216817807,0.2522671063478978
810617,-0.044675920815660984,-0.9327624287236979,-0.35771252991883745,0.0002441307148396775,0.27719537100068076,0.7215112321307011,0.14063989108236896,0.9121777606771835,0.43704309349749904,0.43468641785302037,0.15910964550700743,0.14921681780708987,0.1549876339653751,0.3322341302555647,0.4245671887881286,0.08821104699093157,0.1863149216817807,0.2225886232481451
817567,-0.04687308668581768,-0.9264148213594096,-0.3726044195532773,0.026915405245371872,0.24322668481960516,0.9864533696392104,0.09918311776718856,0.5374663332050789,0.39539245863793765,0.42925163524432475,0.15910964550700743,0.14921681780708987,0.1549876339653751,0.3322341302555647,0.4245671887881286,0.08821104699093157,0.1863149216817807,0.2225886232481451
833739,-0.04687308668581768,-0.9264148213594096,-0.3726044195532773,0.026915405245371872,0.24322668481960516,0.9864533696392104,0.09918311776718856,0.5374663332050789,0.39539245863793765,0.42925163524432475,0.14674361088211046,0.18713932399010716,0.45919208573784004,0.49793899422918386,0.6801319043693322,0.18549051937345423,0.33388293487221765,0.4113767518549052
835501,-0.10857718355435156,-0.9153074883443566,-0.3874966488963339,0.01641779785054557,0.3567052416609939,0.8201497617426821,0.18543226684819605,0.23167564447864564,0.44863409003462873,0.4358407079646018,0.14674361088211046,0.18713932399010716,0.45919208573784004,0.49793899422918386,0.6801319043693322,0.18549051937345423,0.33388293487221765,0.4113767518549052
856267,-0.10857718355435156,-0.9153074883443566,-0.3874966488963339,0.01641779785054557,0.3567052416609939,0.8201497617426821,0.18543226684819605,0.23167564447864564,0.44863409003462873,0.4358407079646018,0.2201154163231657,0.28606760098928274,0.6751854905193735,0.5325638911788954,0.685078318219291,0.19208573784006594,0.3503709810387469,0.43693322341302554
858030,-0.19810787915627828,-0.8935605233293501,-0.4028071480072202,-0.007018609397095503,0.2624914908100749,0.7058543226684819,0.2282505105513955,0.10229896113889958,0.44940361677568297,0.42136398614851867,0.2201154163231657,0.28606760098928274,0.6751854905193735,0.5325638911788954,0.685078318219291,0.19208573784006594,0.3503709810387469,0.43693322341302554
870551,-0.19810787915627828,-0.8935605233293501,-0.4028071480072202,-0.007018609397095503,0.2624914908100749,0.7058543226684819,0.2282505105513955,0.10229896113889958,0.44940361677568297,0.42136398614851867,0.393239901071723,0.31409727947238253,0.7262984336356142,0.5713107996702391,0.6883759274525969,0.2044517724649629,0.37015663643858204,0.48392415498763397
877513,-0.28617888320997953,-0.8658604854126637,-0.40793765309778274,-0.044431270415198364,0.28876786929884274,0.597072838665759,0.14846834581347856,0.06064832627933821,0.4953828395536745,0.4635917660638707,0.393239901071723,0.31409727947238253,0.7262984336356142,0.5713107996702391,0.6883759274525969,0.2044517724649629,0.37015663643858204,0.48392415498763397
893734,-0.28617888320997953,-0.8658604854126637,-0.40793765309778274,-0.044431270415198364,0.28876786929884274,0.597072838665759,0.14846834581347856,0.06064832627933821,0.4953828395536745,0.4635917660638707,0.5779060181368508,0.3503709810387469,0.7337180544105524,0.5754328112118714,0.6859027205276175,0.2085737840065952,0.37840065952184665,0.4921681780708986
895532,-0.3683311094747056,-0.8272344420580214,-0.4094670113447887,-0.11114017404365184,0.2857726344452008,0.4603812117086453,0.12716133424098025,0,0.617545209696037,0.4979318968834167,0.5779060181368508,0.3503709810387469,0.7337180544105524,0.5754328112118714,0.6859027205276175,0.2085737840065952,0.37840065952184665,0.4921681780708986
916273,-0.3683311094747056,-0.8272344420580214,-0.4094670113447887,-0.11114017404365184,0.2857726344452008,0.4603812117086453,0.12716133424098025,0,0.617545209696037,0.4979318968834167,0.6826051112943117,0.4237427864798021,0.7403132728771641,0.562242374278648,0.5762572135201979,0.20610057708161583,0.380873866446826,0.5441055234954658
918003,-0.4227563772284146,-0.7933929412399869,-0.40102961668368875,-0.17601117250277865,0.22035398230088496,0.41844792375765827,0.19707283866575903,0.110475182762601,0.6481819930742593,0.5577626010003848,0.6826051112943117,0.4237427864798021,0.7403132728771641,0.562242374278648,0.5762572135201979,0.20610057708161583,0.380873866446826,0.5441055234954658
930549,-0.4227563772284146,-0.7933929412399869,-0.40102961668368875,-0.17601117250277865,0.22035398230088496,0.41844792375765827,0.19707283866575903,0.110475182762601,0.6481819930742593,0.5577626010003848,0.854080791426216,0.49546578730420443,0.6059356966199505,0.4097279472382523,0.52679307502061,0.12860676009892827,0.2671063478977741,0.4468260511129431
937516,-0.4328994582414867,-0.7847485174212654,-0.3824870865359364,-0.22465852330282143,0.005309734513274336,0.34656228727025185,0.23655547991831177,0.35350134667179683,0.6304828780300116,0.6381781454405541,0.854080791426216,0.49546578730420443,0.6059356966199505,0.4097279472382523,0.52679307502061,0.12860676009892827,0.2671063478977741,0.4468260511129431
953753,-0.4328994582414867,-0.7847485174212654,-0.3824870865359364,-0.22465852330282143,0.005309734513274336,0.34656228727025185,0.23655547991831177,0.35350134667179683,0.6304828780300116,0.6381781454405541,0.8549051937345424,0.44847485572959606,0.3619126133553174,0.4113767518549052,0.7658697444352844,0.12036273701566365,0.2159934047815334,0.3998351195383347
955529,-0.42381093043382373,-0.7960492462051213,-0.3605200411970905,-0.23814951764872985,0.12178352620830497,0.2503744043567052,0.359428182437032,0.5140438630242401,0.5143805309734514,0.6356771835321278,0.8549051937345424,0.44847485572959606,0.3619126133553174,0.4113767518549052,0.7658697444352844,0.12036273701566365,0.2159934047815334,0.3998351195383347
976201,-0.42381093043382373,-0.7960492462051213,-0.3605200411970905,-0.23814951764872985,0.12178352620830497,0.2503744043567052,0.359428182437032,0.5140438630242401,0.5143805309734514,0.6356771835321278,0.8153338829348722,0.4319868095630668,0.24649629018961253,0.3553173948887057,0.8186314921681781,0.10057708161582853,0.15663643858202803,0.33553173948887055
977953,-0.37478725595746,-0.831538244979709,-0.34250221143677995,-0.22532397801578607,0.2642614023144997,0.5134104833219878,0.3151803948264125,0.7419199692189303,0.4671508272412466,0.6518853405155829,0.8153338829348722,0.4319868095630668,0.24649629018961253,0.3553173948887057,0.8186314921681781,0.10057708161582853,0.15663643858202803,0.33553173948887055
998729,-0.37478725595746,-0.831538244979709,-0.34250221143677995,-0.22532397801578607,0.2642614023144997,0.5134104833219878,0.3151803948264125,0.7419199692189303,0.4671508272412466,0.6518853405155829,0.7213520197856554,0.4097279472382523,0.2382522671063479,0.36933223413025557,0.8887056883759274,0.09480626545754328,0.15004122011541632,0.3437757625721352
1000500,-0.30399124217576895,-0.8706563061392331,-0.33462838402925943,-0.19383179786192375,0.33893805309734515,0.5556160653505786,0.19251191286589517,0.8624470950365525,0.4413235859946133,0.606483262793382,0.7213520197856554,0.4097279472382523,0.2382522671063479,0.36933223413025557,0.8887056883759274,0.09480626545754328,0.15004122011541632,0.3437757625721352
1013074,-0.30399124217576895,-0.8706563061392331,-0.33462838402925943,-0.19383179786192375,0.33893805309734515,0.5556160653505786,0.19251191286589517,0.8624470950365525,0.4413235859946133,0.606483262793382,0.6281945589447651,0.33388293487221765,0.2110469909315746,0.3660346248969497,0.8944765045342127,0.08161582852431987,0.1574608408903545,0.28606760098928274
1020042,-0.22301333241036003,-0.9038936652976005,-0.3359237497500333,-0.1428164197701813,0.3424778761061947,0.6249829816201498,0.13165418652144315,0.9369469026548672,0.3972681800692574,0.547085417468257,0.6281945589447651,0.33388293487221765,0.2110469909315746,0.3660346248969497,0.8944765045342127,0.08161582852431987,0.1574608408903545,0.28606760098928274
1036246,-0.22301333241036003,-0.9038936652976005,-0.3359237497500333,-0.1428164197701813,0.3424778761061947,0.6249829816201498,0.13165418652144315,0.9369469026548672,0.3972681800692574,0.547085417468257,0.35449299258037925,0.15004122011541632,0.18219291014014838,0.3388293487221764,0.7568013190436933,0.07666941467436109,0.20774938169826876,0.3676834295136026
1037978,-0.13000222163313493,-0.926677808007459,-0.3435598617713223,-0.07958821455850139,0.35432266848196053,0.601361470388019,0.09836623553437712,1,0.37581762216237014,0.5019238168526357,0.35449299258037925,0.15004122011541632,0.18219291014014838,0.3388293487221764,0.7568013190436933,0.07666941467436109,0.20774938169826876,0.3676834295136026
1058503,-0.13000222163313493,-0.926677808007459,-0.3435598617713223,-0.07958821455850139,0.35432266848196053,0.601361470388019,0.09836623553437712,1,0.37581762216237014,0.5019238168526357,0.3099752679307502,0.12860676009892827,0.1508656224237428,0.26133553173948887,0.5259686727122836,0.07007419620774938,0.21187139323990106,0.382522671063479
1065503,-0.04955826845276781,-0.9309264392981126,-0.3612504814925279,-0.020445837354282285,0.34819605173587476,0.5917631041524847,0.16630360789652826,0.9394478645632935,0.38476337052712584,0.43184878799538284,0.3099752679307502,0.12860676009892827,0.1508656224237428,0.26133553173948887,0.5259686727122836,0.07007419620774938,0.21187139323990106,0.382522671063479
1073033,-0.04955826845276781,-0.9309264392981126,-0.3612504814925279,-0.020445837354282285,0.34819605173587476,0.5917631041524847,0.16630360789652826,0.9394478645632935,0.38476337052712584,0.43184878799538284,0.23165704863973618,0.11046990931574609,0.1574608408903545,0.2671063478977741,0.5968672712283595,0.07007419620774938,0.21269579554822754,0.37675185490519375
1080018,-0.03985350073929622,-0.9232219076314455,-0.38217859361328166,0.0035398208926174283,0.12185159972770593,1,0.05064669843430905,0.5837341285109657,0.427808772604848,0.4029915352058484,0.23165704863973618,0.11046990931574609,0.1574608408903545,0.2671063478977741,0.5968672712283595,0.07007419620774938,0.21269579554822754,0.37675185490519375
1096280,-0.03985350073929622,-0.9232219076314455,-0.38217859361328166,0.0035398208926174283,0.12185159972770593,1,0.05064669843430905,0.5837341285109657,0.427808772604848,0.4029915352058484,0.14591920857378401,0.08491343775762572,0.15828524319868095,0.2737015663643858,0.7477328936521023,0.11953833470733718,0.2737015663643858,0.39159109645507006
1098026,-0.07104202531607452,-0.9195792057021434,-0.38639781982480054,-0.004882613423785191,0.37746766507828455,0.8916269571136828,0.2204220558202859,0.3636494805694498,0.4882166217776068,0.4844170834936514,0.14591920857378401,0.08491343775762572,0.15828524319868095,0.2737015663643858,0.7477328936521023,0.11953833470733718,0.2737015663643858,0.39159109645507006
1118726,-0.07104202531607452,-0.9195792057021434,-0.38639781982480054,-0.004882613423785191,0.37746766507828455,0.8916269571136828,0.2204220558202859,0.3636494805694498,0.4882166217776068,0.4844170834936514,0.12860676009892827,0.09315746084089035,0.32234130255564714,0.3396537510305029,0.7419620774938169,0.1261335531739489,0.28606760098928274,0.4253915910964551
1120503,-0.15929173843407066,-0.9009443075723184,-0.402867726208161,-0.02496180881974517,0.2778080326752893,0.7044247787610619,0.23104152484683457,0.11884378607156598,0.43790881108118507,0.4092920353982301,0.12860676009892827,0.09315746084089035,0.32234130255564714,0.3396537510305029,0.7419620774938169,0.1261335531739489,0.28606760098928274,0.4253915910964551
1133076,-0.15929173843407066,-0.9009443075723184,-0.402867726208161,-0.02496180881974517,0.2778080326752893,0.7044247787610619,0.23104152484683457,0.11884378607156598,0.43790881108118507,0.4092920353982301,0.11953833470733718,0.1393239901071723,0.4756801319043693,0.43940643033800497,0.752679307502061,0.13107996702390767,0.28194558944765047,0.3882934872217642
1140071,-0.24138087928656457,-0.8778207804750084,-0.4097676924222489,-0.057064759072803506,0.29183117767188566,0.585568413886998,0.22253233492171545,0.1042227779915352,0.4896594844170835,0.44834551750673335,0.11953833470733718,0.1393239901071723,0.4756801319043693,0.43940643033800497,0.752679307502061,0.13107996702390767,0.28194558944765047,0.3882934872217642
1156203,-0.24138087928656457,-0.8778207804750084,-0.4097676924222489,-0.057064759072803506,0.29183117767188566,0.585568413886998,0.22253233492171545,0.1042227779915352,0.4896594844170835,0.44834551750673335,0.1170651277823578,0.1615828524319868,0.5103050288540808,0.44929925803792253,0.7378400659521847,0.13190436933223412,0.2827699917559769,0.3742786479802143
1157956,-0.31224187637988293,-0.849022037201046,-0.41264021231516584,-0.106745707933623,0.29945541184479235,0.5838665759019741,0.14295439074200136,0.10138514813389765,0.5750288572527895,0.4747979992304733,0.1170651277823578,0.1615828524319868,0.5103050288540808,0.44929925803792253,0.7378400659521847,0.13190436933223412,0.2827699917559769,0.3742786479802143
