Timestamp, Orientation x, Orientation y, Orientation z, Orientation w, Acceleration x, Acceleration y, Acceleration z, Rotation x, Rotation y, Rotation z, EMG 0, EMG 1, EMG 2, EMG 3, EMG 4, EMG 5, EMG 6, EMG 7
0,-0.42938517308805213,0.49182455220234883,0.49054280541701134,0.5771522667691004,0.48583050847457626,0.6724067796610169,0.2911186440677966,0.5354393115942029,0.5235507246376812,0.5294384057971014,0,0,0,0,0,0,0,0
7542,-0.42959256939931495,0.49270690823973723,0.49173028404104596,0.5752316530291481,0.4904406779661017,0.6724067796610169,0.2873220338983051,0.5360054347826086,0.519927536231884,0.5289855072463768,0,0,0,0,0,0,0,0
22985,-0.4294580399033784,0.4936692192635765,0.49318092132167385,0.5732617837937081,0.49383050847457627,0.672677966101695,0.2836610169491525,0.5354393115942029,0.5168704710144928,0.5270606884057971,0,0,0,0,0,0,0,0
45019,-0.42902372176027925,0.4945766421146028,0.4950649320241322,0.5711771216720292,0.49410169491525424,0.6787796610169492,0.2846101694915254,0.5375905797101449,0.5118885869565217,0.5254755434782609,0,0,0,0,0,0,0,0
68879,-0.4287832899753064,0.4952523295173859,0.4973275796040992,0.5688016340611929,0.49491525423728816,0.6812203389830509,0.2911186440677966,0.5434782608695652,0.5069067028985508,0.5257019927536232,0,0,0,0,0,0,0,0
71746,-0.4287832899753064,0.4952523295173859,0.4973275796040992,0.5688016340611929,0.49491525423728816,0.6812203389830509,0.2911186440677966,0.5434782608695652,0.5069067028985508,0.5257019927536232,0.020313406848520024,0.034822983168891465,0.020313406848520024,0.020313406848520024,0.020313406848520024,0.034822983168891465,0.017411491584445733,0.024956471271038887
91398,-0.42963405053525744,0.495370074462871,0.4998867557726606,0.5658058884020225,0.4926101694915254,0.6791864406779661,0.3087457627118644,0.558197463768116,0.502151268115942,0.5303442028985508,0.020313406848520024,0.034822983168891465,0.020313406848520024,0.020313406848520024,0.020313406848520024,0.034822983168891465,0.017411491584445733,0.024956471271038887
92225,-0.42963405053525744,0.495370074462871,0.4998867557726606,0.5658058884020225,0.4926101694915254,0.6791864406779661,0.3087457627118644,0.558197463768116,0.502151268115942,0.5303442028985508,0.02379570516540917,0.05165409170052235,0.021474172954149738,0.026697620429483458,0.02901915264074289,0.06674405107370865,0.02379570516540917,0.025536854323853744
105028,-0.43281031299689865,0.49464035771074133,0.5028802945679661,0.5613533279696061,0.487728813559322,0.6751186440677966,0.33315254237288133,0.5855978260869565,0.4976222826086957,0.5424592391304348,0.02379570516540917,0.05165409170052235,0.021474172954149738,0.026697620429483458,0.02901915264074289,0.06674405107370865,0.02379570516540917,0.025536854323853744
113133,-0.43281031299689865,0.49464035771074133,0.5028802945679661,0.5613533279696061,0.487728813559322,0.6751186440677966,0.33315254237288133,0.5855978260869565,0.4976222826086957,0.5424592391304348,0.024376088218224026,0.05629715612304121,0.023215322112594312,0.030760301799187463,0.04062681369704005,0.09402205455600697,0.0261172373766686,0.024956471271038887
128829,-0.43934564602179915,0.49281421866907565,0.5063034361976694,0.554766959807187,0.49477966101694915,0.6770169491525424,0.34332203389830507,0.6225090579710145,0.5031702898550725,0.5665760869565217,0.024376088218224026,0.05629715612304121,0.023215322112594312,0.030760301799187463,0.04062681369704005,0.09402205455600697,0.0261172373766686,0.024956471271038887
129639,-0.43934564602179915,0.49281421866907565,0.5063034361976694,0.554766959807187,0.49477966101694915,0.6770169491525424,0.34332203389830507,0.6225090579710145,0.5031702898550725,0.5665760869565217,0.027278003482298318,0.07661056297156123,0.023215322112594312,0.04178757980266976,0.0661636680208938,0.10098665118978525,0.027858386535113175,0.025536854323853744
151345,-0.44678951249498616,0.48872180690537625,0.5070938893180799,0.5517118037489317,0.536542372881356,0.719457627118644,0.32610169491525426,0.6022418478260869,0.5605751811594203,0.574615036231884,0.027278003482298318,0.07661056297156123,0.023215322112594312,0.04178757980266976,0.0661636680208938,0.10098665118978525,0.027858386535113175,0.025536854323853744
152166,-0.44678951249498616,0.48872180690537625,0.5070938893180799,0.5517118037489317,0.536542372881356,0.719457627118644,0.32610169491525426,0.6022418478260869,0.5605751811594203,0.574615036231884,0.027278003482298318,0.142774230992455,0.027858386535113175,0.0824143934997098,0.17527568195008705,0.10679048171793383,0.02901915264074289,0.0261172373766686
165027,-0.45782019256027473,0.479426424818152,0.497431618366383,0.5595647947463803,0.6298305084745762,0.7576949152542373,0.29166101694915253,0.5254755434782609,0.7242980072463768,0.5588768115942029,0.027278003482298318,0.142774230992455,0.027858386535113175,0.0824143934997098,0.17527568195008705,0.10679048171793383,0.02901915264074289,0.0261172373766686
173145,-0.45782019256027473,0.479426424818152,0.497431618366383,0.5595647947463803,0.6298305084745762,0.7576949152542373,0.29166101694915253,0.5254755434782609,0.7242980072463768,0.5588768115942029,0.03250145095763204,0.1746952988972722,0.038885664538595474,0.1317469529889727,0.3894370284387696,0.2106790481717934,0.0522344747533372,0.03772489843296576
188855,-0.4671836569860808,0.46639016501576214,0.4786587716337661,0.5788829112694004,0.5987796610169491,0.7143050847457627,0.2812203389830508,0.42198822463768115,0.8432971014492754,0.5164175724637681,0.03250145095763204,0.1746952988972722,0.038885664538595474,0.1317469529889727,0.3894370284387696,0.2106790481717934,0.0522344747533372,0.03772489843296576
189640,-0.4671836569860808,0.46639016501576214,0.4786587716337661,0.5788829112694004,0.5987796610169491,0.7143050847457627,0.2812203389830508,0.42198822463768115,0.8432971014492754,0.5164175724637681,0.042948345908299476,0.23157283807312826,0.06094022054556007,0.1485780615206036,0.5443993035403366,0.22344747533372025,0.05629715612304121,0.04352872896111434
211394,-0.4740121075555123,0.45429720789797556,0.45435824473902053,0.6020674000679337,0.5334237288135594,0.7004745762711865,0.31403389830508477,0.3530344202898551,0.8692255434782609,0.5129076086956522,0.042948345908299476,0.23157283807312826,0.06094022054556007,0.1485780615206036,0.5443993035403366,0.22344747533372025,0.05629715612304121,0.04352872896111434
212125,-0.4740121075555123,0.45429720789797556,0.45435824473902053,0.6020674000679337,0.5334237288135594,0.7004745762711865,0.31403389830508477,0.3530344202898551,0.8692255434782609,0.5129076086956522,0.04991294254207777,0.2861288450377249,0.07486941381311665,0.17005223447475334,0.6343586767266396,0.3157283807312826,0.0783517121300058,0.0481717933836332
225003,-0.4773116427609753,0.4414217136121961,0.4301908514295849,0.6263036785639856,0.5166101694915254,0.6572203389830509,0.31240677966101693,0.3363903985507246,0.8643568840579711,0.4763360507246377,0.04991294254207777,0.2861288450377249,0.07486941381311665,0.17005223447475334,0.6343586767266396,0.3157283807312826,0.0783517121300058,0.0481717933836332
233163,-0.4773116427609753,0.4414217136121961,0.4301908514295849,0.6263036785639856,0.5166101694915254,0.6572203389830509,0.31240677966101693,0.3363903985507246,0.8643568840579711,0.4763360507246377,0.06094022054556007,0.3012188044109112,0.08705745792222867,0.1717933836331979,0.6459663377829368,0.3203714451538015,0.08009286128845038,0.05571677307022635
248884,-0.47676411440699895,0.4279951312536009,0.41005009865397757,0.6491340874047412,0.44664406779661014,0.6332203389830509,0.24908474576271186,0.35382699275362317,0.8318614130434783,0.4360280797101449,0.06094022054556007,0.3012188044109112,0.08705745792222867,0.1717933836331979,0.6459663377829368,0.3203714451538015,0.08009286128845038,0.05571677307022635
249639,-0.47676411440699895,0.4279951312536009,0.41005009865397757,0.6491340874047412,0.44664406779661014,0.6332203389830509,0.24908474576271186,0.35382699275362317,0.8318614130434783,0.4360280797101449,0.08647707486941382,0.3250145095763204,0.12304120719674985,0.1816598955310505,0.677887405687754,0.3517121300058038,0.08821822402785838,0.06790481717933837
271358,-0.47260582958364883,0.41462112880817853,0.3985685221724431,0.6677396068248893,0.2988474576271186,0.608271186440678,0.20854237288135594,0.4145153985507246,0.7550951086956522,0.39288949275362317,0.08647707486941382,0.3250145095763204,0.12304120719674985,0.1816598955310505,0.677887405687754,0.3517121300058038,0.08821822402785838,0.06790481717933837
272118,-0.47260582958364883,0.41462112880817853,0.3985685221724431,0.6677396068248893,0.2988474576271186,0.608271186440678,0.20854237288135594,0.4145153985507246,0.7550951086956522,0.39288949275362317,0.10156703424260012,0.371445153801509,0.13000580383052815,0.1584445734184562,0.6146256529309344,0.3070226349390598,0.0771909460243761,0.06442251886244922
284969,-0.4605231998745802,0.4131585871373139,0.39387093555873637,0.6797676444006892,0.22305084745762713,0.5815593220338983,0.19430508474576272,0.3953804347826087,0.6288496376811594,0.36843297101449274,0.10156703424260012,0.371445153801509,0.13000580383052815,0.1584445734184562,0.6146256529309344,0.3070226349390598,0.0771909460243761,0.06442251886244922
293155,-0.4605231998745802,0.4131585871373139,0.39387093555873637,0.6797676444006892,0.22305084745762713,0.5815593220338983,0.19430508474576272,0.3953804347826087,0.6288496376811594,0.36843297101449274,0.10272780034822983,0.4109112013929193,0.12594312246082415,0.14625652930934416,0.4915844457341846,0.2948345908299478,0.0742890307603018,0.06094022054556007
308848,-0.4452775799129582,0.4205568917889351,0.3853985797903246,0.6901649891810581,0.19620338983050847,0.5421016949152543,0.2898983050847458,0.3235960144927536,0.5006793478260869,0.42312047101449274,0.10272780034822983,0.4109112013929193,0.12594312246082415,0.14625652930934416,0.4915844457341846,0.2948345908299478,0.0742890307603018,0.06094022054556007
309667,-0.4452775799129582,0.4205568917889351,0.3853985797903246,0.6901649891810581,0.19620338983050847,0.5421016949152543,0.2898983050847458,0.3235960144927536,0.5006793478260869,0.42312047101449274,0.10214741729541497,0.4074289030760302,0.12188044109112015,0.12594312246082415,0.3708647707486941,0.1926871735345328,0.05165409170052235,0.05977945443993035
331346,-0.4472761332246275,0.4331766808808927,0.3769009446864185,0.6857460912634675,0.30345762711864405,0.4835254237288136,0.3791186440677966,0.4564085144927536,0.4661458333333333,0.5748414855072463,0.10214741729541497,0.4074289030760302,0.12188044109112015,0.12594312246082415,0.3708647707486941,0.1926871735345328,0.05165409170052235,0.05977945443993035
332119,-0.4472761332246275,0.4331766808808927,0.3769009446864185,0.6857460912634675,0.30345762711864405,0.4835254237288136,0.3791186440677966,0.4564085144927536,0.4661458333333333,0.5748414855072463,0.1004062681369704,0.4196169471851422,0.118398142774231,0.13929193267556586,0.3528728961114335,0.22054556006964596,0.05513639001741149,0.05571677307022635
345024,-0.44784097824051133,0.44210333997492485,0.38448280249924777,0.6753932703054734,0.4455593220338983,0.6372881355932203,0.3208135593220339,0.5778985507246377,0.4288949275362319,0.5639719202898551,0.1004062681369704,0.4196169471851422,0.118398142774231,0.13929193267556586,0.3528728961114335,0.22054556006964596,0.05513639001741149,0.05571677307022635
353099,-0.44784097824051133,0.44210333997492485,0.38448280249924777,0.6753932703054734,0.4455593220338983,0.6372881355932203,0.3208135593220339,0.5778985507246377,0.4288949275362319,0.5639719202898551,0.08473592571096925,0.3923389437028439,0.08415554265815438,0.1294254207777133,0.2623331398723157,0.359257109692397,0.0713871154962275,0.05165409170052235
368800,-0.4420825411718725,0.4375658895017471,0.39911331447230075,0.6736524930158715,0.5087457627118644,0.8355254237288136,0.4036610169491525,0.6045063405797102,0.4741847826086957,0.4711277173913043,0.08473592571096925,0.3923389437028439,0.08415554265815438,0.1294254207777133,0.2623331398723157,0.359257109692397,0.0713871154962275,0.05165409170052235
369614,-0.4420825411718725,0.4375658895017471,0.39911331447230075,0.6736524930158715,0.5087457627118644,0.8355254237288136,0.4036610169491525,0.6045063405797102,0.4741847826086957,0.4711277173913043,0.08473592571096925,0.3499709808473593,0.07370864770748695,0.16540917005223446,0.2188044109112014,0.4439930354033662,0.09402205455600697,0.062100986651189787
391352,-0.4413073401164056,0.43337235336465835,0.4147556536778667,0.6673934241815739,0.4094915254237288,0.6253559322033898,0.40732203389830507,0.6819519927536232,0.4495018115942029,0.43500905797101447,0.08473592571096925,0.3499709808473593,0.07370864770748695,0.16540917005223446,0.2188044109112014,0.4439930354033662,0.09402205455600697,0.062100986651189787
392143,-0.4413073401164056,0.43337235336465835,0.4147556536778667,0.6673934241815739,0.4094915254237288,0.6253559322033898,0.40732203389830507,0.6819519927536232,0.4495018115942029,0.43500905797101447,0.0975043528728961,0.26523505513639,0.06964596633778293,0.21125943122460825,0.2954149738827626,0.559489262913523,0.13580963435867674,0.06906558328496808
405000,-0.4473445602657507,0.42860601749025806,0.41462840740691015,0.666530576900259,0.6593898305084746,0.616271186440678,0.3823728813559322,0.5823143115942029,0.6259057971014492,0.5020380434782609,0.0975043528728961,0.26523505513639,0.06964596633778293,0.21125943122460825,0.2954149738827626,0.559489262913523,0.13580963435867674,0.06906558328496808
413088,-0.4473445602657507,0.42860601749025806,0.41462840740691015,0.666530576900259,0.6593898305084746,0.616271186440678,0.3823728813559322,0.5823143115942029,0.6259057971014492,0.5020380434782609,0.1044689495066744,0.3180499129425421,0.0673244341265235,0.2547881601857226,0.3453279164248404,0.6094022054556006,0.1433546140452699,0.0713871154962275
428815,-0.46479485019010824,0.42927146177111375,0.3957012493476654,0.6656667939820513,0.5330169491525424,0.5490169491525424,0.464135593220339,0.4757699275362319,0.6782155797101449,0.7215806159420289,0.1044689495066744,0.3180499129425421,0.0673244341265235,0.2547881601857226,0.3453279164248404,0.6094022054556006,0.1433546140452699,0.0713871154962275
429611,-0.46479485019010824,0.42927146177111375,0.3957012493476654,0.6656667939820513,0.5330169491525424,0.5490169491525424,0.464135593220339,0.4757699275362319,0.6782155797101449,0.7215806159420289,0.16598955310504934,0.4190365641323273,0.07196749854904237,0.2890307603017992,0.3824724318049913,0.6952988972721996,0.1485780615206036,0.0824143934997098
451350,-0.4907404143112244,0.4414222234202456,0.3614632753172974,0.6585321305974875,0.25505084745762713,0.38413559322033897,0.19416949152542373,0.38122735507246375,0.6989356884057971,0.9145153985507246,0.16598955310504934,0.4190365641323273,0.07196749854904237,0.2890307603017992,0.3824724318049913,0.6952988972721996,0.1485780615206036,0.0824143934997098
452144,-0.4907404143112244,0.4414222234202456,0.3614632753172974,0.6585321305974875,0.25505084745762713,0.38413559322033897,0.19416949152542373,0.38122735507246375,0.6989356884057971,0.9145153985507246,0.3105049332559489,0.5014509576320372,0.1926871735345328,0.3441671503192107,0.4167150319210679,0.710388856645386,0.16192687173534534,0.09053975623911782
465029,-0.517170532632057,0.45247080826170644,0.33448536749954827,0.6449219695255889,0.4732203389830508,0.9002033898305085,0.025220338983050847,0.4550498188405797,0.6229619565217391,0.9393115942028986,0.3105049332559489,0.5014509576320372,0.1926871735345328,0.3441671503192107,0.4167150319210679,0.710388856645386,0.16192687173534534,0.09053975623911782
473116,-0.517170532632057,0.45247080826170644,0.33448536749954827,0.6449219695255889,0.4732203389830508,0.9002033898305085,0.025220338983050847,0.4550498188405797,0.6229619565217391,0.9393115942028986,0.4027858386535113,0.5443993035403366,0.4631456761462565,0.3563551944283227,0.4178757980266976,0.693557748113755,0.1584445734184562,0.1363900174114916
488819,-0.5133125347803563,0.4226741145486287,0.33911586721042325,0.6654752160178626,1,0.8927457627118645,0.39077966101694916,0.6255661231884058,0.7819293478260869,0.26245471014492755,0.4027858386535113,0.5443993035403366,0.4631456761462565,0.3563551944283227,0.4178757980266976,0.693557748113755,0.1584445734184562,0.1363900174114916
489636,-0.5133125347803563,0.4226741145486287,0.33911586721042325,0.6654752160178626,1,0.8927457627118645,0.39077966101694916,0.6255661231884058,0.7819293478260869,0.26245471014492755,0.4828786999419617,0.6192687173534532,0.5037724898432966,0.4892629135229251,0.4265815438189205,0.6999419616947186,0.1485780615206036,0.3273360417875798
511360,-0.4771900801775944,0.39930640886695096,0.3334470974686874,0.7082775249911493,0.0832542372881356,0.744,0.1608135593220339,0.2930253623188406,0.7922327898550725,0,0.4828786999419617,0.6192687173534532,0.5037724898432966,0.4892629135229251,0.4265815438189205,0.6999419616947186,0.1485780615206036,0.3273360417875798
512094,-0.4771900801775944,0.39930640886695096,0.3334470974686874,0.7082775249911493,0.0832542372881356,0.744,0.1608135593220339,0.2930253623188406,0.7922327898550725,0,0.5002901915264074,0.6511897852582704,0.5147997678467788,0.5844457341845618,0.4822983168891468,0.8189204875217644,0.1955890887986071,0.4283226929773651
524987,-0.4418390941034202,0.399052907480061,0.32104898949910077,0.7365205620314922,0.04528813559322034,0.6389152542372881,0.3334237288135593,0.18851902173913043,0.5776721014492754,0.17730978260869565,0.5002901915264074,0.6511897852582704,0.5147997678467788,0.5844457341845618,0.4822983168891468,0.8189204875217644,0.1955890887986071,0.4283226929773651
533123,-0.4418390941034202,0.399052907480061,0.32104898949910077,0.7365205620314922,0.04528813559322034,0.6389152542372881,0.3334237288135593,0.18851902173913043,0.5776721014492754,0.17730978260869565,0.6616366802089378,0.6662797446314568,0.5275681950087058,0.6186883343006384,0.5252466627974464,0.8444573418456182,0.2269297736506094,0.4381892048752176
548867,-0.4224523782257602,0.4246497898160112,0.33333513039891294,0.728075706903174,0.01247457627118644,0.43796610169491523,0.2063728813559322,0.45606884057971014,0.17923460144927536,0.4313858695652174,0.6616366802089378,0.6662797446314568,0.5275681950087058,0.6186883343006384,0.5252466627974464,0.8444573418456182,0.2269297736506094,0.4381892048752176
549696,-0.4224523782257602,0.4246497898160112,0.33333513039891294,0.728075706903174,0.01247457627118644,0.43796610169491523,0.2063728813559322,0.45606884057971014,0.17923460144927536,0.4313858695652174,0.7405687753917586,0.665699361578642,0.5124782356355194,0.6273940800928612,0.5171213000580384,0.8427161926871736,0.4643064422518862,0.4434126523505514
571373,-0.42584239778971017,0.45556652674536285,0.3356934481644555,0.7059938390760466,0.42738983050847457,0.015186440677966102,0.28596610169491526,0.4973958333333333,0.19418025362318841,0.7429800724637681,0.7405687753917586,0.665699361578642,0.5124782356355194,0.6273940800928612,0.5171213000580384,0.8427161926871736,0.4643064422518862,0.4434126523505514
572119,-0.42584239778971017,0.45556652674536285,0.3356934481644555,0.7059938390760466,0.42738983050847457,0.015186440677966102,0.28596610169491526,0.4973958333333333,0.19418025362318841,0.7429800724637681,0.7492745211839814,0.7782936738247244,0.3499709808473593,0.7597214161346488,0.6598955310504934,0.9013348810214742,0.6291352292513058,0.4904236796285548
584964,-0.43735040556303667,0.46915215871004884,0.33242293212788526,0.6914592315726559,0.8536949152542372,0.5368135593220339,0.43633898305084745,0.544723731884058,0.4100996376811594,0.7356204710144928,0.7492745211839814,0.7782936738247244,0.3499709808473593,0.7597214161346488,0.6598955310504934,0.9013348810214742,0.6291352292513058,0.4904236796285548
593183,-0.43735040556303667,0.46915215871004884,0.33242293212788526,0.6914592315726559,0.8536949152542372,0.5368135593220339,0.43633898305084745,0.544723731884058,0.4100996376811594,0.7356204710144928,0.7707486941381312,0.8096343586767266,0.4062681369704005,0.8113755078351712,0.8258850841555426,0.9744631456761462,0.7899013348810214,0.6146256529309344
608877,-0.44209488948949544,0.42946011907332454,0.37281728358440397,0.6936305845863076,0.5387118644067797,0.9614915254237288,0.47959322033898305,1,0.6520606884057971,0.2424139492753623,0.7707486941381312,0.8096343586767266,0.4062681369704005,0.8113755078351712,0.8258850841555426,0.9744631456761462,0.7899013348810214,0.6146256529309344
609640,-0.44209488948949544,0.42946011907332454,0.37281728358440397,0.6936305845863076,0.5387118644067797,0.9614915254237288,0.47959322033898305,1,0.6520606884057971,0.2424139492753623,0.816598955310505,0.812536273940801,0.4306442251886245,0.869413813116657,0.8717353453279164,0.9692396982008126,0.8769587928032502,0.5867672663958212
631382,-0.44948506272774047,0.41591407080755344,0.3809392010434313,0.6927221587312773,0.32216949152542373,0.7940338983050848,0.42630508474576273,0.6606657608695652,0.5988451086956522,0.5492527173913043,0.816598955310505,0.812536273940801,0.4306442251886245,0.869413813116657,0.8717353453279164,0.9692396982008126,0.8769587928032502,0.5867672663958212
632142,-0.44948506272774047,0.41591407080755344,0.3809392010434313,0.6927221587312773,0.32216949152542373,0.7940338983050848,0.42630508474576273,0.6606657608695652,0.5988451086956522,0.5492527173913043,0.698200812536274,0.7869994196169472,0.4219384793964016,0.8636099825885084,0.8607080673244342,0.975623911781776,0.8874056877539176,0.5954730121880442
645026,-0.46137876717180965,0.43275240894934913,0.35377051654025776,0.6889857816953813,0.33979661016949153,0.46616949152542375,0.33640677966101695,0.3226902173913043,0.5683876811594203,0.7926856884057971,0.698200812536274,0.7869994196169472,0.4219384793964016,0.8636099825885084,0.8607080673244342,0.975623911781776,0.8874056877539176,0.5954730121880442
653127,-0.46137876717180965,0.43275240894934913,0.35377051654025776,0.6889857816953813,0.33979661016949153,0.46616949152542375,0.33640677966101695,0.3226902173913043,0.5683876811594203,0.7926856884057971,0.6865931514799768,0.8015089959373186,0.4045269878119559,0.83633197910621,0.8740568775391758,1,0.787579802669762,0.5925710969239698
670194,-0.4728645243931471,0.44997512247660776,0.32362562389731064,0.6849729821530781,0.336135593220339,0.5694915254237288,0.2208813559322034,0.29347826086956524,0.5896739130434783,0.8174818840579711,0.6865931514799768,0.8015089959373186,0.4045269878119559,0.83633197910621,0.8740568775391758,1,0.787579802669762,0.5925710969239698
670202,-0.4728645243931471,0.44997512247660776,0.32362562389731064,0.6849729821530781,0.336135593220339,0.5694915254237288,0.2208813559322034,0.29347826086956524,0.5896739130434783,0.8174818840579711,0.6552524666279744,0.7045850261172374,0.3644805571677307,0.7353453279164248,0.763203714451538,0.9437028438769588,0.6627974463145676,0.5449796865931514
691388,-0.48762524330702045,0.4486835853736272,0.3091528172925346,0.682150421729786,0.5543050847457627,0.7323389830508474,0.11159322033898306,0.5001132246376812,0.6826313405797102,0.71875,0.6552524666279744,0.7045850261172374,0.3644805571677307,0.7353453279164248,0.763203714451538,0.9437028438769588,0.6627974463145676,0.5449796865931514
692053,-0.48762524330702045,0.4486835853736272,0.3091528172925346,0.682150421729786,0.5543050847457627,0.7323389830508474,0.11159322033898306,0.5001132246376812,0.6826313405797102,0.71875,0.6302959953569356,0.7370864770748694,0.248984329657574,0.6517701683110854,0.5420777713290772,0.8676726639582124,0.4585026117237377,0.3134068485200232
704980,-0.47053973039545177,0.4317807825680926,0.31818959846302897,0.7006519088350488,0.7560677966101695,0.7372203389830508,0.39728813559322035,0.5345335144927537,0.6295289855072463,0.2128623188405797,0.6302959953569356,0.7370864770748694,0.248984329657574,0.6517701683110854,0.5420777713290772,0.8676726639582124,0.4585026117237377,0.3134068485200232
713128,-0.47053973039545177,0.4317807825680926,0.31818959846302897,0.7006519088350488,0.7560677966101695,0.7372203389830508,0.39728813559322035,0.5345335144927537,0.6295289855072463,0.2128623188405797,0.6459663377829368,0.73476494486361,0.2576900754497969,0.4741729541497388,0.3726059199071387,0.7597214161346488,0.236796285548462,0.4480557167730702
728203,-0.44049423270269394,0.40899984111691173,0.33496360663328034,0.7255917193251525,0,0.7209491525423729,0.21369491525423728,0.5340806159420289,0.6260190217391305,0.043704710144927536,0.6459663377829368,0.73476494486361,0.2576900754497969,0.4741729541497388,0.3726059199071387,0.7597214161346488,0.236796285548462,0.4480557167730702
728966,-0.44049423270269394,0.40899984111691173,0.33496360663328034,0.7255917193251525,0,0.7209491525423729,0.21369491525423728,0.5340806159420289,0.6260190217391305,0.043704710144927536,0.6337782936738248,0.7289611143354614,0.2663958212420197,0.46952988972722,0.3569355774811376,0.7463726059199072,0.16308763784097505,0.46952988972722
751394,-0.41211966678009243,0.4144390606393406,0.33954705365782795,0.7369568804358466,0.08257627118644068,0.6505762711864407,0.36054237288135593,0.37318840579710144,0.40613677536231885,0.26052989130434784,0.6337782936738248,0.7289611143354614,0.2663958212420197,0.46952988972722,0.3569355774811376,0.7463726059199072,0.16308763784097505,0.46952988972722
752160,-0.41211966678009243,0.4144390606393406,0.33954705365782795,0.7369568804358466,0.08257627118644068,0.6505762711864407,0.36054237288135593,0.37318840579710144,0.40613677536231885,0.26052989130434784,0.6320371445153802,0.7260591990713872,0.2756819500870575,0.5502031340684852,0.4196169471851422,0.7312826465467208,0.248984329657574,0.4846198491004063
765010,-0.4050533433227028,0.44143245613468757,0.33894834470629426,0.7253848601638035,0.2809491525423729,0.3130847457627119,0.2664406779661017,0.427536231884058,0.258491847826087,0.5827672101449275,0.6320371445153802,0.7260591990713872,0.2756819500870575,0.5502031340684852,0.4196169471851422,0.7312826465467208,0.248984329657574,0.4846198491004063
773124,-0.4050533433227028,0.44143245613468757,0.33894834470629426,0.7253848601638035,0.2809491525423729,0.3130847457627119,0.2664406779661017,0.427536231884058,0.258491847826087,0.5827672101449275,0.7515960533952408,0.7585606500290192,0.2687173534532792,0.5478816018572258,0.4764944863609983,0.8514219384793964,0.2617527568195009,0.48984329657574
787501,-0.4168856841760675,0.4655935576713093,0.33363062221176937,0.7057758661973452,0.5856271186440678,0.2128813559322034,0.3673220338983051,0.5055480072463768,0.31589673913043476,0.8053668478260869,0.7515960533952408,0.7585606500290192,0.2687173534532792,0.5478816018572258,0.4764944863609983,0.8514219384793964,0.2617527568195009,0.48984329657574
795578,-0.4168856841760675,0.4655935576713093,0.33363062221176937,0.7057758661973452,0.5856271186440678,0.2128813559322034,0.3673220338983051,0.5055480072463768,0.31589673913043476,0.8053668478260869,0.7771329077190946,0.7219965177016832,0.253047011027278,0.6581543818920488,0.6273940800928612,0.893789901334881,0.4492164828786999,0.5351131746952988
811377,-0.4307968412624666,0.46076584793005954,0.34821422207457803,0.6934376471497425,0.7076610169491525,0.6901694915254237,0.37166101694915255,0.7595108695652174,0.501358695652174,0.5936367753623188,0.7771329077190946,0.7219965177016832,0.253047011027278,0.6581543818920488,0.6273940800928612,0.893789901334881,0.4492164828786999,0.5351131746952988
812043,-0.4307968412624666,0.46076584793005954,0.34821422207457803,0.6934376471497425,0.7076610169491525,0.6901694915254237,0.37166101694915255,0.7595108695652174,0.501358695652174,0.5936367753623188,0.7324434126523506,0.7109692396982008,0.1868833430063842,0.6749854904236796,0.6831108531630876,0.9378990133488102,0.4602437608821822,0.4103308183401045
824951,-0.4426987773578352,0.44196633763243964,0.3679899253674877,0.6879440120777831,0.4302372881355932,0.776,0.40379661016949153,0.8225769927536232,0.5908061594202898,0.4835824275362319,0.7324434126523506,0.7109692396982008,0.1868833430063842,0.6749854904236796,0.6831108531630876,0.9378990133488102,0.4602437608821822,0.4103308183401045
833138,-0.4426987773578352,0.44196633763243964,0.3679899253674877,0.6879440120777831,0.4302372881355932,0.776,0.40379661016949153,0.8225769927536232,0.5908061594202898,0.4835824275362319,0.7330237957051654,0.7748113755078352,0.15206035983749275,0.709808473592571,0.681369704004643,0.8804410911201392,0.4973882762623331,0.3644805571677307
847454,-0.4553306366404425,0.4380573698617233,0.37164989899512796,0.6801882861556423,0.3105084745762712,0.6913898305084746,0.37898305084745765,0.6479846014492754,0.5535552536231884,0.6376811594202898,0.7330237957051654,0.7748113755078352,0.15206035983749275,0.709808473592571,0.681369704004643,0.8804410911201392,0.4973882762623331,0.3644805571677307
855623,-0.4553306366404425,0.4380573698617233,0.37164989899512796,0.6801882861556423,0.3105084745762712,0.6913898305084746,0.37898305084745765,0.6479846014492754,0.5535552536231884,0.6376811594202898,0.6198491004062682,0.8113755078351712,0.126523505513639,0.6616366802089378,0.6337782936738248,0.8456181079512478,0.4666279744631457,0.3459082994776553
871361,-0.4717606050528292,0.444720891242711,0.36885099447978353,0.6660436954763194,0.3077966101694915,0.6024406779661017,0.38684745762711864,0.6031476449275363,0.489356884057971,0.7417346014492754,0.6198491004062682,0.8113755078351712,0.126523505513639,0.6616366802089378,0.6337782936738248,0.8456181079512478,0.4666279744631457,0.3459082994776553
872119,-0.4717606050528292,0.444720891242711,0.36885099447978353,0.6660436954763194,0.3077966101694915,0.6024406779661017,0.38684745762711864,0.6031476449275363,0.489356884057971,0.7417346014492754,0.4323853743470691,0.8142774230992456,0.1253627394080093,0.6378409750435288,0.5954730121880442,0.7370864770748694,0.4585026117237377,0.338943702843877
885068,-0.4874321499384018,0.45081065107000196,0.3565713273153197,0.6572948688563296,0.424,0.5585084745762712,0.13979661016949152,0.5164175724637681,0.5929574275362319,0.7473958333333334,0.4323853743470691,0.8142774230992456,0.1253627394080093,0.6378409750435288,0.5954730121880442,0.7370864770748694,0.4585026117237377,0.338943702843877
893118,-0.4874321499384018,0.45081065107000196,0.3565713273153197,0.6572948688563296,0.424,0.5585084745762712,0.13979661016949152,0.5164175724637681,0.5929574275362319,0.7473958333333334,0.3064422518862449,0.77539175856065,0.11897852582704585,0.4347069065583285,0.4260011607661056,0.6117237376668602,0.273360417875798,0.20139291932675565
907547,-0.47976711486918094,0.45498525117492045,0.3593370235667771,0.6585505600920601,0.45871186440677963,0.8759322033898305,0.1712542372881356,0.43999094202898553,0.576766304347826,0.5721240942028986,0.3064422518862449,0.77539175856065,0.11897852582704585,0.4347069065583285,0.4260011607661056,0.6117237376668602,0.273360417875798,0.20139291932675565
915598,-0.47976711486918094,0.45498525117492045,0.3593370235667771,0.6585505600920601,0.45871186440677963,0.8759322033898305,0.1712542372881356,0.43999094202898553,0.576766304347826,0.5721240942028986,0.2751015670342426,0.7690075449796866,0.09808473592571097,0.3987231572838073,0.3197910621009867,0.5455600696459664,0.23969820081253626,0.11723737666860128
931353,-0.4672482303849687,0.4471055894931281,0.3611026167155421,0.6718486312014827,0.6831186440677967,0.6665762711864407,0.3046779661016949,0.4647871376811594,0.6085824275362319,0.3348052536231884,0.2751015670342426,0.7690075449796866,0.09808473592571097,0.3987231572838073,0.3197910621009867,0.5455600696459664,0.23969820081253626,0.11723737666860128
932118,-0.4672482303849687,0.4471055894931281,0.3611026167155421,0.6718486312014827,0.6831186440677967,0.6665762711864407,0.3046779661016949,0.4647871376811594,0.6085824275362319,0.3348052536231884,0.2901915264074289,0.7127103888566454,0.10214741729541497,0.2820661636680209,0.2588508415554266,0.563551944283227,0.1497388276262333,0.11897852582704585
944975,-0.44503254867943415,0.4411871158764161,0.3662927341414462,0.6878441628128574,0.38061016949152543,0.6264406779661017,0.30250847457627117,0.4260643115942029,0.5434782608695652,0.24173460144927536,0.2901915264074289,0.7127103888566454,0.10214741729541497,0.2820661636680209,0.2588508415554266,0.563551944283227,0.1497388276262333,0.11897852582704585
953071,-0.44503254867943415,0.4411871158764161,0.3662927341414462,0.6878441628128574,0.38061016949152543,0.6264406779661017,0.30250847457627117,0.4260643115942029,0.5434782608695652,0.24173460144927536,0.3453279164248404,0.6906558328496808,0.10621009866511898,0.2640742890307603,0.18514219384793965,0.5188624492164828,0.11897852582704585,0.10098665118978525
967480,-0.4245741675760312,0.4375140358230293,0.3755003276204347,0.6980814770797972,0.27959322033898304,0.5312542372881356,0.3403389830508475,0.4780344202898551,0.4801856884057971,0.2616621376811594,0.3453279164248404,0.6906558328496808,0.10621009866511898,0.2640742890307603,0.18514219384793965,0.5188624492164828,0.11897852582704585,0.10098665118978525
975566,-0.4245741675760312,0.4375140358230293,0.3755003276204347,0.6980814770797972,0.27959322033898304,0.5312542372881356,0.3403389830508475,0.4780344202898551,0.4801856884057971,0.2616621376811594,0.4701102727800348,0.6343586767266396,0.09053975623911782,0.2460824143934997,0.16134648868253046,0.4683691236215902,0.1154962275101567,0.09576320371445154
989949,-0.4174308431593806,0.4523439068071604,0.37147011426641185,0.6950873580785242,0.40515254237288134,0.48135593220338985,0.29138983050847456,0.4283288043478261,0.4472373188405797,0.4805253623188406,0.4701102727800348,0.6343586767266396,0.09053975623911782,0.2460824143934997,0.16134648868253046,0.4683691236215902,0.1154962275101567,0.09576320371445154
