Timestamp, Orientation x, Orientation y, Orientation z, Orientation w, Acceleration x, Acceleration y, Acceleration z, Rotation x, Rotation y, Rotation z, EMG 0, EMG 1, EMG 2, EMG 3, EMG 4, EMG 5, EMG 6, EMG 7
0,-0.1929404598648887,0.6269191595293488,0.7341625597136606,-0.17536157582784725,0.4882783636730033,0.5305299926110029,0.2588164170081279,0.476320939334638,0.4164942689404529,0.5816046966731898,0,0,0,0,0,0,0,0
7438,-0.1817747248450741,0.6383479088078525,0.7246573315516184,-0.18531499819665712,0.48115805736548667,0.5352992543830187,0.2596224894202996,0.4824154319261951,0.41453732177802627,0.5803187028235952,0,0,0,0,0,0,0,0
22468,-0.17035099636750295,0.650275713113356,0.7144243684993272,-0.19421600517427245,0.47665748639752803,0.5393296164438772,0.2572042721837845,0.47805423539278724,0.4175006989097009,0.5838971204920325,0,0,0,0,0,0,0,0
37450,-0.15845447557790912,0.6628719586964918,0.7034011465946935,-0.20179140842086576,0.4683952441727682,0.5400013434540203,0.2569355813797273,0.47190383002516073,0.42169415711490077,0.588202404249371,0,0,0,0,0,0,0,0
59915,-0.1464269316194818,0.6756757536588843,0.6916063202085654,-0.2090505380561589,0.4561026398871499,0.5385235440317055,0.25659971787465574,0.47056192339949676,0.423595191501258,0.5909421302767682,0,0,0,0,0,0,0,0
68091,-0.1464269316194818,0.6756757536588843,0.6916063202085654,-0.2090505380561589,0.4561026398871499,0.5385235440317055,0.25659971787465574,0.47056192339949676,0.423595191501258,0.5909421302767682,0.08253358925143954,0.03326935380678183,0.03134996801023673,0.16634676903390916,0.08317338451695458,0.0690978886756238,0.16826615483045426,0.07037747920665387
82418,-0.13464466596576746,0.6886043161494961,0.6788996462090805,-0.2163103790492656,0.449586887888762,0.5397326526499631,0.25760730838987034,0.4723511322337154,0.42510483645513,0.5940732457366509,0.08253358925143954,0.03326935380678183,0.03134996801023673,0.16634676903390916,0.08317338451695458,0.0690978886756238,0.16826615483045426,0.07037747920665387
90581,-0.13464466596576746,0.6886043161494961,0.6788996462090805,-0.2163103790492656,0.449586887888762,0.5397326526499631,0.25760730838987034,0.4723511322337154,0.42510483645513,0.5940732457366509,0.08445297504798464,0.036468330134357005,0.03134996801023673,0.17338451695457455,0.0818937939859245,0.0671785028790787,0.15035188739603328,0.06589891234804862
97543,-0.12323640699761212,0.701147403259817,0.6658672431584699,-0.22321720673118747,0.4460267347350037,0.5466514408544367,0.2574729629878417,0.4732457366508247,0.42661448140900193,0.5934582051998881,0.08445297504798464,0.036468330134357005,0.03134996801023673,0.17338451695457455,0.0818937939859245,0.0671785028790787,0.15035188739603328,0.06589891234804862
113107,-0.12323640699761212,0.701147403259817,0.6658672431584699,-0.22321720673118747,0.4460267347350037,0.5466514408544367,0.2574729629878417,0.4732457366508247,0.42661448140900193,0.5934582051998881,0.07741522712731926,0.035188739603326934,0.030070377479206652,0.20409468969929623,0.08125399872040946,0.060140754958413305,0.1509916826615483,0.06589891234804862
120025,-0.11096642973445049,0.7133469000585935,0.6531027492621674,-0.22864699988187653,0.4407200913548734,0.5504802848122523,0.25512191845234095,0.4655297735532569,0.42840369024322056,0.5911657813810456,0.07741522712731926,0.035188739603326934,0.030070377479206652,0.20409468969929623,0.08125399872040946,0.060140754958413305,0.1509916826615483,0.06589891234804862
128217,-0.11096642973445049,0.7133469000585935,0.6531027492621674,-0.22864699988187653,0.4407200913548734,0.5504802848122523,0.25512191845234095,0.4655297735532569,0.42840369024322056,0.5911657813810456,0.06781829814459372,0.0345489443378119,0.03134996801023673,0.236084452975048,0.08509277031349968,0.061420345489443376,0.12156110044785669,0.060140754958413305
142465,-0.09815073891650895,0.7249604018105578,0.6406044806770905,-0.23329112197692614,0.43514475717068585,0.5497413851010949,0.25646537247262713,0.46032988537880903,0.42818003913894326,0.5879228403690243,0.06781829814459372,0.0345489443378119,0.03134996801023673,0.236084452975048,0.08509277031349968,0.061420345489443376,0.12156110044785669,0.060140754958413305
150561,-0.09815073891650895,0.7249604018105578,0.6406044806770905,-0.23329112197692614,0.43514475717068585,0.5497413851010949,0.25646537247262713,0.46032988537880903,0.42818003913894326,0.5879228403690243,0.06397952655150352,0.03198976327575176,0.030710172744721688,0.2309660908509277,0.08061420345489444,0.053103007037747924,0.10044785668586052,0.045425463851567496
157539,-0.08630389773331154,0.7357804011139113,0.6281751877448672,-0.23785451871762026,0.4318532948209848,0.5527641566467387,0.25935379861624236,0.4634050880626223,0.43052837573385516,0.5840648588202404,0.06397952655150352,0.03198976327575176,0.030710172744721688,0.2309660908509277,0.08061420345489444,0.053103007037747924,0.10044785668586052,0.045425463851567496
173066,-0.08630389773331154,0.7357804011139113,0.6281751877448672,-0.23785451871762026,0.4318532948209848,0.5527641566467387,0.25935379861624236,0.4634050880626223,0.43052837573385516,0.5840648588202404,0.0818937939859245,0.03262955854126679,0.02943058221369162,0.23352527191298783,0.08637236084452975,0.04158669225847729,0.07357645553422905,0.05438259756877799
180027,-0.07519737584095683,0.7461142226297535,0.6156785146978341,-0.24207207190359967,0.4297037683885269,0.5592127359441124,0.26029421643044265,0.4658652502096729,0.4332121889851831,0.5813251327928431,0.0818937939859245,0.03262955854126679,0.02943058221369162,0.23352527191298783,0.08637236084452975,0.04158669225847729,0.07357645553422905,0.05438259756877799
188063,-0.07519737584095683,0.7461142226297535,0.6156785146978341,-0.24207207190359967,0.4297037683885269,0.5592127359441124,0.26029421643044265,0.4658652502096729,0.4332121889851831,0.5813251327928431,0.10492642354446577,0.0345489443378119,0.028790786948176585,0.2328854766474728,0.09788867562380038,0.03966730646193218,0.07165706973768395,0.06269993602047345
202445,-0.06427230783321264,0.7558862869957316,0.6037202248606897,-0.24500384011634904,0.4315846040169275,0.5638476523140995,0.26076442533754285,0.46206318143695835,0.437070170533967,0.5769080234833659,0.10492642354446577,0.0345489443378119,0.028790786948176585,0.2328854766474728,0.09788867562380038,0.03966730646193218,0.07165706973768395,0.06269993602047345
210565,-0.06427230783321264,0.7558862869957316,0.6037202248606897,-0.24500384011634904,0.4315846040169275,0.5638476523140995,0.26076442533754285,0.46206318143695835,0.437070170533967,0.5769080234833659,0.10684580934101087,0.037747920665387076,0.035188739603326934,0.20473448496481125,0.09980806142034548,0.04286628278950736,0.061420345489443376,0.061420345489443376
217517,-0.053224396153204866,0.7653448433085273,0.5921214072044041,-0.24659009226943537,0.4314502586148989,0.5668032511587291,0.2615704977497145,0.45714285714285713,0.44092815208275093,0.5740005591277607,0.10684580934101087,0.037747920665387076,0.035188739603326934,0.20473448496481125,0.09980806142034548,0.04286628278950736,0.061420345489443376,0.061420345489443376
233045,-0.053224396153204866,0.7653448433085273,0.5921214072044041,-0.24659009226943537,0.4314502586148989,0.5668032511587291,0.2615704977497145,0.45714285714285713,0.44092815208275093,0.5740005591277607,0.12028150991682661,0.04222648752399232,0.044785668586052464,0.18106206014075496,0.14395393474088292,0.05118362124120281,0.06653870761356366,0.0690978886756238
239996,-0.04760879773864584,0.7744364432153057,0.583573993819478,-0.23963094861785075,0.43373413044938536,0.5667360784577148,0.2631154698730436,0.4558568632932625,0.44327648867766284,0.5681297176404808,0.12028150991682661,0.04222648752399232,0.044785668586052464,0.18106206014075496,0.14395393474088292,0.05118362124120281,0.06653870761356366,0.0690978886756238
248103,-0.04760879773864584,0.7744364432153057,0.583573993819478,-0.23963094861785075,0.43373413044938536,0.5667360784577148,0.2631154698730436,0.4558568632932625,0.44327648867766284,0.5681297176404808,0.13051823416506717,0.04862444017914268,0.05886116442738324,0.21305182341650672,0.17978246960972488,0.061420345489443376,0.0690978886756238,0.07485604606525911
262432,-0.043397815721691095,0.7826866258779817,0.5759518834738075,-0.2319433189063659,0.4390407738295157,0.5714381675287163,0.26304829717202927,0.4580933743360358,0.4469108191221694,0.5591836734693878,0.13051823416506717,0.04862444017914268,0.05886116442738324,0.21305182341650672,0.17978246960972488,0.061420345489443376,0.0690978886756238,0.07485604606525911
270542,-0.043397815721691095,0.7826866258779817,0.5759518834738075,-0.2319433189063659,0.4390407738295157,0.5714381675287163,0.26304829717202927,0.4580933743360358,0.4469108191221694,0.5591836734693878,0.12412028150991683,0.05118362124120281,0.07293666026871401,0.23544465770953296,0.19641714651311581,0.06973768394113884,0.06845809341010876,0.06973768394113884
277529,-0.03936903696637144,0.7898222299920099,0.5699659956464752,-0.2230912094761048,0.44152616376704507,0.5798347551555048,0.26298112447101496,0.4551859099804305,0.4497623707017053,0.5472183393905508,0.12412028150991683,0.05118362124120281,0.07293666026871401,0.23544465770953296,0.19641714651311581,0.06973768394113884,0.06845809341010876,0.06973768394113884
293043,-0.03936903696637144,0.7898222299920099,0.5699659956464752,-0.2230912094761048,0.44152616376704507,0.5798347551555048,0.26298112447101496,0.4551859099804305,0.4497623707017053,0.5472183393905508,0.13179782469609724,0.0671785028790787,0.10108765195137556,0.255278310940499,0.2143314139475368,0.07357645553422905,0.06781829814459372,0.08125399872040946
300008,-0.035400631830007585,0.7938286510018597,0.5675697851504147,-0.21551660515820134,0.4442802445086317,0.5649224155303285,0.2803788540337207,0.4451216102879508,0.4417668437237909,0.5255800950517193,0.13179782469609724,0.0671785028790787,0.10108765195137556,0.255278310940499,0.2143314139475368,0.07357645553422905,0.06781829814459372,0.08125399872040946
308014,-0.035400631830007585,0.7938286510018597,0.5675697851504147,-0.21551660515820134,0.4442802445086317,0.5649224155303285,0.2803788540337207,0.4451216102879508,0.4417668437237909,0.5255800950517193,0.13755598208573255,0.07421625079974409,0.13563659628918745,0.32053742802303264,0.22136916186820219,0.0710172744721689,0.06845809341010876,0.08125399872040946
322444,-0.03411938441061491,0.7907884515633753,0.5727661955442045,-0.21313933875110422,0.4483106065694902,0.5156176529858265,0.308389870356687,0.4386357282639083,0.4221414593234554,0.47872518870561925,0.13755598208573255,0.07421625079974409,0.13563659628918745,0.32053742802303264,0.22136916186820219,0.0710172744721689,0.06845809341010876,0.08125399872040946
330567,-0.03411938441061491,0.7907884515633753,0.5727661955442045,-0.21313933875110422,0.4483106065694902,0.5156176529858265,0.308389870356687,0.4386357282639083,0.4221414593234554,0.47872518870561925,0.13051823416506717,0.07613563659628919,0.1561100447856686,0.3602047344849648,0.19961612284069097,0.06973768394113884,0.06653870761356366,0.07549584133077415
337512,-0.039003176856850966,0.7771337210350961,0.5893203013347356,-0.21735573206141828,0.4368912473970578,0.483844965406059,0.3310270705985088,0.45663964215823316,0.4089460441710931,0.3987699189264747,0.13051823416506717,0.07613563659628919,0.1561100447856686,0.3602047344849648,0.19961612284069097,0.06973768394113884,0.06653870761356366,0.07549584133077415
353106,-0.039003176856850966,0.7771337210350961,0.5893203013347356,-0.21735573206141828,0.4368912473970578,0.483844965406059,0.3310270705985088,0.45663964215823316,0.4089460441710931,0.3987699189264747,0.13179782469609724,0.07485604606525911,0.16698656429942418,0.4113883557261676,0.17146513115802944,0.060780550223928344,0.06973768394113884,0.0838131797824696
360022,-0.04382403195151994,0.7534315465314235,0.6167713688998732,-0.22363684271639142,0.41969503593739504,0.4616108013703231,0.34835762746020016,0.48012300810735253,0.4279004752585966,0.3024881185350853,0.13179782469609724,0.07485604606525911,0.16698656429942418,0.4113883557261676,0.17146513115802944,0.060780550223928344,0.06973768394113884,0.0838131797824696
368075,-0.04382403195151994,0.7534315465314235,0.6167713688998732,-0.22363684271639142,0.41969503593739504,0.4616108013703231,0.34835762746020016,0.48012300810735253,0.4279004752585966,0.3024881185350853,0.12667946257197696,0.07549584133077415,0.1657069737683941,0.42418426103646834,0.15419065898912349,0.052463211772232884,0.07229686500319897,0.08637236084452975
382418,-0.06518826570528877,0.719939694750825,0.6531034110923126,-0.22559534648571844,0.4229193255860818,0.4072009135487338,0.37388325384563714,0.5167458764327649,0.48532289628180036,0.21839530332681018,0.12667946257197696,0.07549584133077415,0.1657069737683941,0.42418426103646834,0.15419065898912349,0.052463211772232884,0.07229686500319897,0.08637236084452975
390577,-0.06518826570528877,0.719939694750825,0.6531034110923126,-0.22559534648571844,0.4229193255860818,0.4072009135487338,0.37388325384563714,0.5167458764327649,0.48532289628180036,0.21839530332681018,0.11004478566858605,0.07677543186180422,0.16250799744081892,0.4382597568777991,0.1509916826615483,0.04990403071017274,0.0710172744721689,0.08701215611004479
397557,-0.10748584144127239,0.6764710850048961,0.6922796215939304,-0.22711801022315423,0.38772083025458454,0.3632027943843622,0.3372069590918251,0.6107352530053117,0.5530332681017612,0.14050880626223092,0.11004478566858605,0.07677543186180422,0.16250799744081892,0.4382597568777991,0.1509916826615483,0.04990403071017274,0.0710172744721689,0.08701215611004479
413151,-0.10748584144127239,0.6764710850048961,0.6922796215939304,-0.22711801022315423,0.38772083025458454,0.3632027943843622,0.3372069590918251,0.6107352530053117,0.5530332681017612,0.14050880626223092,0.18746001279590532,0.09596928982725528,0.1529110684580934,0.4069097888675624,0.1509916826615483,0.05566218809980806,0.09596928982725528,0.17530390275111965
420068,-0.17432124400186114,0.6224537977349369,0.725789185023155,-0.2353580941425688,0.370793309598979,0.4194935178343521,0.2451803587022234,0.7277606933184233,0.6059267542633492,0.09958065417948,0.18746001279590532,0.09596928982725528,0.1529110684580934,0.4069097888675624,0.1509916826615483,0.05566218809980806,0.09596928982725528,0.17530390275111965
428037,-0.17432124400186114,0.6224537977349369,0.725789185023155,-0.2353580941425688,0.370793309598979,0.4194935178343521,0.2451803587022234,0.7277606933184233,0.6059267542633492,0.09958065417948,0.3000639795265515,0.15930902111324377,0.15163147792706333,0.4069097888675624,0.1836212412028151,0.08573256557901472,0.19065898912348048,0.3160588611644274
442406,-0.2530560240696761,0.5742284308845906,0.7375612626285495,-0.2494548891395963,0.38886276617182775,0.5334184187546182,0.13353932961644388,0.8142018451216103,0.6603298853788091,0.17920044730220855,0.3000639795265515,0.15930902111324377,0.15163147792706333,0.4069097888675624,0.1836212412028151,0.08573256557901472,0.19065898912348048,0.3160588611644274
450597,-0.2530560240696761,0.5742284308845906,0.7375612626285495,-0.2494548891395963,0.38886276617182775,0.5334184187546182,0.13353932961644388,0.8142018451216103,0.6603298853788091,0.17920044730220855,0.4197056941778631,0.23160588611644273,0.1561100447856686,0.3921944977607166,0.22648752399232247,0.21369161868202174,0.4171465131158029,0.32629558541266795
457520,-0.3106147610208881,0.5415768863309766,0.7332315040565786,-0.26941512186012967,0.36353865788943374,0.5911869416269229,0.10781218512796399,0.773720995247414,0.6030192899077439,0.3215543751747274,0.4197056941778631,0.23160588611644273,0.1561100447856686,0.3921944977607166,0.22648752399232247,0.21369161868202174,0.4171465131158029,0.32629558541266795
473134,-0.3106147610208881,0.5415768863309766,0.7332315040565786,-0.26941512186012967,0.36353865788943374,0.5911869416269229,0.10781218512796399,0.773720995247414,0.6030192899077439,0.3215543751747274,0.44081893793985927,0.23736404350607807,0.15355086372360843,0.37939859245041585,0.2418426103646833,0.24120281509916827,0.5886116442738324,0.36788227767114523
480063,-0.3208130864608535,0.5271198277541725,0.7236605694596422,-0.3090938869554342,0.25794317189494187,0.5728487942500168,0.1950695237455498,0.6939334637964775,0.4035225048923679,0.5013698630136987,0.44081893793985927,0.23736404350607807,0.15355086372360843,0.37939859245041585,0.2418426103646833,0.24120281509916827,0.5886116442738324,0.36788227767114523
488049,-0.3208130864608535,0.5271198277541725,0.7236605694596422,-0.3090938869554342,0.25794317189494187,0.5728487942500168,0.1950695237455498,0.6939334637964775,0.4035225048923679,0.5013698630136987,0.44529750479846447,0.23864363403710812,0.1433141394753679,0.39667306461932184,0.24056301983365322,0.26039667306461933,0.7095329494561741,0.5930902111324377
502422,-0.3032326677586222,0.49153234167878107,0.7298214590156693,-0.36579576849384515,0.31396520454087457,0.6556727346006583,0.2512930744945254,0.7148448420464076,0.19921722113502935,0.4501537601341907,0.44529750479846447,0.23864363403710812,0.1433141394753679,0.39667306461932184,0.24056301983365322,0.26039667306461933,0.7095329494561741,0.5930902111324377
510557,-0.3032326677586222,0.49153234167878107,0.7298214590156693,-0.36579576849384515,0.31396520454087457,0.6556727346006583,0.2512930744945254,0.7148448420464076,0.19921722113502935,0.4501537601341907,0.43378119001919385,0.24056301983365322,0.1343570057581574,0.6609085092770314,0.2885476647472809,0.3570057581573896,0.7165706973768394,0.7037747920665387
517577,-0.2678865711005477,0.4873106365155555,0.7414030939071208,-0.3756149370136183,0.9707127023577619,0.9840128971585947,0.2548532276482837,0.412636287391669,0.29734414313670676,0.5164663125524183,0.43378119001919385,0.24056301983365322,0.1343570057581574,0.6609085092770314,0.2885476647472809,0.3570057581573896,0.7165706973768394,0.7037747920665387
533079,-0.2678865711005477,0.4873106365155555,0.7414030939071208,-0.3756149370136183,0.9707127023577619,0.9840128971585947,0.2548532276482837,0.412636287391669,0.29734414313670676,0.5164663125524183,0.3646833013435701,0.20601407549584133,0.12412028150991683,0.6948176583493282,0.4753678822776711,0.44337811900191937,0.6999360204734485,0.7965451055662188
539995,-0.24933676316035566,0.5421930152150403,0.7240837261618848,-0.34577546225297795,0.6670249210720763,0.5005709679586217,0.28239403506414995,0.27783058428850993,0.613978194017333,0.727537042214146,0.3646833013435701,0.20601407549584133,0.12412028150991683,0.6948176583493282,0.4753678822776711,0.44337811900191937,0.6999360204734485,0.7965451055662188
548072,-0.24933676316035566,0.5421930152150403,0.7240837261618848,-0.34577546225297795,0.6670249210720763,0.5005709679586217,0.28239403506414995,0.27783058428850993,0.613978194017333,0.727537042214146,0.22072936660268713,0.12476007677543186,0.14267434420985284,0.691618682021753,0.5540626999360204,0.4152271273192578,0.5943698016634676,0.8458093410108766
562400,-0.2524441250409764,0.6132878550318499,0.6687694095923546,-0.33600215385652205,0.22334923087257338,0.35091019009874386,0.19909988580640828,0.45993849594632374,0.7163544870002796,0.8814090019569472,0.22072936660268713,0.12476007677543186,0.14267434420985284,0.691618682021753,0.5540626999360204,0.4152271273192578,0.5943698016634676,0.8458093410108766
570543,-0.2524441250409764,0.6132878550318499,0.6687694095923546,-0.33600215385652205,0.22334923087257338,0.35091019009874386,0.19909988580640828,0.45993849594632374,0.7163544870002796,0.8814090019569472,0.18042226487523993,0.11388355726167626,0.17978246960972488,0.8227767114523352,0.5668586052463211,0.4094689699296225,0.4305822136916187,0.8822776711452335
577544,-0.18689251413749847,0.6945907285711079,0.619150118684123,-0.3150683076348031,0.346140928326728,0.7533418418754618,0.3250487002082354,0.20156555772994128,0.5253005311713727,1,0.18042226487523993,0.11388355726167626,0.17978246960972488,0.8227767114523352,0.5668586052463211,0.4094689699296225,0.4305822136916187,0.8822776711452335
593048,-0.18689251413749847,0.6945907285711079,0.619150118684123,-0.3150683076348031,0.346140928326728,0.7533418418754618,0.3250487002082354,0.20156555772994128,0.5253005311713727,1,0.17530390275111965,0.10748560460652591,0.2616762635956494,0.8406909788867563,0.6295585412667947,0.4088291746641075,0.18490083173384517,0.8777991042866283
599996,-0.11041627112370914,0.7414797466063121,0.6081134932037114,-0.26117812279621416,0.5148115805736548,0.49748102371196345,0.34473030160542756,0.0031311154598825833,0.4982946603298854,0.7557729941291585,0.17530390275111965,0.10748560460652591,0.2616762635956494,0.8406909788867563,0.6295585412667947,0.4088291746641075,0.18490083173384517,0.8777991042866283
608070,-0.11041627112370914,0.7414797466063121,0.6081134932037114,-0.26117812279621416,0.5148115805736548,0.49748102371196345,0.34473030160542756,0.0031311154598825833,0.4982946603298854,0.7557729941291585,0.12923864363403711,0.09980806142034548,0.30134357005758156,0.6954574536148432,0.7024952015355086,0.3307741522712732,0.13947536788227768,0.8010236724248241
622454,-0.08343838922748267,0.7514338037889826,0.6131836563125757,-0.2288909726430578,0.4802176395512864,0.37227110902129373,0.37515953516490896,0.2640760413754543,0.5291585127201566,0.5096449538719597,0.12923864363403711,0.09980806142034548,0.30134357005758156,0.6954574536148432,0.7024952015355086,0.3307741522712732,0.13947536788227768,0.8010236724248241
630532,-0.08343838922748267,0.7514338037889826,0.6131836563125757,-0.2288909726430578,0.4802176395512864,0.37227110902129373,0.37515953516490896,0.2640760413754543,0.5291585127201566,0.5096449538719597,0.13115802943058222,0.09660908509277032,0.3198976327575176,0.7389635316698656,0.6813819577735125,0.19001919385796545,0.12923864363403711,0.7184900831733845
637529,-0.1149329319654859,0.7151721528622402,0.6512052316196331,-0.2263867470313262,0.23409686303486263,0.36877812856854975,0.28219251696110703,0.5648308638523902,0.5302767682415432,0.18132513279284315,0.13115802943058222,0.09660908509277032,0.3198976327575176,0.7389635316698656,0.6813819577735125,0.19001919385796545,0.12923864363403711,0.7184900831733845
653033,-0.1149329319654859,0.7151721528622402,0.6512052316196331,-0.2263867470313262,0.23409686303486263,0.36877812856854975,0.28219251696110703,0.5648308638523902,0.5302767682415432,0.18132513279284315,0.11580294305822136,0.08765195137555983,0.30326295585412666,0.8470889315419066,0.7376839411388356,0.15227127319257838,0.12603966730646193,0.672424824056302
660039,-0.16620467173096834,0.6523670699451303,0.6948490572843715,-0.25293872921525257,0,0.42406126150332507,0.2684892859541882,0.7443667878110148,0.4551859099804305,0.06457925636007827,0.11580294305822136,0.08765195137555983,0.30326295585412666,0.8470889315419066,0.7376839411388356,0.15227127319257838,0.12603966730646193,0.672424824056302
667416,-0.16620467173096834,0.6523670699451303,0.6948490572843715,-0.25293872921525257,0,0.42406126150332507,0.2684892859541882,0.7443667878110148,0.4551859099804305,0.06457925636007827,0.12987843889955214,0.10684580934101087,0.291106845809341,0.8080614203454894,0.8099808061420346,0.127319257837492,0.10556621880998081,0.6263595649392194
682498,-0.17694546830010915,0.6168371516526054,0.7191347042124479,-0.26654738187877774,0.43870491032444414,0.5856787801437496,0.3900718747900853,0.5648867766284597,0.39798714006150404,0.27559407324573665,0.12987843889955214,0.10684580934101087,0.291106845809341,0.8080614203454894,0.8099808061420346,0.127319257837492,0.10556621880998081,0.6263595649392194
690571,-0.17694546830010915,0.6168371516526054,0.7191347042124479,-0.26654738187877774,0.43870491032444414,0.5856787801437496,0.3900718747900853,0.5648867766284597,0.39798714006150404,0.27559407324573665,0.27767114523352526,0.23864363403710812,0.24312220089571338,0.8074216250799744,0.836852207293666,0.11900191938579655,0.14971209213051823,0.4740882917466411
697553,-0.2045280104775989,0.6174902661897547,0.7137423319979235,-0.25970357641963093,1,0.5314704104252032,0.41076106670249213,0.5488398098965613,0.6093933463796477,0.45568912496505454,0.27767114523352526,0.23864363403710812,0.24312220089571338,0.8074216250799744,0.836852207293666,0.11900191938579655,0.14971209213051823,0.4740882917466411
713018,-0.2045280104775989,0.6174902661897547,0.7137423319979235,-0.25970357641963093,1,0.5314704104252032,0.41076106670249213,0.5488398098965613,0.6093933463796477,0.45568912496505454,0.362763915547025,0.29174664107485604,0.2034548944337812,0.8822776711452335,0.9219449776071658,0.3039027511196417,0.4273832373640435,0.4894433781190019
719996,-0.2804702175537403,0.6102592459417401,0.6985203851327538,-0.24696028296462094,0.48982333579633236,0.35494055215960235,0.22079666823402969,0.7024322057590159,0.8057031031590719,0.38719597428012303,0.362763915547025,0.29174664107485604,0.2034548944337812,0.8822776711452335,0.9219449776071658,0.3039027511196417,0.4273832373640435,0.4894433781190019
735561,-0.2804702175537403,0.6102592459417401,0.6985203851327538,-0.24696028296462094,0.48982333579633236,0.35494055215960235,0.22079666823402969,0.7024322057590159,0.8057031031590719,0.38719597428012303,0.4740882917466411,0.3365323096609085,0.18042226487523993,0.90850927703135,1,0.345489443378119,0.5508637236084453,0.5470249520153551
742523,-0.3339407373811789,0.5837096091347495,0.6866202439774962,-0.27625950966682794,0.20393632027943845,0.4342715120574998,0.15886343789883792,0.8062063181436958,0.5636007827788649,0.3964774951076321,0.4740882917466411,0.3365323096609085,0.18042226487523993,0.90850927703135,1,0.345489443378119,0.5508637236084453,0.5470249520153551
750517,-0.3339407373811789,0.5837096091347495,0.6866202439774962,-0.27625950966682794,0.20393632027943845,0.4342715120574998,0.15886343789883792,0.8062063181436958,0.5636007827788649,0.3964774951076321,0.48112603966730644,0.34420985284708894,0.17978246960972488,0.8259756877799105,0.927063339731286,0.3512476007677543,0.5898912348048625,0.781190019193858
757495,-0.33351004333169243,0.54616542235212,0.6836223435788717,-0.3509057904674048,0.3197420568281051,0.6569490159199302,0.08577953919527104,0.8114062063181436,0.20620631814369583,0.48537880905786973,0.48112603966730644,0.34420985284708894,0.17978246960972488,0.8259756877799105,0.927063339731286,0.3512476007677543,0.5898912348048625,0.781190019193858
773042,-0.33351004333169243,0.54616542235212,0.6836223435788717,-0.3509057904674048,0.3197420568281051,0.6569490159199302,0.08577953919527104,0.8114062063181436,0.20620631814369583,0.48537880905786973,0.47664747280870123,0.34037108125399873,0.16634676903390916,0.8010236724248241,0.8707613563659629,0.3563659628918746,0.5988483685220729,0.8637236084452975
780011,-0.31275733346484474,0.5138766569946386,0.6864913601637606,-0.4084644956180213,0.3043595082958286,0.8534963390877948,0.26452609659434406,0.6741962538440034,0.1826111266424378,0.49471624266144815,0.47664747280870123,0.34037108125399873,0.16634676903390916,0.8010236724248241,0.8707613563659629,0.3563659628918746,0.5988483685220729,0.8637236084452975
795565,-0.31275733346484474,0.5138766569946386,0.6864913601637606,-0.4084644956180213,0.3043595082958286,0.8534963390877948,0.26452609659434406,0.6741962538440034,0.1826111266424378,0.49471624266144815,0.4037108125399872,0.2655150351887396,0.13563659628918745,0.8809980806142035,0.8253358925143954,0.3838771593090211,0.5905310300703774,0.9040307101727447
802469,-0.2501825071238819,0.5259386835536694,0.708311294260222,-0.3988637921577381,0.7413851010949151,0.759051521461678,0.2267750386243031,0.21576740285155158,0.2750908582611127,0.5810455689124965,0.4037108125399872,0.2655150351887396,0.13563659628918745,0.8809980806142035,0.8253358925143954,0.3838771593090211,0.5905310300703774,0.9040307101727447
810545,-0.2501825071238819,0.5259386835536694,0.708311294260222,-0.3988637921577381,0.7413851010949151,0.759051521461678,0.2267750386243031,0.21576740285155158,0.2750908582611127,0.5810455689124965,0.33013435700575816,0.20153550863723607,0.14843250159948818,0.8419705694177864,0.7703134996801023,0.3237364043506078,0.44529750479846447,0.8829174664107485
817525,-0.22326416046645986,0.5905086802933295,0.6757128268245427,-0.380611072900176,0.814939208705582,0.4865318734466313,0.32652649963055014,0.32490914173888735,0.6058708414872799,0.8351132233715404,0.33013435700575816,0.20153550863723607,0.14843250159948818,0.8419705694177864,0.7703134996801023,0.3237364043506078,0.44529750479846447,0.8829174664107485
833023,-0.22326416046645986,0.5905086802933295,0.6757128268245427,-0.380611072900176,0.814939208705582,0.4865318734466313,0.32652649963055014,0.32490914173888735,0.6058708414872799,0.8351132233715404,0.12987843889955214,0.11900191938579655,0.2527191298784389,0.7683941138835573,0.6564299424184261,0.29942418426103645,0.3115802943058221,0.9168266154830454
839994,-0.2252860407002218,0.6613314145182615,0.6160422673495904,-0.36383909201138503,0.3613891314569759,0.6007926378719688,0.31027070598508766,0.47542633491752867,0.7425216662007269,0.8851551579535923,0.12987843889955214,0.11900191938579655,0.2527191298784389,0.7683941138835573,0.6564299424184261,0.29942418426103645,0.3115802943058221,0.9168266154830454
855517,-0.2252860407002218,0.6613314145182615,0.6160422673495904,-0.36383909201138503,0.3613891314569759,0.6007926378719688,0.31027070598508766,0.47542633491752867,0.7425216662007269,0.8851551579535923,0.1145233525271913,0.10492642354446577,0.29686500319897635,0.7741522712731925,0.7005758157389635,0.30070377479206656,0.2328854766474728,0.8259756877799105
862473,-0.1538159685543675,0.7270856418331848,0.5881629654721767,-0.31898502050203353,0.4079398132598912,0.546920131658494,0.43977967354067304,0.06575342465753424,0.5566116857701985,0.872462957785854,0.1145233525271913,0.10492642354446577,0.29686500319897635,0.7741522712731925,0.7005758157389635,0.30070377479206656,0.2328854766474728,0.8259756877799105
870545,-0.1538159685543675,0.7270856418331848,0.5881629654721767,-0.31898502050203353,0.4079398132598912,0.546920131658494,0.43977967354067304,0.06575342465753424,0.5566116857701985,0.872462957785854,0.2667946257197697,0.16122840690978887,0.3103007037747921,0.7594369801663468,0.7146513115802943,0.29558541266794625,0.2220089571337172,0.7184900831733845
877483,-0.12426926439205811,0.7384743761687186,0.6038289944158305,-0.2731360305277309,0.4483106065694902,0.32155571975549135,0.37267414522737957,0.19670114621190943,0.5682974559686889,0.4681576740285155,0.2667946257197697,0.16122840690978887,0.3103007037747921,0.7594369801663468,0.7146513115802943,0.29558541266794625,0.2220089571337172,0.7184900831733845
892996,-0.12426926439205811,0.7384743761687186,0.6038289944158305,-0.2731360305277309,0.4483106065694902,0.32155571975549135,0.37267414522737957,0.19670114621190943,0.5682974559686889,0.4681576740285155,0.2853486884197057,0.17018554062699937,0.32501599488163785,0.7421625079974408,0.8157389635316699,0.2514395393474088,0.2053742802303263,0.6397952655150352
899970,-0.15228482892123632,0.6790255397790597,0.669137707199805,-0.26074580727515895,0.2534426009269833,0.3289447168670652,0.18156781084167395,0.4943248532289628,0.4890690522784456,0,0.2853486884197057,0.17018554062699937,0.32501599488163785,0.7421625079974408,0.8157389635316699,0.2514395393474088,0.2053742802303263,0.6397952655150352
915545,-0.15228482892123632,0.6790255397790597,0.669137707199805,-0.26074580727515895,0.2534426009269833,0.3289447168670652,0.18156781084167395,0.4943248532289628,0.4890690522784456,0,0.326935380678183,0.2252079334612924,0.32437619961612285,0.7773512476007678,0.8304542546385156,0.3141394753678823,0.18170185540626999,0.6813819577735125
