Timestamp, Orientation x, Orientation y, Orientation z, Orientation w, Acceleration x, Acceleration y, Acceleration z, Rotation x, Rotation y, Rotation z, EMG 0, EMG 1, EMG 2, EMG 3, EMG 4, EMG 5, EMG 6, EMG 7
162030404, 5422, 13798, -6773, -1661, 68, 937, -1614, -13, 246, -103, 0, 0, 0, 0, 0, 0, 0, 0
162031181, 5404, 13821, -6748, -1633, 67, 963, -1661, -2, 213, -99, 0, 0, 0, 0, 0, 0, 0, 0
162052224, 5386, 13841, -6726, -1611, 68, 991, -1693, -11, 183, -90, 0, 0, 0, 0, 0, 0, 0, 0
162067205, 5369, 13860, -6704, -1599, 41, 975, -1670, -42, 147, -92, 0, 0, 0, 0, 0, 0, 0, 0
162089672, 5342, 13879, -6687, -1593, 30, 922, -1644, -14, 86, -86, 0, 0, 0, 0, 0, 0, 0, 0
162097845, 5342, 13879, -6687, -1593, 30, 922, -1644, -14, 86, -86, 195, 96, 60, 27, 25, 50, 29, 68
162098633, 5342, 13879, -6687, -1593, 30, 922, -1644, -14, 86, -86, 195, 96, 60, 27, 25, 50, 29, 68
162112172, 5308, 13900, -6672, -1589, 45, 907, -1606, 27, 46, -101, 195, 96, 60, 27, 25, 50, 29, 68
162120337, 5308, 13900, -6672, -1589, 45, 907, -1606, 27, 46, -101, 195, 95, 58, 26, 24, 51, 27, 53
162121130, 5308, 13900, -6672, -1589, 45, 907, -1606, 27, 46, -101, 195, 95, 58, 26, 24, 51, 27, 53
162127269, 5267, 13922, -6659, -1583, 68, 902, -1604, 77, 28, -96, 195, 95, 58, 26, 24, 51, 27, 53
162142806, 5267, 13922, -6659, -1583, 68, 902, -1604, 77, 28, -96, 199, 98, 59, 29, 25, 45, 26, 54
162143623, 5267, 13922, -6659, -1583, 68, 902, -1604, 77, 28, -96, 199, 98, 59, 29, 25, 45, 26, 54
162149772, 5220, 13946, -6648, -1574, 67, 933, -1620, 123, 26, -94, 199, 98, 59, 29, 25, 45, 26, 54
162157793, 5220, 13946, -6648, -1574, 67, 933, -1620, 123, 26, -94, 173, 77, 51, 30, 25, 48, 27, 56
162158643, 5220, 13946, -6648, -1574, 67, 933, -1620, 123, 26, -94, 173, 77, 51, 30, 25, 48, 27, 56
162172194, 5169, 13971, -6638, -1565, 71, 961, -1624, 170, 10, -90, 173, 77, 51, 30, 25, 48, 27, 56
162180331, 5169, 13971, -6638, -1565, 71, 961, -1624, 170, 10, -90, 171, 69, 45, 28, 23, 47, 25, 47
162181117, 5169, 13971, -6638, -1565, 71, 961, -1624, 170, 10, -90, 171, 69, 45, 28, 23, 47, 25, 47
162187302, 5124, 13994, -6626, -1558, 75, 954, -1617, 134, 8, -101, 171, 69, 45, 28, 23, 47, 25, 47
162202791, 5124, 13994, -6626, -1558, 75, 954, -1617, 134, 8, -101, 182, 62, 49, 30, 24, 46, 27, 53
162203603, 5124, 13994, -6626, -1558, 75, 954, -1617, 134, 8, -101, 182, 62, 49, 30, 24, 46, 27, 53
162209769, 5090, 14013, -6612, -1559, 69, 954, -1611, 59, 0, -105, 182, 62, 49, 30, 24, 46, 27, 53
162217805, 5090, 14013, -6612, -1559, 69, 954, -1611, 59, 0, -105, 194, 64, 49, 30, 25, 46, 30, 55
162218631, 5090, 14013, -6612, -1559, 69, 954, -1611, 59, 0, -105, 194, 64, 49, 30, 25, 46, 30, 55
162232195, 5055, 14032, -6598, -1566, 43, 906, -1650, 23, -18, -113, 194, 64, 49, 30, 25, 46, 30, 55
162240309, 5055, 14032, -6598, -1566, 43, 906, -1650, 23, -18, -113, 197, 61, 40, 28, 25, 34, 29, 59
162241081, 5055, 14032, -6598, -1566, 43, 906, -1650, 23, -18, -113, 197, 61, 40, 28, 25, 34, 29, 59
162247266, 5023, 14049, -6583, -1574, 56, 911, -1653, 8, -25, -124, 197, 61, 40, 28, 25, 34, 29, 59
162262745, 5023, 14049, -6583, -1574, 56, 911, -1653, 8, -25, -124, 203, 67, 45, 28, 26, 50, 32, 60
162263627, 5023, 14049, -6583, -1574, 56, 911, -1653, 8, -25, -124, 203, 67, 45, 28, 26, 50, 32, 60
162269770, 4989, 14068, -6567, -1579, 57, 900, -1663, 19, -16, -123, 203, 67, 45, 28, 26, 50, 32, 60
162277796, 4989, 14068, -6567, -1579, 57, 900, -1663, 19, -16, -123, 212, 77, 51, 28, 26, 49, 31, 63
162278597, 4989, 14068, -6567, -1579, 57, 900, -1663, 19, -16, -123, 212, 77, 51, 28, 26, 49, 31, 63
162292170, 4944, 14090, -6554, -1580, 57, 890, -1690, 83, -27, -124, 212, 77, 51, 28, 26, 49, 31, 63
162300284, 4944, 14090, -6554, -1580, 57, 890, -1690, 83, -27, -124, 205, 78, 48, 27, 26, 51, 29, 58
162301068, 4944, 14090, -6554, -1580, 57, 890, -1690, 83, -27, -124, 205, 78, 48, 27, 26, 51, 29, 58
162307242, 4888, 14114, -6542, -1585, 58, 912, -1690, 146, -75, -129, 205, 78, 48, 27, 26, 51, 29, 58
162322777, 4888, 14114, -6542, -1585, 58, 912, -1690, 146, -75, -129, 229, 89, 48, 25, 29, 53, 26, 63
162323622, 4888, 14114, -6542, -1585, 58, 912, -1690, 146, -75, -129, 229, 89, 48, 25, 29, 53, 26, 63
162329766, 4842, 14133, -6534, -1597, 70, 956, -1683, 98, -109, -118, 229, 89, 48, 25, 29, 53, 26, 63
162337776, 4842, 14133, -6534, -1597, 70, 956, -1683, 98, -109, -118, 231, 91, 50, 28, 35, 55, 27, 60
162338593, 4842, 14133, -6534, -1597, 70, 956, -1683, 98, -109, -118, 231, 91, 50, 28, 35, 55, 27, 60
162352261, 4802, 14148, -6527, -1611, 72, 946, -1710, 59, -111, -99, 231, 91, 50, 28, 35, 55, 27, 60
162360299, 4802, 14148, -6527, -1611, 72, 946, -1710, 59, -111, -99, 214, 86, 49, 34, 41, 60, 25, 60
162361105, 4802, 14148, -6527, -1611, 72, 946, -1710, 59, -111, -99, 214, 86, 49, 34, 41, 60, 25, 60
162367254, 4757, 14160, -6530, -1623, 50, 961, -1724, 89, -121, -42, 214, 86, 49, 34, 41, 60, 25, 60
162382817, 4757, 14160, -6530, -1623, 50, 961, -1724, 89, -121, -42, 197, 78, 57, 36, 44, 74, 27, 56
162383685, 4757, 14160, -6530, -1623, 50, 961, -1724, 89, -121, -42, 197, 78, 57, 36, 44, 74, 27, 56
162389795, 4711, 14167, -6541, -1655, -1, 978, -1756, 49, -220, -16, 197, 78, 57, 36, 44, 74, 27, 56
162397790, 4711, 14167, -6541, -1655, -1, 978, -1756, 49, -220, -16, 240, 99, 83, 47, 62, 98, 34, 63
162398594, 4711, 14167, -6541, -1655, -1, 978, -1756, 49, -220, -16, 240, 99, 83, 47, 62, 98, 34, 63
162412178, 4686, 14156, -6566, -1723, 11, 1221, -1826, -67, -388, 51, 240, 99, 83, 47, 62, 98, 34, 63
162420320, 4686, 14156, -6566, -1723, 11, 1221, -1826, -67, -388, 51, 246, 107, 96, 69, 68, 105, 38, 65
162421183, 4686, 14156, -6566, -1723, 11, 1221, -1826, -67, -388, 51, 246, 107, 96, 69, 68, 105, 38, 65
162427307, 4698, 14113, -6609, -1869, -159, 1363, -1812, -411, -668, 156, 246, 107, 96, 69, 68, 105, 38, 65
162442818, 4698, 14113, -6609, -1869, -159, 1363, -1812, -411, -668, 156, 262, 113, 104, 125, 75, 126, 40, 67
162443632, 4698, 14113, -6609, -1869, -159, 1363, -1812, -411, -668, 156, 262, 113, 104, 125, 75, 126, 40, 67
162449800, 4731, 14029, -6692, -2108, -288, 1392, -1816, -769, -1120, 333, 262, 113, 104, 125, 75, 126, 40, 67
162457112, 4731, 14029, -6692, -2108, -288, 1392, -1816, -769, -1120, 333, 306, 134, 144, 167, 95, 132, 50, 71
162464592, 4731, 14029, -6692, -2108, -288, 1392, -1816, -769, -1120, 333, 306, 134, 144, 167, 95, 132, 50, 71
162472302, 4746, 13910, -6833, -2390, -273, 1484, -1644, -717, -1520, 589, 306, 134, 144, 167, 95, 132, 50, 71
162480280, 4746, 13910, -6833, -2390, -273, 1484, -1644, -717, -1520, 589, 319, 135, 151, 182, 107, 132, 53, 72
162481092, 4746, 13910, -6833, -2390, -273, 1484, -1644, -717, -1520, 589, 319, 135, 151, 182, 107, 132, 53, 72
162487285, 4757, 13744, -7044, -2697, -333, 1370, -1347, -838, -1877, 925, 319, 135, 151, 182, 107, 132, 53, 72
162502819, 4757, 13744, -7044, -2697, -333, 1370, -1347, -838, -1877, 925, 291, 123, 141, 187, 100, 120, 49, 63
162503599, 4757, 13744, -7044, -2697, -333, 1370, -1347, -838, -1877, 925, 291, 123, 141, 187, 100, 120, 49, 63
162509795, 4765, 13522, -7323, -3043, -295, 1259, -1081, -945, -2244, 1308, 291, 123, 141, 187, 100, 120, 49, 63
162517129, 4765, 13522, -7323, -3043, -295, 1259, -1081, -945, -2244, 1308, 275, 120, 164, 250, 126, 198, 81, 63
162524625, 4765, 13522, -7323, -3043, -295, 1259, -1081, -945, -2244, 1308, 275, 120, 164, 250, 126, 198, 81, 63
162532245, 4686, 13287, -7640, -3400, -244, 1262, -998, -541, -2590, 1399, 275, 120, 164, 250, 126, 198, 81, 63
162540305, 4686, 13287, -7640, -3400, -244, 1262, -998, -541, -2590, 1399, 259, 121, 238, 272, 137, 191, 84, 64
162541081, 4686, 13287, -7640, -3400, -244, 1262, -998, -541, -2590, 1399, 259, 121, 238, 272, 137, 191, 84, 64
162547261, 4505, 13023, -8026, -3758, -323, 1525, -1009, -24, -3006, 1668, 259, 121, 238, 272, 137, 191, 84, 64
162562780, 4505, 13023, -8026, -3758, -323, 1525, -1009, -24, -3006, 1668, 230, 104, 452, 499, 159, 230, 89, 61
162563624, 4505, 13023, -8026, -3758, -323, 1525, -1009, -24, -3006, 1668, 230, 104, 452, 499, 159, 230, 89, 61
162569747, 4230, 12696, -8498, -4139, -458, 1666, -678, 387, -3562, 2076, 230, 104, 452, 499, 159, 230, 89, 61
162585336, 4230, 12696, -8498, -4139, -458, 1666, -678, 387, -3562, 2076, 226, 111, 577, 574, 169, 242, 92, 71
162586106, 4230, 12696, -8498, -4139, -458, 1666, -678, 387, -3562, 2076, 226, 111, 577, 574, 169, 242, 92, 71
162592275, 3874, 12296, -9033, -4542, -354, 1595, -320, 681, -4090, 2401, 226, 111, 577, 574, 169, 242, 92, 71
162600261, 3874, 12296, -9033, -4542, -354, 1595, -320, 681, -4090, 2401, 280, 116, 646, 644, 177, 242, 93, 77
162601092, 3874, 12296, -9033, -4542, -354, 1595, -320, 681, -4090, 2401, 280, 116, 646, 644, 177, 242, 93, 77
162607276, 3496, 11807, -9598, -4968, -217, 1754, -169, 663, -4451, 2721, 280, 116, 646, 644, 177, 242, 93, 77
162622769, 3496, 11807, -9598, -4968, -217, 1754, -169, 663, -4451, 2721, 282, 108, 696, 695, 163, 186, 69, 78
162623582, 3496, 11807, -9598, -4968, -217, 1754, -169, 663, -4451, 2721, 282, 108, 696, 695, 163, 186, 69, 78
162629747, 3134, 11201, -10179, -5433, 60, 1885, -184, 362, -4799, 3112, 282, 108, 696, 695, 163, 186, 69, 78
162645318, 3134, 11201, -10179, -5433, 60, 1885, -184, 362, -4799, 3112, 308, 113, 783, 731, 174, 192, 73, 89
162646139, 3134, 11201, -10179, -5433, 60, 1885, -184, 362, -4799, 3112, 308, 113, 783, 731, 174, 192, 73, 89
162652269, 2785, 10484, -10743, -5947, 529, 1953, -283, -11, -5178, 3356, 308, 113, 783, 731, 174, 192, 73, 89
162660291, 2785, 10484, -10743, -5947, 529, 1953, -283, -11, -5178, 3356, 310, 119, 722, 714, 163, 143, 61, 98
162661088, 2785, 10484, -10743, -5947, 529, 1953, -283, -11, -5178, 3356, 310, 119, 722, 714, 163, 143, 61, 98
162667230, 2417, 9678, -11262, -6488, 1005, 1810, -285, -243, -5523, 3408, 310, 119, 722, 714, 163, 143, 61, 98
162682818, 2417, 9678, -11262, -6488, 1005, 1810, -285, -243, -5523, 3408, 430, 157, 629, 667, 172, 148, 74, 118
162683645, 2417, 9678, -11262, -6488, 1005, 1810, -285, -243, -5523, 3408, 430, 157, 629, 667, 172, 148, 74, 118
162689769, 2024, 8787, -11728, -7041, 1467, 1616, -395, -422, -5846, 3445, 430, 157, 629, 667, 172, 148, 74, 118
162705775, 2024, 8787, -11728, -7041, 1467, 1616, -395, -422, -5846, 3445, 437, 165, 567, 609, 168, 170, 79, 121
162706574, 2024, 8787, -11728, -7041, 1467, 1616, -395, -422, -5846, 3445, 437, 165, 567, 609, 168, 170, 79, 121
162712244, 1552, 7844, -12141, -7556, 1861, 1465, -488, -227, -6165, 3288, 437, 165, 567, 609, 168, 170, 79, 121
162720319, 1552, 7844, -12141, -7556, 1861, 1465, -488, -227, -6165, 3288, 474, 187, 501, 552, 172, 172, 79, 134
162721124, 1552, 7844, -12141, -7556, 1861, 1465, -488, -227, -6165, 3288, 474, 187, 501, 552, 172, 172, 79, 134
162727309, 997, 6890, -12500, -7983, 2350, 1406, -536, 208, -6301, 2954, 474, 187, 501, 552, 172, 172, 79, 134
162742819, 997, 6890, -12500, -7983, 2350, 1406, -536, 208, -6301, 2954, 467, 181, 312, 484, 157, 164, 76, 128
162743630, 997, 6890, -12500, -7983, 2350, 1406, -536, 208, -6301, 2954, 467, 181, 312, 484, 157, 164, 76, 128
162749770, 338, 6008, -12782, -8299, 2767, 1215, -670, 672, -6073, 2530, 467, 181, 312, 484, 157, 164, 76, 128
162765325, 338, 6008, -12782, -8299, 2767, 1215, -670, 672, -6073, 2530, 461, 178, 191, 277, 146, 159, 78, 125
162766117, 338, 6008, -12782, -8299, 2767, 1215, -670, 672, -6073, 2530, 461, 178, 191, 277, 146, 159, 78, 125
162772297, -322, 5174, -13028, -8477, 2885, 1108, -782, 1180, -5653, 2262, 461, 178, 191, 277, 146, 159, 78, 125
162780292, -322, 5174, -13028, -8477, 2885, 1108, -782, 1180, -5653, 2262, 345, 157, 209, 242, 120, 144, 65, 105
162781146, -322, 5174, -13028, -8477, 2885, 1108, -782, 1180, -5653, 2262, 345, 157, 209, 242, 120, 144, 65, 105
162787269, -969, 4405, -13228, -8551, 2895, 1062, -807, 1480, -5224, 1912, 345, 157, 209, 242, 120, 144, 65, 105
162802819, -969, 4405, -13228, -8551, 2895, 1062, -807, 1480, -5224, 1912, 335, 151, 180, 215, 123, 121, 61, 116
162803619, -969, 4405, -13228, -8551, 2895, 1062, -807, 1480, -5224, 1912, 335, 151, 180, 215, 123, 121, 61, 116
162809797, -1596, 3690, -13393, -8539, 3048, 927, -949, 1722, -4851, 1647, 335, 151, 180, 215, 123, 121, 61, 116
162825294, -1596, 3690, -13393, -8539, 3048, 927, -949, 1722, -4851, 1647, 272, 125, 173, 129, 122, 115, 62, 125
162826118, -1596, 3690, -13393, -8539, 3048, 927, -949, 1722, -4851, 1647, 272, 125, 173, 129, 122, 115, 62, 125
162832266, -2180, 3045, -13512, -8477, 3145, 921, -1040, 1715, -4419, 1363, 272, 125, 173, 129, 122, 115, 62, 125
162840309, -2180, 3045, -13512, -8477, 3145, 921, -1040, 1715, -4419, 1363, 318, 136, 190, 145, 130, 115, 59, 146
162841102, -2180, 3045, -13512, -8477, 3145, 921, -1040, 1715, -4419, 1363, 318, 136, 190, 145, 130, 115, 59, 146
162847281, -2712, 2464, -13588, -8391, 3084, 968, -1148, 1607, -3995, 1157, 318, 136, 190, 145, 130, 115, 59, 146
162862785, -2712, 2464, -13588, -8391, 3084, 968, -1148, 1607, -3995, 1157, 338, 136, 194, 139, 124, 113, 57, 147
162863606, -2712, 2464, -13588, -8391, 3084, 968, -1148, 1607, -3995, 1157, 338, 136, 194, 139, 124, 113, 57, 147
162869744, -3203, 1936, -13625, -8295, 2929, 902, -1325, 1453, -3680, 985, 338, 136, 194, 139, 124, 113, 57, 147
162885290, -3203, 1936, -13625, -8295, 2929, 902, -1325, 1453, -3680, 985, 352, 139, 161, 137, 124, 95, 54, 159
162886092, -3203, 1936, -13625, -8295, 2929, 902, -1325, 1453, -3680, 985, 352, 139, 161, 137, 124, 95, 54, 159
162892271, -3661, 1468, -13626, -8200, 3003, 880, -1519, 1259, -3395, 779, 352, 139, 161, 137, 124, 95, 54, 159
162900338, -3661, 1468, -13626, -8200, 3003, 880, -1519, 1259, -3395, 779, 306, 136, 180, 154, 124, 85, 50, 148
162901093, -3661, 1468, -13626, -8200, 3003, 880, -1519, 1259, -3395, 779, 306, 136, 180, 154, 124, 85, 50, 148
162907266, -4053, 1031, -13615, -8099, 3427, 904, -1628, 1187, -3013, 801, 306, 136, 180, 154, 124, 85, 50, 148
162922768, -4053, 1031, -13615, -8099, 3427, 904, -1628, 1187, -3013, 801, 305, 149, 184, 151, 115, 76, 49, 146
162923636, -4053, 1031, -13615, -8099, 3427, 904, -1628, 1187, -3013, 801, 305, 149, 184, 151, 115, 76, 49, 146
162929744, -4402, 646, -13601, -7980, 3046, 975, -1671, 1169, -2669, 655, 305, 149, 184, 151, 115, 76, 49, 146
162945305, -4402, 646, -13601, -7980, 3046, 975, -1671, 1169, -2669, 655, 255, 156, 160, 127, 102, 67, 54, 149
162946071, -4402, 646, -13601, -7980, 3046, 975, -1671, 1169, -2669, 655, 255, 156, 160, 127, 102, 67, 54, 149
162952228, -4731, 313, -13572, -7859, 3137, 1084, -2015, 1055, -2453, 463, 255, 156, 160, 127, 102, 67, 54, 149
162960265, -4731, 313, -13572, -7859, 3137, 1084, -2015, 1055, -2453, 463, 202, 158, 149, 129, 96, 59, 52, 148
162961083, -4731, 313, -13572, -7859, 3137, 1084, -2015, 1055, -2453, 463, 202, 158, 149, 129, 96, 59, 52, 148
162967219, -5005, 10, -13529, -7771, 3490, 1254, -2170, 813, -2145, 519, 202, 158, 149, 129, 96, 59, 52, 148
162982760, -5005, 10, -13529, -7771, 3490, 1254, -2170, 813, -2145, 519, 207, 162, 162, 125, 89, 59, 51, 145
162983566, -5005, 10, -13529, -7771, 3490, 1254, -2170, 813, -2145, 519, 207, 162, 162, 125, 89, 59, 51, 145
162989744, -5212, -242, -13487, -7703, 3447, 1221, -2211, 635, -1694, 504, 207, 162, 162, 125, 89, 59, 51, 145
163005283, -5212, -242, -13487, -7703, 3447, 1221, -2211, 635, -1694, 504, 206, 175, 156, 117, 89, 63, 51, 151
163006074, -5212, -242, -13487, -7703, 3447, 1221, -2211, 635, -1694, 504, 206, 175, 156, 117, 89, 63, 51, 151
163012221, -5375, -440, -13456, -7636, 3548, 1186, -2306, 567, -1337, 365, 206, 175, 156, 117, 89, 63, 51, 151
163028478, -5375, -440, -13456, -7636, 3548, 1186, -2306, 567, -1337, 365, 198, 188, 151, 124, 95, 68, 55, 144
163029266, -5375, -440, -13456, -7636, 3548, 1186, -2306, 567, -1337, 365, 198, 188, 151, 124, 95, 68, 55, 144
163030261, -5485, -598, -13440, -7575, 3574, 1220, -2350, 509, -952, 327, 198, 188, 151, 124, 95, 68, 55, 144
163050958, -5485, -598, -13440, -7575, 3574, 1220, -2350, 509, -952, 327, 200, 189, 147, 129, 91, 70, 49, 139
163051743, -5485, -598, -13440, -7575, 3574, 1220, -2350, 509, -952, 327, 200, 189, 147, 129, 91, 70, 49, 139
163052751, -5558, -708, -13436, -7519, 3574, 1253, -2412, 436, -642, 216, 200, 189, 147, 129, 91, 70, 49, 139
163065315, -5558, -708, -13436, -7519, 3574, 1253, -2412, 436, -642, 216, 227, 194, 147, 140, 95, 67, 49, 159
163066119, -5558, -708, -13436, -7519, 3574, 1253, -2412, 436, -642, 216, 227, 194, 147, 140, 95, 67, 49, 159
163072266, -5609, -768, -13434, -7479, 3698, 1311, -2457, 282, -404, 66, 227, 194, 147, 140, 95, 67, 49, 159
163088495, -5609, -768, -13434, -7479, 3698, 1311, -2457, 282, -404, 66, 204, 178, 138, 140, 95, 63, 47, 160
163089422, -5609, -768, -13434, -7479, 3698, 1311, -2457, 282, -404, 66, 204, 178, 138, 140, 95, 63, 47, 160
163090231, -5635, -785, -13433, -7460, 3722, 1301, -2451, 108, -168, -29, 204, 178, 138, 140, 95, 63, 47, 160
163110975, -5635, -785, -13433, -7460, 3722, 1301, -2451, 108, -168, -29, 197, 167, 159, 138, 85, 61, 48, 165
163111782, -5635, -785, -13433, -7460, 3722, 1301, -2451, 108, -168, -29, 197, 167, 159, 138, 85, 61, 48, 165
163112758, -5651, -776, -13435, -7445, 3727, 1251, -2406, 52, -53, -108, 197, 167, 159, 138, 85, 61, 48, 165
163125313, -5651, -776, -13435, -7445, 3727, 1251, -2406, 52, -53, -108, 211, 141, 157, 127, 76, 55, 43, 162
163126133, -5651, -776, -13435, -7445, 3727, 1251, -2406, 52, -53, -108, 211, 141, 157, 127, 76, 55, 43, 162
163132245, -5663, -741, -13441, -7430, 3667, 1303, -2422, 13, 43, -221, 211, 141, 157, 127, 76, 55, 43, 162
163148525, -5663, -741, -13441, -7430, 3667, 1303, -2422, 13, 43, -221, 214, 125, 153, 123, 81, 54, 44, 152
163149292, -5663, -741, -13441, -7430, 3667, 1303, -2422, 13, 43, -221, 214, 125, 153, 123, 81, 54, 44, 152
163150259, -5670, -701, -13443, -7424, 3672, 1328, -2398, -49, 71, -215, 214, 125, 153, 123, 81, 54, 44, 152
163170967, -5670, -701, -13443, -7424, 3672, 1328, -2398, -49, 71, -215, 199, 111, 144, 110, 85, 56, 43, 132
163171808, -5670, -701, -13443, -7424, 3672, 1328, -2398, -49, 71, -215, 199, 111, 144, 110, 85, 56, 43, 132
163172744, -5669, -665, -13444, -7426, 3762, 1325, -2386, -76, 97, -157, 199, 111, 144, 110, 85, 56, 43, 132
163185304, -5669, -665, -13444, -7426, 3762, 1325, -2386, -76, 97, -157, 223, 111, 146, 108, 82, 57, 43, 120
163186092, -5669, -665, -13444, -7426, 3762, 1325, -2386, -76, 97, -157, 223, 111, 146, 108, 82, 57, 43, 120
163192274, -5658, -638, -13451, -7423, 3704, 1326, -2346, -19, 131, -107, 223, 111, 146, 108, 82, 57, 43, 120
163208446, -5658, -638, -13451, -7423, 3704, 1326, -2346, -19, 131, -107, 226, 107, 139, 98, 87, 57, 43, 103
163209233, -5658, -638, -13451, -7423, 3704, 1326, -2346, -19, 131, -107, 226, 107, 139, 98, 87, 57, 43, 103
163210191, -5648, -615, -13460, -7417, 3685, 1335, -2336, 8, 122, -97, 226, 107, 139, 98, 87, 57, 43, 103
163230967, -5648, -615, -13460, -7417, 3685, 1335, -2336, 8, 122, -97, 230, 115, 140, 108, 93, 57, 41, 91
163231819, -5648, -615, -13460, -7417, 3685, 1335, -2336, 8, 122, -97, 230, 115, 140, 108, 93, 57, 41, 91
163232767, -5638, -589, -13463, -7421, 3693, 1378, -2333, -59, 117, -82, 230, 115, 140, 108, 93, 57, 41, 91
163245253, -5638, -589, -13463, -7421, 3693, 1378, -2333, -59, 117, -82, 197, 106, 139, 101, 89, 52, 37, 85
163246041, -5638, -589, -13463, -7421, 3693, 1378, -2333, -59, 117, -82, 197, 106, 139, 101, 89, 52, 37, 85
163252276, -5628, -566, -13459, -7439, 3737, 1377, -2354, -136, 100, -45, 197, 106, 139, 101, 89, 52, 37, 85
163268443, -5628, -566, -13459, -7439, 3737, 1377, -2354, -136, 100, -45, 182, 125, 143, 98, 90, 49, 35, 76
163269269, -5628, -566, -13459, -7439, 3737, 1377, -2354, -136, 100, -45, 182, 125, 143, 98, 90, 49, 35, 76
163270192, -5616, -546, -13455, -7456, 3752, 1338, -2311, -128, 99, -30, 182, 125, 143, 98, 90, 49, 35, 76
163290965, -5616, -546, -13455, -7456, 3752, 1338, -2311, -128, 99, -30, 165, 137, 144, 98, 93, 51, 37, 71
163291819, -5616, -546, -13455, -7456, 3752, 1338, -2311, -128, 99, -30, 165, 137, 144, 98, 93, 51, 37, 71
163292743, -5606, -526, -13453, -7467, 3732, 1362, -2307, -92, 98, -48, 165, 137, 144, 98, 93, 51, 37, 71
163305243, -5606, -526, -13453, -7467, 3732, 1362, -2307, -92, 98, -48, 169, 134, 111, 88, 86, 45, 38, 87
163306087, -5606, -526, -13453, -7467, 3732, 1362, -2307, -92, 98, -48, 169, 134, 111, 88, 86, 45, 38, 87
163312238, -5598, -506, -13452, -7477, 3755, 1385, -2322, -85, 86, -52, 169, 134, 111, 88, 86, 45, 38, 87
163328478, -5598, -506, -13452, -7477, 3755, 1385, -2322, -85, 86, -52, 139, 134, 104, 82, 84, 44, 38, 100
163329267, -5598, -506, -13452, -7477, 3755, 1385, -2322, -85, 86, -52, 139, 134, 104, 82, 84, 44, 38, 100
163330246, -5590, -485, -13449, -7490, 3753, 1404, -2312, -103, 87, -51, 139, 134, 104, 82, 84, 44, 38, 100
163350967, -5590, -485, -13449, -7490, 3753, 1404, -2312, -103, 87, -51, 140, 135, 104, 83, 84, 43, 41, 95
163351766, -5590, -485, -13449, -7490, 3753, 1404, -2312, -103, 87, -51, 140, 135, 104, 83, 84, 43, 41, 95
163352780, -5582, -464, -13447, -7501, 3772, 1398, -2312, -95, 88, -57, 140, 135, 104, 83, 84, 43, 41, 95
163365291, -5582, -464, -13447, -7501, 3772, 1398, -2312, -95, 88, -57, 143, 130, 109, 80, 74, 49, 43, 116
163366053, -5582, -464, -13447, -7501, 3772, 1398, -2312, -95, 88, -57, 143, 130, 109, 80, 74, 49, 43, 116
163372249, -5575, -437, -13443, -7514, 3750, 1430, -2292, -123, 94, -78, 143, 130, 109, 80, 74, 49, 43, 116
163388468, -5575, -437, -13443, -7514, 3750, 1430, -2292, -123, 94, -78, 110, 140, 101, 84, 75, 48, 44, 118
163389314, -5575, -437, -13443, -7514, 3750, 1430, -2292, -123, 94, -78, 110, 140, 101, 84, 75, 48, 44, 118
163390242, -5569, -410, -13437, -7532, 3770, 1441, -2286, -147, 85, -76, 110, 140, 101, 84, 75, 48, 44, 118
163410952, -5569, -410, -13437, -7532, 3770, 1441, -2286, -147, 85, -76, 88, 135, 100, 86, 76, 47, 43, 117
163411766, -5569, -410, -13437, -7532, 3770, 1441, -2286, -147, 85, -76, 88, 135, 100, 86, 76, 47, 43, 117
163412753, -5564, -388, -13431, -7548, 3710, 1417, -2244, -134, 72, -54, 88, 135, 100, 86, 76, 47, 43, 117
163425278, -5564, -388, -13431, -7548, 3710, 1417, -2244, -134, 72, -54, 79, 128, 97, 93, 84, 47, 41, 114
163426134, -5564, -388, -13431, -7548, 3710, 1417, -2244, -134, 72, -54, 79, 128, 97, 93, 84, 47, 41, 114
163432244, -5559, -372, -13426, -7561, 3718, 1426, -2227, -103, 56, -38, 79, 128, 97, 93, 84, 47, 41, 114
163448459, -5559, -372, -13426, -7561, 3718, 1426, -2227, -103, 56, -38, 76, 134, 101, 93, 82, 53, 39, 116
163449242, -5559, -372, -13426, -7561, 3718, 1426, -2227, -103, 56, -38, 76, 134, 101, 93, 82, 53, 39, 116
163450197, -5550, -360, -13425, -7570, 3739, 1445, -2244, -66, 71, -14, 76, 134, 101, 93, 82, 53, 39, 116
163470947, -5550, -360, -13425, -7570, 3739, 1445, -2244, -66, 71, -14, 105, 118, 139, 164, 80, 47, 38, 94
163471803, -5550, -360, -13425, -7570, 3739, 1445, -2244, -66, 71, -14, 105, 118, 139, 164, 80, 47, 38, 94
163472745, -5539, -345, -13425, -7578, 3730, 1457, -2206, -63, 91, -28, 105, 118, 139, 164, 80, 47, 38, 94
163485333, -5539, -345, -13425, -7578, 3730, 1457, -2206, -63, 91, -28, 117, 89, 302, 271, 79, 48, 41, 95
163486114, -5539, -345, -13425, -7578, 3730, 1457, -2206, -63, 91, -28, 117, 89, 302, 271, 79, 48, 41, 95
163492266, -5528, -322, -13430, -7579, 3856, 1463, -2127, -33, 116, -72, 117, 89, 302, 271, 79, 48, 41, 95
163508470, -5528, -322, -13430, -7579, 3856, 1463, -2127, -33, 116, -72, 125, 101, 373, 315, 77, 54, 42, 82
163509242, -5528, -322, -13430, -7579, 3856, 1463, -2127, -33, 116, -72, 125, 101, 373, 315, 77, 54, 42, 82
163510205, -5511, -298, -13442, -7571, 3699, 1410, -2150, 24, 163, -83, 125, 101, 373, 315, 77, 54, 42, 82
163538479, -5511, -298, -13442, -7571, 3699, 1410, -2150, 24, 163, -83, 126, 120, 386, 373, 66, 53, 41, 77
163539240, -5511, -298, -13442, -7571, 3699, 1410, -2150, 24, 163, -83, 126, 120, 386, 373, 66, 53, 41, 77
163540193, -5487, -289, -13463, -7552, 3615, 1433, -2161, 124, 170, -22, 126, 120, 386, 373, 66, 53, 41, 77
163546034, -5487, -289, -13463, -7552, 3615, 1433, -2161, 124, 170, -22, 127, 154, 390, 392, 71, 48, 43, 80
163546824, -5487, -289, -13463, -7552, 3615, 1433, -2161, 124, 170, -22, 127, 154, 390, 392, 71, 48, 43, 80
