Timestamp, Orientation x, Orientation y, Orientation z, Orientation w, Acceleration x, Acceleration y, Acceleration z, Rotation x, Rotation y, Rotation z, EMG 0, EMG 1, EMG 2, EMG 3, EMG 4, EMG 5, EMG 6, EMG 7
368416246, 4872, 15052, -4148, -955, 95, 882, -1459, 124, 24, -40, 0, 0, 0, 0, 0, 0, 0, 0
368417030, 4846, 15062, -4144, -943, 96, 861, -1451, 99, 28, -31, 0, 0, 0, 0, 0, 0, 0, 0
368438057, 4822, 15072, -4142, -925, 121, 845, -1446, 92, 41, -20, 0, 0, 0, 0, 0, 0, 0, 0
368460536, 4807, 15078, -4142, -906, 126, 870, -1456, 48, 63, 0, 0, 0, 0, 0, 0, 0, 0, 0
368475533, 4805, 15080, -4141, -883, 126, 880, -1451, -7, 98, 11, 0, 0, 0, 0, 0, 0, 0, 0
368483638, 4805, 15080, -4141, -883, 126, 880, -1451, -7, 98, 11, 84, 103, 73, 26, 23, 24, 20, 59
368484448, 4805, 15080, -4141, -883, 126, 880, -1451, -7, 98, 11, 84, 103, 73, 26, 23, 24, 20, 59
368498031, 4822, 15076, -4139, -862, 111, 895, -1431, -105, 123, 26, 84, 103, 73, 26, 23, 24, 20, 59
368506118, 4822, 15076, -4139, -862, 111, 895, -1431, -105, 123, 26, 70, 97, 77, 28, 22, 25, 21, 38
368506957, 4822, 15076, -4139, -862, 111, 895, -1431, -105, 123, 26, 70, 97, 77, 28, 22, 25, 21, 38
368520511, 4851, 15069, -4135, -843, 111, 881, -1443, -194, 135, 20, 70, 97, 77, 28, 22, 25, 21, 38
368528597, 4851, 15069, -4135, -843, 111, 881, -1443, -194, 135, 20, 40, 62, 71, 26, 23, 24, 20, 30
368529447, 4851, 15069, -4135, -843, 111, 881, -1443, -194, 135, 20, 40, 62, 71, 26, 23, 24, 20, 30
368535620, 4886, 15061, -4129, -824, 120, 860, -1443, -234, 146, 11, 40, 62, 71, 26, 23, 24, 20, 30
368543608, 4886, 15061, -4129, -824, 120, 860, -1443, -234, 146, 11, 37, 53, 65, 26, 21, 24, 21, 28
368544428, 4886, 15061, -4129, -824, 120, 860, -1443, -234, 146, 11, 37, 53, 65, 26, 21, 24, 21, 28
368558019, 4914, 15054, -4123, -802, 108, 845, -1449, -207, 159, 16, 37, 53, 65, 26, 21, 24, 21, 28
368566114, 4914, 15054, -4123, -802, 108, 845, -1449, -207, 159, 16, 38, 40, 54, 25, 21, 24, 22, 30
368566940, 4914, 15054, -4123, -802, 108, 845, -1449, -207, 159, 16, 38, 40, 54, 25, 21, 24, 22, 30
368583273, 4932, 15052, -4116, -778, 87, 817, -1432, -152, 172, 16, 38, 40, 54, 25, 21, 24, 22, 30
368584055, 4872, 15052, -4148, -955, 95, 882, -1459, 124, 24, -40, 38, 40, 54, 25, 21, 24, 22, 30
368584872, 4846, 15062, -4144, -943, 96, 861, -1451, 99, 28, -31, 38, 40, 54, 25, 21, 24, 22, 30
368585721, 4822, 15072, -4142, -925, 121, 845, -1446, 92, 41, -20, 38, 40, 54, 25, 21, 24, 22, 30
368590776, 4807, 15078, -4142, -906, 126, 870, -1456, 48, 63, 0, 38, 40, 54, 25, 21, 24, 22, 30
368591481, 4805, 15080, -4141, -883, 126, 880, -1451, -7, 98, 11, 38, 40, 54, 25, 21, 24, 22, 30
368592321, 4805, 15080, -4141, -883, 126, 880, -1451, -7, 98, 11, 84, 103, 73, 26, 23, 24, 20, 59
368593169, 4805, 15080, -4141, -883, 126, 880, -1451, -7, 98, 11, 84, 103, 73, 26, 23, 24, 20, 59
368596642, 4805, 15080, -4141, -883, 126, 880, -1451, -7, 98, 11, 70, 97, 77, 28, 22, 25, 21, 38
368597489, 4805, 15080, -4141, -883, 126, 880, -1451, -7, 98, 11, 70, 97, 77, 28, 22, 25, 21, 38
368605655, 4805, 15080, -4141, -883, 126, 880, -1451, -7, 98, 11, 70, 97, 77, 28, 22, 25, 21, 38
368606467, 4805, 15080, -4141, -883, 126, 880, -1451, -7, 98, 11, 70, 97, 77, 28, 22, 25, 21, 38
368607294, 4805, 15080, -4141, -883, 126, 880, -1451, -7, 98, 11, 70, 97, 77, 28, 22, 25, 21, 38
368608092, 4805, 15080, -4141, -883, 126, 880, -1451, -7, 98, 11, 70, 97, 77, 28, 22, 25, 21, 38
368613154, 4805, 15080, -4141, -883, 126, 880, -1451, -7, 98, 11, 70, 97, 77, 28, 22, 25, 21, 38
368613966, 4805, 15080, -4141, -883, 126, 880, -1451, -7, 98, 11, 70, 97, 77, 28, 22, 25, 21, 38
368614818, 4805, 15080, -4141, -883, 126, 880, -1451, -7, 98, 11, 70, 97, 77, 28, 22, 25, 21, 38
368615766, 4851, 15069, -4135, -843, 111, 881, -1443, -194, 135, 20, 70, 97, 77, 28, 22, 25, 21, 38
368620783, 4851, 15069, -4135, -843, 111, 881, -1443, -194, 135, 20, 40, 62, 71, 26, 23, 24, 20, 30
368621547, 4851, 15069, -4135, -843, 111, 881, -1443, -194, 135, 20, 40, 62, 71, 26, 23, 24, 20, 30
368622368, 4851, 15069, -4135, -843, 111, 881, -1443, -194, 135, 20, 40, 62, 71, 26, 23, 24, 20, 30
368623174, 4851, 15069, -4135, -843, 111, 881, -1443, -194, 135, 20, 40, 62, 71, 26, 23, 24, 20, 30
368628124, 4851, 15069, -4135, -843, 111, 881, -1443, -194, 135, 20, 40, 62, 71, 26, 23, 24, 20, 30
368628942, 4851, 15069, -4135, -843, 111, 881, -1443, -194, 135, 20, 40, 62, 71, 26, 23, 24, 20, 30
368629748, 4851, 15069, -4135, -843, 111, 881, -1443, -194, 135, 20, 40, 62, 71, 26, 23, 24, 20, 30
368630607, 4851, 15069, -4135, -843, 111, 881, -1443, -194, 135, 20, 40, 62, 71, 26, 23, 24, 20, 30
368635641, 4851, 15069, -4135, -843, 111, 881, -1443, -194, 135, 20, 40, 62, 71, 26, 23, 24, 20, 30
368636556, 4886, 15061, -4129, -824, 120, 860, -1443, -234, 146, 11, 40, 62, 71, 26, 23, 24, 20, 30
368637367, 4886, 15061, -4129, -824, 120, 860, -1443, -234, 146, 11, 37, 53, 65, 26, 21, 24, 21, 28
368638166, 4886, 15061, -4129, -824, 120, 860, -1443, -234, 146, 11, 37, 53, 65, 26, 21, 24, 21, 28
368643194, 4886, 15061, -4129, -824, 120, 860, -1443, -234, 146, 11, 37, 53, 65, 26, 21, 24, 21, 28
368644034, 4886, 15061, -4129, -824, 120, 860, -1443, -234, 146, 11, 37, 53, 65, 26, 21, 24, 21, 28
368644842, 4886, 15061, -4129, -824, 120, 860, -1443, -234, 146, 11, 37, 53, 65, 26, 21, 24, 21, 28
368645672, 4886, 15061, -4129, -824, 120, 860, -1443, -234, 146, 11, 37, 53, 65, 26, 21, 24, 21, 28
368650592, 4886, 15061, -4129, -824, 120, 860, -1443, -234, 146, 11, 37, 53, 65, 26, 21, 24, 21, 28
368651464, 4886, 15061, -4129, -824, 120, 860, -1443, -234, 146, 11, 37, 53, 65, 26, 21, 24, 21, 28
368652217, 4886, 15061, -4129, -824, 120, 860, -1443, -234, 146, 11, 37, 53, 65, 26, 21, 24, 21, 28
368653082, 4886, 15061, -4129, -824, 120, 860, -1443, -234, 146, 11, 37, 53, 65, 26, 21, 24, 21, 28
368658139, 4886, 15061, -4129, -824, 120, 860, -1443, -234, 146, 11, 37, 53, 65, 26, 21, 24, 21, 28
368659072, 4914, 15054, -4123, -802, 108, 845, -1449, -207, 159, 16, 37, 53, 65, 26, 21, 24, 21, 28
368659880, 4914, 15054, -4123, -802, 108, 845, -1449, -207, 159, 16, 38, 40, 54, 25, 21, 24, 22, 30
368660753, 4914, 15054, -4123, -802, 108, 845, -1449, -207, 159, 16, 38, 40, 54, 25, 21, 24, 22, 30
368665741, 4914, 15054, -4123, -802, 108, 845, -1449, -207, 159, 16, 38, 40, 54, 25, 21, 24, 22, 30
368666522, 4914, 15054, -4123, -802, 108, 845, -1449, -207, 159, 16, 38, 40, 54, 25, 21, 24, 22, 30
368667318, 4914, 15054, -4123, -802, 108, 845, -1449, -207, 159, 16, 38, 40, 54, 25, 21, 24, 22, 30
368668146, 4914, 15054, -4123, -802, 108, 845, -1449, -207, 159, 16, 38, 40, 54, 25, 21, 24, 22, 30
368673143, 4914, 15054, -4123, -802, 108, 845, -1449, -207, 159, 16, 38, 40, 54, 25, 21, 24, 22, 30
368673959, 4914, 15054, -4123, -802, 108, 845, -1449, -207, 159, 16, 38, 40, 54, 25, 21, 24, 22, 30
368674766, 4914, 15054, -4123, -802, 108, 845, -1449, -207, 159, 16, 38, 40, 54, 25, 21, 24, 22, 30
368675610, 4914, 15054, -4123, -802, 108, 845, -1449, -207, 159, 16, 38, 40, 54, 25, 21, 24, 22, 30
368680645, 4914, 15054, -4123, -802, 108, 845, -1449, -207, 159, 16, 38, 40, 54, 25, 21, 24, 22, 30
368681586, 4932, 15052, -4116, -778, 87, 817, -1432, -152, 172, 16, 38, 40, 54, 25, 21, 24, 22, 30
368682388, 4932, 15052, -4116, -778, 87, 817, -1432, -152, 172, 16, 36, 39, 57, 26, 20, 23, 21, 26
368683216, 4932, 15052, -4116, -778, 87, 817, -1432, -152, 172, 16, 36, 39, 57, 26, 20, 23, 21, 26
368688262, 4932, 15052, -4116, -778, 87, 817, -1432, -152, 172, 16, 36, 39, 57, 26, 20, 23, 21, 26
368689042, 4932, 15052, -4116, -778, 87, 817, -1432, -152, 172, 16, 36, 39, 57, 26, 20, 23, 21, 26
368689868, 4932, 15052, -4116, -778, 87, 817, -1432, -152, 172, 16, 36, 39, 57, 26, 20, 23, 21, 26
368690741, 4932, 15052, -4116, -778, 87, 817, -1432, -152, 172, 16, 36, 39, 57, 26, 20, 23, 21, 26
368695642, 4932, 15052, -4116, -778, 87, 817, -1432, -152, 172, 16, 36, 39, 57, 26, 20, 23, 21, 26
368696423, 4932, 15052, -4116, -778, 87, 817, -1432, -152, 172, 16, 36, 39, 57, 26, 20, 23, 21, 26
368697240, 4932, 15052, -4116, -778, 87, 817, -1432, -152, 172, 16, 36, 39, 57, 26, 20, 23, 21, 26
368698069, 4932, 15052, -4116, -778, 87, 817, -1432, -152, 172, 16, 36, 39, 57, 26, 20, 23, 21, 26
368703106, 4932, 15052, -4116, -778, 87, 817, -1432, -152, 172, 16, 36, 39, 57, 26, 20, 23, 21, 26
368704059, 4943, 15051, -4109, -751, 70, 835, -1438, -103, 186, 16, 36, 39, 57, 26, 20, 23, 21, 26
368704841, 4943, 15051, -4109, -751, 70, 835, -1438, -103, 186, 16, 31, 37, 57, 24, 23, 23, 20, 24
368705716, 4943, 15051, -4109, -751, 70, 835, -1438, -103, 186, 16, 31, 37, 57, 24, 23, 23, 20, 24
368710716, 4943, 15051, -4109, -751, 70, 835, -1438, -103, 186, 16, 31, 37, 57, 24, 23, 23, 20, 24
368711509, 4943, 15051, -4109, -751, 70, 835, -1438, -103, 186, 16, 31, 37, 57, 24, 23, 23, 20, 24
368712372, 4943, 15051, -4109, -751, 70, 835, -1438, -103, 186, 16, 31, 37, 57, 24, 23, 23, 20, 24
368713141, 4943, 15051, -4109, -751, 70, 835, -1438, -103, 186, 16, 31, 37, 57, 24, 23, 23, 20, 24
368718082, 4943, 15051, -4109, -751, 70, 835, -1438, -103, 186, 16, 31, 37, 57, 24, 23, 23, 20, 24
368718892, 4943, 15051, -4109, -751, 70, 835, -1438, -103, 186, 16, 31, 37, 57, 24, 23, 23, 20, 24
368719717, 4943, 15051, -4109, -751, 70, 835, -1438, -103, 186, 16, 31, 37, 57, 24, 23, 23, 20, 24
368720519, 4943, 15051, -4109, -751, 70, 835, -1438, -103, 186, 16, 31, 37, 57, 24, 23, 23, 20, 24
368725609, 4943, 15051, -4109, -751, 70, 835, -1438, -103, 186, 16, 31, 37, 57, 24, 23, 23, 20, 24
368726540, 4954, 15051, -4100, -725, 70, 862, -1429, -96, 190, 12, 31, 37, 57, 24, 23, 23, 20, 24
368727340, 4954, 15051, -4100, -725, 70, 862, -1429, -96, 190, 12, 27, 29, 55, 25, 22, 22, 21, 25
368728140, 4954, 15051, -4100, -725, 70, 862, -1429, -96, 190, 12, 27, 29, 55, 25, 22, 22, 21, 25
368733218, 4954, 15051, -4100, -725, 70, 862, -1429, -96, 190, 12, 27, 29, 55, 25, 22, 22, 21, 25
368734031, 4954, 15051, -4100, -725, 70, 862, -1429, -96, 190, 12, 27, 29, 55, 25, 22, 22, 21, 25
368734840, 4954, 15051, -4100, -725, 70, 862, -1429, -96, 190, 12, 27, 29, 55, 25, 22, 22, 21, 25
368735716, 4954, 15051, -4100, -725, 70, 862, -1429, -96, 190, 12, 27, 29, 55, 25, 22, 22, 21, 25
368740616, 4954, 15051, -4100, -725, 70, 862, -1429, -96, 190, 12, 27, 29, 55, 25, 22, 22, 21, 25
368741416, 4954, 15051, -4100, -725, 70, 862, -1429, -96, 190, 12, 27, 29, 55, 25, 22, 22, 21, 25
368742240, 4954, 15051, -4100, -725, 70, 862, -1429, -96, 190, 12, 27, 29, 55, 25, 22, 22, 21, 25
368743041, 4954, 15051, -4100, -725, 70, 862, -1429, -96, 190, 12, 27, 29, 55, 25, 22, 22, 21, 25
368748143, 4954, 15051, -4100, -725, 70, 862, -1429, -96, 190, 12, 27, 29, 55, 25, 22, 22, 21, 25
368749098, 4972, 15049, -4091, -699, 83, 882, -1444, -124, 191, 13, 27, 29, 55, 25, 22, 22, 21, 25
368749892, 4972, 15049, -4091, -699, 83, 882, -1444, -124, 191, 13, 27, 29, 52, 24, 24, 21, 21, 25
368750782, 4972, 15049, -4091, -699, 83, 882, -1444, -124, 191, 13, 27, 29, 52, 24, 24, 21, 21, 25
368755748, 4972, 15049, -4091, -699, 83, 882, -1444, -124, 191, 13, 27, 29, 52, 24, 24, 21, 21, 25
368756549, 4972, 15049, -4091, -699, 83, 882, -1444, -124, 191, 13, 27, 29, 52, 24, 24, 21, 21, 25
368757364, 4972, 15049, -4091, -699, 83, 882, -1444, -124, 191, 13, 27, 29, 52, 24, 24, 21, 21, 25
368758197, 4972, 15049, -4091, -699, 83, 882, -1444, -124, 191, 13, 27, 29, 52, 24, 24, 21, 21, 25
368763138, 4972, 15049, -4091, -699, 83, 882, -1444, -124, 191, 13, 27, 29, 52, 24, 24, 21, 21, 25
368763945, 4972, 15049, -4091, -699, 83, 882, -1444, -124, 191, 13, 27, 29, 52, 24, 24, 21, 21, 25
368764742, 4972, 15049, -4091, -699, 83, 882, -1444, -124, 191, 13, 27, 29, 52, 24, 24, 21, 21, 25
368765585, 4972, 15049, -4091, -699, 83, 882, -1444, -124, 191, 13, 27, 29, 52, 24, 24, 21, 21, 25
368770617, 4972, 15049, -4091, -699, 83, 882, -1444, -124, 191, 13, 27, 29, 52, 24, 24, 21, 21, 25
368771553, 4997, 15044, -4082, -676, 95, 887, -1444, -176, 190, 13, 27, 29, 52, 24, 24, 21, 21, 25
368772383, 4997, 15044, -4082, -676, 95, 887, -1444, -176, 190, 13, 28, 33, 66, 26, 24, 21, 22, 28
368773191, 4997, 15044, -4082, -676, 95, 887, -1444, -176, 190, 13, 28, 33, 66, 26, 24, 21, 22, 28
368778233, 4997, 15044, -4082, -676, 95, 887, -1444, -176, 190, 13, 28, 33, 66, 26, 24, 21, 22, 28
368779017, 4997, 15044, -4082, -676, 95, 887, -1444, -176, 190, 13, 28, 33, 66, 26, 24, 21, 22, 28
368779858, 4997, 15044, -4082, -676, 95, 887, -1444, -176, 190, 13, 28, 33, 66, 26, 24, 21, 22, 28
368780646, 4997, 15044, -4082, -676, 95, 887, -1444, -176, 190, 13, 28, 33, 66, 26, 24, 21, 22, 28
368785621, 4997, 15044, -4082, -676, 95, 887, -1444, -176, 190, 13, 28, 33, 66, 26, 24, 21, 22, 28
368786398, 4997, 15044, -4082, -676, 95, 887, -1444, -176, 190, 13, 28, 33, 66, 26, 24, 21, 22, 28
368787243, 4997, 15044, -4082, -676, 95, 887, -1444, -176, 190, 13, 28, 33, 66, 26, 24, 21, 22, 28
368788072, 4997, 15044, -4082, -676, 95, 887, -1444, -176, 190, 13, 28, 33, 66, 26, 24, 21, 22, 28
368793195, 4997, 15044, -4082, -676, 95, 887, -1444, -176, 190, 13, 28, 33, 66, 26, 24, 21, 22, 28
368794119, 5028, 15038, -4072, -654, 90, 874, -1432, -212, 192, 11, 28, 33, 66, 26, 24, 21, 22, 28
368794917, 5028, 15038, -4072, -654, 90, 874, -1432, -212, 192, 11, 30, 36, 66, 25, 25, 20, 21, 29
368795771, 5028, 15038, -4072, -654, 90, 874, -1432, -212, 192, 11, 30, 36, 66, 25, 25, 20, 21, 29
368800741, 5028, 15038, -4072, -654, 90, 874, -1432, -212, 192, 11, 30, 36, 66, 25, 25, 20, 21, 29
368801586, 5028, 15038, -4072, -654, 90, 874, -1432, -212, 192, 11, 30, 36, 66, 25, 25, 20, 21, 29
368802380, 5028, 15038, -4072, -654, 90, 874, -1432, -212, 192, 11, 30, 36, 66, 25, 25, 20, 21, 29
368803198, 5028, 15038, -4072, -654, 90, 874, -1432, -212, 192, 11, 30, 36, 66, 25, 25, 20, 21, 29
368808116, 5028, 15038, -4072, -654, 90, 874, -1432, -212, 192, 11, 30, 36, 66, 25, 25, 20, 21, 29
368808981, 5028, 15038, -4072, -654, 90, 874, -1432, -212, 192, 11, 30, 36, 66, 25, 25, 20, 21, 29
368809766, 5028, 15038, -4072, -654, 90, 874, -1432, -212, 192, 11, 30, 36, 66, 25, 25, 20, 21, 29
368810610, 5028, 15038, -4072, -654, 90, 874, -1432, -212, 192, 11, 30, 36, 66, 25, 25, 20, 21, 29
368815642, 5028, 15038, -4072, -654, 90, 874, -1432, -212, 192, 11, 30, 36, 66, 25, 25, 20, 21, 29
368816614, 5055, 15033, -4060, -631, 82, 842, -1428, -202, 198, 4, 30, 36, 66, 25, 25, 20, 21, 29
368817414, 5055, 15033, -4060, -631, 82, 842, -1428, -202, 198, 4, 30, 35, 64, 26, 22, 20, 22, 29
368818219, 5055, 15033, -4060, -631, 82, 842, -1428, -202, 198, 4, 30, 35, 64, 26, 22, 20, 22, 29
368823182, 5055, 15033, -4060, -631, 82, 842, -1428, -202, 198, 4, 30, 35, 64, 26, 22, 20, 22, 29
368824028, 5055, 15033, -4060, -631, 82, 842, -1428, -202, 198, 4, 30, 35, 64, 26, 22, 20, 22, 29
368824870, 5055, 15033, -4060, -631, 82, 842, -1428, -202, 198, 4, 30, 35, 64, 26, 22, 20, 22, 29
368825645, 5055, 15033, -4060, -631, 82, 842, -1428, -202, 198, 4, 30, 35, 64, 26, 22, 20, 22, 29
368830632, 5055, 15033, -4060, -631, 82, 842, -1428, -202, 198, 4, 30, 35, 64, 26, 22, 20, 22, 29
368831422, 5055, 15033, -4060, -631, 82, 842, -1428, -202, 198, 4, 30, 35, 64, 26, 22, 20, 22, 29
368832239, 5055, 15033, -4060, -631, 82, 842, -1428, -202, 198, 4, 30, 35, 64, 26, 22, 20, 22, 29
368833041, 5055, 15033, -4060, -631, 82, 842, -1428, -202, 198, 4, 30, 35, 64, 26, 22, 20, 22, 29
368838102, 5055, 15033, -4060, -631, 82, 842, -1428, -202, 198, 4, 30, 35, 64, 26, 22, 20, 22, 29
368839044, 5074, 15031, -4047, -607, 82, 832, -1418, -159, 205, -7, 30, 35, 64, 26, 22, 20, 22, 29
368839877, 5074, 15031, -4047, -607, 82, 832, -1418, -159, 205, -7, 33, 37, 70, 28, 24, 22, 21, 31
368840741, 5074, 15031, -4047, -607, 82, 832, -1418, -159, 205, -7, 30, 35, 64, 26, 22, 20, 22, 29
368845781, 5074, 15031, -4047, -607, 82, 832, -1418, -159, 205, -7, 33, 37, 70, 28, 24, 22, 21, 31
368846508, 5074, 15031, -4047, -607, 82, 832, -1418, -159, 205, -7, 33, 37, 70, 28, 24, 22, 21, 31
368847347, 5074, 15031, -4047, -607, 82, 832, -1418, -159, 205, -7, 33, 37, 70, 28, 24, 22, 21, 31
368848116, 5074, 15031, -4047, -607, 82, 832, -1418, -159, 205, -7, 33, 37, 70, 28, 24, 22, 21, 31
368853183, 5074, 15031, -4047, -607, 82, 832, -1418, -159, 205, -7, 33, 37, 70, 28, 24, 22, 21, 31
368853942, 5074, 15031, -4047, -607, 82, 832, -1418, -159, 205, -7, 33, 37, 70, 28, 24, 22, 21, 31
368854808, 5074, 15031, -4047, -607, 82, 832, -1418, -159, 205, -7, 33, 37, 70, 28, 24, 22, 21, 31
368855592, 5074, 15031, -4047, -607, 82, 832, -1418, -159, 205, -7, 33, 37, 70, 28, 24, 22, 21, 31
368860671, 5074, 15031, -4047, -607, 82, 832, -1418, -159, 205, -7, 33, 37, 70, 28, 24, 22, 21, 31
368861594, 5088, 15031, -4032, -582, 84, 853, -1437, -124, 204, -21, 33, 37, 70, 28, 24, 22, 21, 31
368862438, 5088, 15031, -4032, -582, 84, 853, -1437, -124, 204, -21, 32, 37, 74, 28, 21, 21, 23, 31
368863217, 5088, 15031, -4032, -582, 84, 853, -1437, -124, 204, -21, 32, 37, 74, 28, 21, 21, 23, 31
368868226, 5088, 15031, -4032, -582, 84, 853, -1437, -124, 204, -21, 32, 37, 74, 28, 21, 21, 23, 31
368869041, 5088, 15031, -4032, -582, 84, 853, -1437, -124, 204, -21, 32, 37, 74, 28, 21, 21, 23, 31
368869838, 5088, 15031, -4032, -582, 84, 853, -1437, -124, 204, -21, 32, 37, 74, 28, 21, 21, 23, 31
368870742, 5088, 15031, -4032, -582, 84, 853, -1437, -124, 204, -21, 32, 37, 74, 28, 21, 21, 23, 31
368875638, 5088, 15031, -4032, -582, 84, 853, -1437, -124, 204, -21, 32, 37, 74, 28, 21, 21, 23, 31
368876422, 5088, 15031, -4032, -582, 84, 853, -1437, -124, 204, -21, 32, 37, 74, 28, 21, 21, 23, 31
368877233, 5088, 15031, -4032, -582, 84, 853, -1437, -124, 204, -21, 32, 37, 74, 28, 21, 21, 23, 31
368878066, 5088, 15031, -4032, -582, 84, 853, -1437, -124, 204, -21, 32, 37, 74, 28, 21, 21, 23, 31
368883144, 5088, 15031, -4032, -582, 84, 853, -1437, -124, 204, -21, 32, 37, 74, 28, 21, 21, 23, 31
368884069, 5096, 15033, -4017, -558, 97, 853, -1461, -105, 188, -27, 32, 37, 74, 28, 21, 21, 23, 31
368884907, 5096, 15033, -4017, -558, 97, 853, -1461, -105, 188, -27, 29, 40, 70, 27, 20, 23, 22, 24
368885752, 5096, 15033, -4017, -558, 97, 853, -1461, -105, 188, -27, 29, 40, 70, 27, 20, 23, 22, 24
368890776, 5096, 15033, -4017, -558, 97, 853, -1461, -105, 188, -27, 29, 40, 70, 27, 20, 23, 22, 24
368891529, 5096, 15033, -4017, -558, 97, 853, -1461, -105, 188, -27, 29, 40, 70, 27, 20, 23, 22, 24
368892326, 5096, 15033, -4017, -558, 97, 853, -1461, -105, 188, -27, 29, 40, 70, 27, 20, 23, 22, 24
368893154, 5096, 15033, -4017, -558, 97, 853, -1461, -105, 188, -27, 29, 40, 70, 27, 20, 23, 22, 24
368898096, 5096, 15033, -4017, -558, 97, 853, -1461, -105, 188, -27, 29, 40, 70, 27, 20, 23, 22, 24
368898891, 5096, 15033, -4017, -558, 97, 853, -1461, -105, 188, -27, 29, 40, 70, 27, 20, 23, 22, 24
368899782, 5096, 15033, -4017, -558, 97, 853, -1461, -105, 188, -27, 29, 40, 70, 27, 20, 23, 22, 24
368900520, 5096, 15033, -4017, -558, 97, 853, -1461, -105, 188, -27, 29, 40, 70, 27, 20, 23, 22, 24
368905707, 5096, 15033, -4017, -558, 97, 853, -1461, -105, 188, -27, 29, 40, 70, 27, 20, 23, 22, 24
368906594, 5102, 15036, -4004, -539, 93, 863, -1458, -92, 160, -24, 29, 40, 70, 27, 20, 23, 22, 24
368907439, 5102, 15036, -4004, -539, 93, 863, -1458, -92, 160, -24, 27, 38, 70, 26, 22, 24, 21, 22
368908217, 5102, 15036, -4004, -539, 93, 863, -1458, -92, 160, -24, 27, 38, 70, 26, 22, 24, 21, 22
368913284, 5102, 15036, -4004, -539, 93, 863, -1458, -92, 160, -24, 27, 38, 70, 26, 22, 24, 21, 22
368914042, 5102, 15036, -4004, -539, 93, 863, -1458, -92, 160, -24, 27, 38, 70, 26, 22, 24, 21, 22
368914907, 5102, 15036, -4004, -539, 93, 863, -1458, -92, 160, -24, 27, 38, 70, 26, 22, 24, 21, 22
368915765, 5102, 15036, -4004, -539, 93, 863, -1458, -92, 160, -24, 27, 38, 70, 26, 22, 24, 21, 22
368920619, 5102, 15036, -4004, -539, 93, 863, -1458, -92, 160, -24, 27, 38, 70, 26, 22, 24, 21, 22
368921446, 5102, 15036, -4004, -539, 93, 863, -1458, -92, 160, -24, 27, 38, 70, 26, 22, 24, 21, 22
368922263, 5102, 15036, -4004, -539, 93, 863, -1458, -92, 160, -24, 27, 38, 70, 26, 22, 24, 21, 22
368923066, 5102, 15036, -4004, -539, 93, 863, -1458, -92, 160, -24, 27, 38, 70, 26, 22, 24, 21, 22
368928163, 5102, 15036, -4004, -539, 93, 863, -1458, -92, 160, -24, 27, 38, 70, 26, 22, 24, 21, 22
368929069, 5104, 15038, -3992, -526, 83, 856, -1454, -85, 126, -23, 27, 38, 70, 26, 22, 24, 21, 22
368929932, 5104, 15038, -3992, -526, 83, 856, -1454, -85, 126, -23, 27, 39, 71, 31, 22, 25, 23, 24
368930742, 5104, 15038, -3992, -526, 83, 856, -1454, -85, 126, -23, 27, 39, 71, 31, 22, 25, 23, 24
368935783, 5104, 15038, -3992, -526, 83, 856, -1454, -85, 126, -23, 27, 39, 71, 31, 22, 25, 23, 24
368936521, 5104, 15038, -3992, -526, 83, 856, -1454, -85, 126, -23, 27, 39, 71, 31, 22, 25, 23, 24
368937358, 5104, 15038, -3992, -526, 83, 856, -1454, -85, 126, -23, 27, 39, 71, 31, 22, 25, 23, 24
368938143, 5104, 15038, -3992, -526, 83, 856, -1454, -85, 126, -23, 27, 39, 71, 31, 22, 25, 23, 24
368943135, 5104, 15038, -3992, -526, 83, 856, -1454, -85, 126, -23, 27, 39, 71, 31, 22, 25, 23, 24
368943927, 5104, 15038, -3992, -526, 83, 856, -1454, -85, 126, -23, 27, 39, 71, 31, 22, 25, 23, 24
368944766, 5104, 15038, -3992, -526, 83, 856, -1454, -85, 126, -23, 27, 39, 71, 31, 22, 25, 23, 24
368945585, 5104, 15038, -3992, -526, 83, 856, -1454, -85, 126, -23, 27, 39, 71, 31, 22, 25, 23, 24
368950639, 5104, 15038, -3992, -526, 83, 856, -1454, -85, 126, -23, 27, 39, 71, 31, 22, 25, 23, 24
368951573, 5105, 15041, -3983, -518, 94, 865, -1443, -72, 93, -22, 27, 39, 71, 31, 22, 25, 23, 24
368952387, 5105, 15041, -3983, -518, 94, 865, -1443, -72, 93, -22, 28, 38, 64, 29, 21, 23, 22, 25
368953203, 5105, 15041, -3983, -518, 94, 865, -1443, -72, 93, -22, 27, 39, 71, 31, 22, 25, 23, 24
368958192, 5105, 15041, -3983, -518, 94, 865, -1443, -72, 93, -22, 28, 38, 64, 29, 21, 23, 22, 25
368959015, 5105, 15041, -3983, -518, 94, 865, -1443, -72, 93, -22, 28, 38, 64, 29, 21, 23, 22, 25
368959830, 5105, 15041, -3983, -518, 94, 865, -1443, -72, 93, -22, 28, 38, 64, 29, 21, 23, 22, 25
368960646, 5105, 15041, -3983, -518, 94, 865, -1443, -72, 93, -22, 28, 38, 64, 29, 21, 23, 22, 25
368965591, 5105, 15041, -3983, -518, 94, 865, -1443, -72, 93, -22, 28, 38, 64, 29, 21, 23, 22, 25
368966438, 5105, 15041, -3983, -518, 94, 865, -1443, -72, 93, -22, 28, 38, 64, 29, 21, 23, 22, 25
368967239, 5105, 15041, -3983, -518, 94, 865, -1443, -72, 93, -22, 28, 38, 64, 29, 21, 23, 22, 25
368968028, 5105, 15041, -3983, -518, 94, 865, -1443, -72, 93, -22, 28, 38, 64, 29, 21, 23, 22, 25
368973142, 5105, 15041, -3983, -518, 94, 865, -1443, -72, 93, -22, 28, 38, 64, 29, 21, 23, 22, 25
368974135, 5104, 15043, -3977, -515, 85, 870, -1443, -70, 60, -16, 28, 38, 64, 29, 21, 23, 22, 25
368974914, 5104, 15043, -3977, -515, 85, 870, -1443, -70, 60, -16, 29, 40, 68, 30, 22, 25, 21, 32
368975770, 5104, 15043, -3977, -515, 85, 870, -1443, -70, 60, -16, 29, 40, 68, 30, 22, 25, 21, 32
368980741, 5104, 15043, -3977, -515, 85, 870, -1443, -70, 60, -16, 29, 40, 68, 30, 22, 25, 21, 32
368981586, 5104, 15043, -3977, -515, 85, 870, -1443, -70, 60, -16, 29, 40, 68, 30, 22, 25, 21, 32
368982367, 5104, 15043, -3977, -515, 85, 870, -1443, -70, 60, -16, 29, 40, 68, 30, 22, 25, 21, 32
368983208, 5104, 15043, -3977, -515, 85, 870, -1443, -70, 60, -16, 29, 40, 68, 30, 22, 25, 21, 32
368988116, 5104, 15043, -3977, -515, 85, 870, -1443, -70, 60, -16, 29, 40, 68, 30, 22, 25, 21, 32
368988983, 5104, 15043, -3977, -515, 85, 870, -1443, -70, 60, -16, 29, 40, 68, 30, 22, 25, 21, 32
368989742, 5104, 15043, -3977, -515, 85, 870, -1443, -70, 60, -16, 29, 40, 68, 30, 22, 25, 21, 32
368990598, 5104, 15043, -3977, -515, 85, 870, -1443, -70, 60, -16, 29, 40, 68, 30, 22, 25, 21, 32
368995657, 5104, 15043, -3977, -515, 85, 870, -1443, -70, 60, -16, 29, 40, 68, 30, 22, 25, 21, 32
368996569, 5098, 15046, -3972, -516, 80, 860, -1449, -55, 33, -12, 29, 40, 68, 30, 22, 25, 21, 32
368997433, 5098, 15046, -3972, -516, 80, 860, -1449, -55, 33, -12, 31, 37, 58, 30, 23, 23, 22, 32
368998192, 5098, 15046, -3972, -516, 80, 860, -1449, -55, 33, -12, 31, 37, 58, 30, 23, 23, 22, 32
369003209, 5098, 15046, -3972, -516, 80, 860, -1449, -55, 33, -12, 31, 37, 58, 30, 23, 23, 22, 32
369004016, 5098, 15046, -3972, -516, 80, 860, -1449, -55, 33, -12, 31, 37, 58, 30, 23, 23, 22, 32
369004882, 5098, 15046, -3972, -516, 80, 860, -1449, -55, 33, -12, 31, 37, 58, 30, 23, 23, 22, 32
369005644, 5098, 15046, -3972, -516, 80, 860, -1449, -55, 33, -12, 31, 37, 58, 30, 23, 23, 22, 32
369010633, 5098, 15046, -3972, -516, 80, 860, -1449, -55, 33, -12, 31, 37, 58, 30, 23, 23, 22, 32
369011423, 5098, 15046, -3972, -516, 80, 860, -1449, -55, 33, -12, 31, 37, 58, 30, 23, 23, 22, 32
369012231, 5098, 15046, -3972, -516, 80, 860, -1449, -55, 33, -12, 31, 37, 58, 30, 23, 23, 22, 32
369013041, 5098, 15046, -3972, -516, 80, 860, -1449, -55, 33, -12, 31, 37, 58, 30, 23, 23, 22, 32
369018158, 5098, 15046, -3972, -516, 80, 860, -1449, -55, 33, -12, 31, 37, 58, 30, 23, 23, 22, 32
369019045, 5091, 15049, -3970, -521, 68, 869, -1429, -41, 8, -6, 31, 37, 58, 30, 23, 23, 22, 32
369019907, 5091, 15049, -3970, -521, 68, 869, -1429, -41, 8, -6, 32, 34, 55, 30, 20, 24, 22, 31
369020742, 5091, 15049, -3970, -521, 68, 869, -1429, -41, 8, -6, 32, 34, 55, 30, 20, 24, 22, 31
369025746, 5091, 15049, -3970, -521, 68, 869, -1429, -41, 8, -6, 32, 34, 55, 30, 20, 24, 22, 31
369026511, 5091, 15049, -3970, -521, 68, 869, -1429, -41, 8, -6, 32, 34, 55, 30, 20, 24, 22, 31
369027317, 5091, 15049, -3970, -521, 68, 869, -1429, -41, 8, -6, 32, 34, 55, 30, 20, 24, 22, 31
369028157, 5091, 15049, -3970, -521, 68, 869, -1429, -41, 8, -6, 32, 34, 55, 30, 20, 24, 22, 31
369033089, 5091, 15049, -3970, -521, 68, 869, -1429, -41, 8, -6, 32, 34, 55, 30, 20, 24, 22, 31
369033920, 5091, 15049, -3970, -521, 68, 869, -1429, -41, 8, -6, 32, 34, 55, 30, 20, 24, 22, 31
369034741, 5091, 15049, -3970, -521, 68, 869, -1429, -41, 8, -6, 32, 34, 55, 30, 20, 24, 22, 31
369035549, 5091, 15049, -3970, -521, 68, 869, -1429, -41, 8, -6, 32, 34, 55, 30, 20, 24, 22, 31
369040641, 5091, 15049, -3970, -521, 68, 869, -1429, -41, 8, -6, 32, 34, 55, 30, 20, 24, 22, 31
369041618, 5080, 15052, -3970, -530, 75, 866, -1447, -30, -21, 0, 32, 34, 55, 30, 20, 24, 22, 31
369042435, 5080, 15052, -3970, -530, 75, 866, -1447, -30, -21, 0, 33, 32, 54, 24, 22, 21, 20, 31
369043221, 5080, 15052, -3970, -530, 75, 866, -1447, -30, -21, 0, 33, 32, 54, 24, 22, 21, 20, 31
369048241, 5080, 15052, -3970, -530, 75, 866, -1447, -30, -21, 0, 33, 32, 54, 24, 22, 21, 20, 31
369049051, 5080, 15052, -3970, -530, 75, 866, -1447, -30, -21, 0, 33, 32, 54, 24, 22, 21, 20, 31
369049843, 5080, 15052, -3970, -530, 75, 866, -1447, -30, -21, 0, 33, 32, 54, 24, 22, 21, 20, 31
369050768, 5080, 15052, -3970, -530, 75, 866, -1447, -30, -21, 0, 33, 32, 54, 24, 22, 21, 20, 31
369055616, 5080, 15052, -3970, -530, 75, 866, -1447, -30, -21, 0, 33, 32, 54, 24, 22, 21, 20, 31
369056450, 5080, 15052, -3970, -530, 75, 866, -1447, -30, -21, 0, 33, 32, 54, 24, 22, 21, 20, 31
369057241, 5080, 15052, -3970, -530, 75, 866, -1447, -30, -21, 0, 33, 32, 54, 24, 22, 21, 20, 31
369058057, 5080, 15052, -3970, -530, 75, 866, -1447, -30, -21, 0, 33, 32, 54, 24, 22, 21, 20, 31
369063115, 5080, 15052, -3970, -530, 75, 866, -1447, -30, -21, 0, 33, 32, 54, 24, 22, 21, 20, 31
369064108, 5066, 15056, -3973, -543, 68, 872, -1460, -22, -51, 5, 33, 32, 54, 24, 22, 21, 20, 31
369064887, 5066, 15056, -3973, -543, 68, 872, -1460, -22, -51, 5, 30, 35, 60, 26, 24, 24, 22, 28
369065745, 5066, 15056, -3973, -543, 68, 872, -1460, -22, -51, 5, 30, 35, 60, 26, 24, 24, 22, 28
369070747, 5066, 15056, -3973, -543, 68, 872, -1460, -22, -51, 5, 30, 35, 60, 26, 24, 24, 22, 28
369071510, 5066, 15056, -3973, -543, 68, 872, -1460, -22, -51, 5, 30, 35, 60, 26, 24, 24, 22, 28
369072296, 5066, 15056, -3973, -543, 68, 872, -1460, -22, -51, 5, 30, 35, 60, 26, 24, 24, 22, 28
369073116, 5066, 15056, -3973, -543, 68, 872, -1460, -22, -51, 5, 30, 35, 60, 26, 24, 24, 22, 28
369078066, 5066, 15056, -3973, -543, 68, 872, -1460, -22, -51, 5, 30, 35, 60, 26, 24, 24, 22, 28
369078866, 5066, 15056, -3973, -543, 68, 872, -1460, -22, -51, 5, 30, 35, 60, 26, 24, 24, 22, 28
369079716, 5066, 15056, -3973, -543, 68, 872, -1460, -22, -51, 5, 30, 35, 60, 26, 24, 24, 22, 28
369080531, 5066, 15056, -3973, -543, 68, 872, -1460, -22, -51, 5, 30, 35, 60, 26, 24, 24, 22, 28
369085629, 5066, 15056, -3973, -543, 68, 872, -1460, -22, -51, 5, 30, 35, 60, 26, 24, 24, 22, 28
369086579, 5049, 15059, -3979, -559, 70, 863, -1451, -12, -77, 12, 30, 35, 60, 26, 24, 24, 22, 28
369087361, 5049, 15059, -3979, -559, 70, 863, -1451, -12, -77, 12, 27, 29, 46, 25, 23, 22, 22, 19
369088168, 5049, 15059, -3979, -559, 70, 863, -1451, -12, -77, 12, 27, 29, 46, 25, 23, 22, 22, 19
369093281, 5049, 15059, -3979, -559, 70, 863, -1451, -12, -77, 12, 27, 29, 46, 25, 23, 22, 22, 19
369093992, 5049, 15059, -3979, -559, 70, 863, -1451, -12, -77, 12, 27, 29, 46, 25, 23, 22, 22, 19
369094830, 5049, 15059, -3979, -559, 70, 863, -1451, -12, -77, 12, 27, 29, 46, 25, 23, 22, 22, 19
369095643, 5049, 15059, -3979, -559, 70, 863, -1451, -12, -77, 12, 27, 29, 46, 25, 23, 22, 22, 19
369100624, 5049, 15059, -3979, -559, 70, 863, -1451, -12, -77, 12, 27, 29, 46, 25, 23, 22, 22, 19
369101487, 5049, 15059, -3979, -559, 70, 863, -1451, -12, -77, 12, 27, 29, 46, 25, 23, 22, 22, 19
369102241, 5049, 15059, -3979, -559, 70, 863, -1451, -12, -77, 12, 27, 29, 46, 25, 23, 22, 22, 19
369103090, 5049, 15059, -3979, -559, 70, 863, -1451, -12, -77, 12, 27, 29, 46, 25, 23, 22, 22, 19
369108170, 5049, 15059, -3979, -559, 70, 863, -1451, -12, -77, 12, 27, 29, 46, 25, 23, 22, 22, 19
369109061, 5027, 15064, -3988, -578, 62, 848, -1450, 16, -100, 21, 27, 29, 46, 25, 23, 22, 22, 19
369109890, 5027, 15064, -3988, -578, 62, 848, -1450, 16, -100, 21, 36, 30, 45, 23, 24, 22, 21, 33
369110734, 5027, 15064, -3988, -578, 62, 848, -1450, 16, -100, 21, 36, 30, 45, 23, 24, 22, 21, 33
369115735, 5027, 15064, -3988, -578, 62, 848, -1450, 16, -100, 21, 36, 30, 45, 23, 24, 22, 21, 33
369116509, 5027, 15064, -3988, -578, 62, 848, -1450, 16, -100, 21, 36, 30, 45, 23, 24, 22, 21, 33
369117316, 5027, 15064, -3988, -578, 62, 848, -1450, 16, -100, 21, 36, 30, 45, 23, 24, 22, 21, 33
369118116, 5027, 15064, -3988, -578, 62, 848, -1450, 16, -100, 21, 36, 30, 45, 23, 24, 22, 21, 33
369123120, 5027, 15064, -3988, -578, 62, 848, -1450, 16, -100, 21, 36, 30, 45, 23, 24, 22, 21, 33
369123915, 5027, 15064, -3988, -578, 62, 848, -1450, 16, -100, 21, 36, 30, 45, 23, 24, 22, 21, 33
369124782, 5027, 15064, -3988, -578, 62, 848, -1450, 16, -100, 21, 36, 30, 45, 23, 24, 22, 21, 33
369125558, 5027, 15064, -3988, -578, 62, 848, -1450, 16, -100, 21, 36, 30, 45, 23, 24, 22, 21, 33
369130628, 5027, 15064, -3988, -578, 62, 848, -1450, 16, -100, 21, 36, 30, 45, 23, 24, 22, 21, 33
369131550, 5000, 15069, -4000, -598, 67, 845, -1468, 30, -126, 32, 36, 30, 45, 23, 24, 22, 21, 33
369132409, 5000, 15069, -4000, -598, 67, 845, -1468, 30, -126, 32, 35, 31, 45, 23, 26, 20, 21, 36
369133189, 5000, 15069, -4000, -598, 67, 845, -1468, 30, -126, 32, 35, 31, 45, 23, 26, 20, 21, 36
369138222, 5000, 15069, -4000, -598, 67, 845, -1468, 30, -126, 32, 35, 31, 45, 23, 26, 20, 21, 36
369139005, 5000, 15069, -4000, -598, 67, 845, -1468, 30, -126, 32, 35, 31, 45, 23, 26, 20, 21, 36
369139857, 5000, 15069, -4000, -598, 67, 845, -1468, 30, -126, 32, 35, 31, 45, 23, 26, 20, 21, 36
369140620, 5000, 15069, -4000, -598, 67, 845, -1468, 30, -126, 32, 35, 31, 45, 23, 26, 20, 21, 36
369145582, 5000, 15069, -4000, -598, 67, 845, -1468, 30, -126, 32, 35, 31, 45, 23, 26, 20, 21, 36
369146391, 5000, 15069, -4000, -598, 67, 845, -1468, 30, -126, 32, 35, 31, 45, 23, 26, 20, 21, 36
369147208, 5000, 15069, -4000, -598, 67, 845, -1468, 30, -126, 32, 35, 31, 45, 23, 26, 20, 21, 36
369147992, 5000, 15069, -4000, -598, 67, 845, -1468, 30, -126, 32, 35, 31, 45, 23, 26, 20, 21, 36
369160617, 5000, 15069, -4000, -598, 67, 845, -1468, 30, -126, 32, 35, 31, 45, 23, 26, 20, 21, 36
369161588, 4971, 15073, -4015, -621, 74, 853, -1479, 37, -153, 37, 35, 31, 45, 23, 26, 20, 21, 36
369162366, 4971, 15073, -4015, -621, 74, 853, -1479, 37, -153, 37, 35, 35, 53, 24, 26, 22, 24, 37
369163266, 4971, 15073, -4015, -621, 74, 853, -1479, 37, -153, 37, 35, 35, 53, 24, 26, 22, 24, 37
369168213, 4971, 15073, -4015, -621, 74, 853, -1479, 37, -153, 37, 35, 35, 53, 24, 26, 22, 24, 37
369169024, 4971, 15073, -4015, -621, 74, 853, -1479, 37, -153, 37, 35, 35, 53, 24, 26, 22, 24, 37
369169804, 4971, 15073, -4015, -621, 74, 853, -1479, 37, -153, 37, 35, 35, 53, 24, 26, 22, 24, 37
369170660, 4971, 15073, -4015, -621, 74, 853, -1479, 37, -153, 37, 35, 35, 53, 24, 26, 22, 24, 37
369175591, 4971, 15073, -4015, -621, 74, 853, -1479, 37, -153, 37, 35, 35, 53, 24, 26, 22, 24, 37
369176439, 4971, 15073, -4015, -621, 74, 853, -1479, 37, -153, 37, 35, 35, 53, 24, 26, 22, 24, 37
369177239, 4971, 15073, -4015, -621, 74, 853, -1479, 37, -153, 37, 35, 35, 53, 24, 26, 22, 24, 37
369178082, 4971, 15073, -4015, -621, 74, 853, -1479, 37, -153, 37, 35, 35, 53, 24, 26, 22, 24, 37
369183092, 4971, 15073, -4015, -621, 74, 853, -1479, 37, -153, 37, 35, 35, 53, 24, 26, 22, 24, 37
369184086, 4943, 15077, -4032, -649, 70, 857, -1489, 30, -179, 44, 35, 35, 53, 24, 26, 22, 24, 37
369184842, 4943, 15077, -4032, -649, 70, 857, -1489, 30, -179, 44, 36, 29, 43, 21, 25, 20, 21, 38
369185753, 4943, 15077, -4032, -649, 70, 857, -1489, 30, -179, 44, 36, 29, 43, 21, 25, 20, 21, 38
369190666, 4943, 15077, -4032, -649, 70, 857, -1489, 30, -179, 44, 36, 29, 43, 21, 25, 20, 21, 38
369191519, 4943, 15077, -4032, -649, 70, 857, -1489, 30, -179, 44, 36, 29, 43, 21, 25, 20, 21, 38
369192317, 4943, 15077, -4032, -649, 70, 857, -1489, 30, -179, 44, 36, 29, 43, 21, 25, 20, 21, 38
369193157, 4943, 15077, -4032, -649, 70, 857, -1489, 30, -179, 44, 36, 29, 43, 21, 25, 20, 21, 38
369198071, 4943, 15077, -4032, -649, 70, 857, -1489, 30, -179, 44, 36, 29, 43, 21, 25, 20, 21, 38
369198892, 4943, 15077, -4032, -649, 70, 857, -1489, 30, -179, 44, 36, 29, 43, 21, 25, 20, 21, 38
369199787, 4943, 15077, -4032, -649, 70, 857, -1489, 30, -179, 44, 36, 29, 43, 21, 25, 20, 21, 38
369200547, 4943, 15077, -4032, -649, 70, 857, -1489, 30, -179, 44, 36, 29, 43, 21, 25, 20, 21, 38
369205649, 4943, 15077, -4032, -649, 70, 857, -1489, 30, -179, 44, 36, 29, 43, 21, 25, 20, 21, 38
369206599, 4916, 15079, -4051, -680, 72, 851, -1480, 23, -204, 47, 36, 29, 43, 21, 25, 20, 21, 38
369207392, 4916, 15079, -4051, -680, 72, 851, -1480, 23, -204, 47, 37, 34, 50, 23, 26, 20, 20, 38
369208257, 4916, 15079, -4051, -680, 72, 851, -1480, 23, -204, 47, 37, 34, 50, 23, 26, 20, 20, 38
369213218, 4916, 15079, -4051, -680, 72, 851, -1480, 23, -204, 47, 37, 34, 50, 23, 26, 20, 20, 38
369214046, 4916, 15079, -4051, -680, 72, 851, -1480, 23, -204, 47, 37, 34, 50, 23, 26, 20, 20, 38
369214842, 4916, 15079, -4051, -680, 72, 851, -1480, 23, -204, 47, 37, 34, 50, 23, 26, 20, 20, 38
369215686, 4916, 15079, -4051, -680, 72, 851, -1480, 23, -204, 47, 37, 34, 50, 23, 26, 20, 20, 38
369220617, 4916, 15079, -4051, -680, 72, 851, -1480, 23, -204, 47, 37, 34, 50, 23, 26, 20, 20, 38
369221450, 4916, 15079, -4051, -680, 72, 851, -1480, 23, -204, 47, 37, 34, 50, 23, 26, 20, 20, 38
369222264, 4916, 15079, -4051, -680, 72, 851, -1480, 23, -204, 47, 37, 34, 50, 23, 26, 20, 20, 38
369223053, 4916, 15079, -4051, -680, 72, 851, -1480, 23, -204, 47, 37, 34, 50, 23, 26, 20, 20, 38
369228116, 4916, 15079, -4051, -680, 72, 851, -1480, 23, -204, 47, 37, 34, 50, 23, 26, 20, 20, 38
369229109, 4889, 15081, -4072, -714, 81, 841, -1474, 17, -229, 46, 37, 34, 50, 23, 26, 20, 20, 38
369229867, 4889, 15081, -4072, -714, 81, 841, -1474, 17, -229, 46, 27, 32, 54, 24, 27, 20, 20, 27
369230783, 4889, 15081, -4072, -714, 81, 841, -1474, 17, -229, 46, 27, 32, 54, 24, 27, 20, 20, 27
369235741, 4889, 15081, -4072, -714, 81, 841, -1474, 17, -229, 46, 27, 32, 54, 24, 27, 20, 20, 27
369236524, 4889, 15081, -4072, -714, 81, 841, -1474, 17, -229, 46, 27, 32, 54, 24, 27, 20, 20, 27
369237328, 4889, 15081, -4072, -714, 81, 841, -1474, 17, -229, 46, 27, 32, 54, 24, 27, 20, 20, 27
369238143, 4889, 15081, -4072, -714, 81, 841, -1474, 17, -229, 46, 27, 32, 54, 24, 27, 20, 20, 27
369243093, 4889, 15081, -4072, -714, 81, 841, -1474, 17, -229, 46, 27, 32, 54, 24, 27, 20, 20, 27
369243924, 4889, 15081, -4072, -714, 81, 841, -1474, 17, -229, 46, 27, 32, 54, 24, 27, 20, 20, 27
369244746, 4889, 15081, -4072, -714, 81, 841, -1474, 17, -229, 46, 27, 32, 54, 24, 27, 20, 20, 27
369245537, 4889, 15081, -4072, -714, 81, 841, -1474, 17, -229, 46, 27, 32, 54, 24, 27, 20, 20, 27
369250593, 4889, 15081, -4072, -714, 81, 841, -1474, 17, -229, 46, 27, 32, 54, 24, 27, 20, 20, 27
369251547, 4859, 15083, -4093, -751, 73, 834, -1469, 23, -250, 43, 27, 32, 54, 24, 27, 20, 20, 27
369252362, 4859, 15083, -4093, -751, 73, 834, -1469, 23, -250, 43, 27, 31, 55, 25, 25, 21, 22, 24
369253187, 4859, 15083, -4093, -751, 73, 834, -1469, 23, -250, 43, 27, 31, 55, 25, 25, 21, 22, 24
369258167, 4859, 15083, -4093, -751, 73, 834, -1469, 23, -250, 43, 27, 31, 55, 25, 25, 21, 22, 24
369259019, 4859, 15083, -4093, -751, 73, 834, -1469, 23, -250, 43, 27, 31, 55, 25, 25, 21, 22, 24
369259792, 4859, 15083, -4093, -751, 73, 834, -1469, 23, -250, 43, 27, 31, 55, 25, 25, 21, 22, 24
369260612, 4859, 15083, -4093, -751, 73, 834, -1469, 23, -250, 43, 27, 31, 55, 25, 25, 21, 22, 24
369265565, 4859, 15083, -4093, -751, 73, 834, -1469, 23, -250, 43, 27, 31, 55, 25, 25, 21, 22, 24
369266393, 4859, 15083, -4093, -751, 73, 834, -1469, 23, -250, 43, 27, 31, 55, 25, 25, 21, 22, 24
369267192, 4859, 15083, -4093, -751, 73, 834, -1469, 23, -250, 43, 27, 31, 55, 25, 25, 21, 22, 24
369268029, 4859, 15083, -4093, -751, 73, 834, -1469, 23, -250, 43, 27, 31, 55, 25, 25, 21, 22, 24
369273141, 4859, 15083, -4093, -751, 73, 834, -1469, 23, -250, 43, 27, 31, 55, 25, 25, 21, 22, 24
369274098, 4828, 15085, -4115, -791, 56, 828, -1451, 37, -263, 44, 27, 31, 55, 25, 25, 21, 22, 24
369274892, 4828, 15085, -4115, -791, 56, 828, -1451, 37, -263, 44, 32, 29, 46, 25, 23, 22, 20, 25
369275771, 4828, 15085, -4115, -791, 56, 828, -1451, 37, -263, 44, 32, 29, 46, 25, 23, 22, 20, 25
369280742, 4828, 15085, -4115, -791, 56, 828, -1451, 37, -263, 44, 32, 29, 46, 25, 23, 22, 20, 25
369281546, 4828, 15085, -4115, -791, 56, 828, -1451, 37, -263, 44, 32, 29, 46, 25, 23, 22, 20, 25
369282341, 4828, 15085, -4115, -791, 56, 828, -1451, 37, -263, 44, 32, 29, 46, 25, 23, 22, 20, 25
369283133, 4828, 15085, -4115, -791, 56, 828, -1451, 37, -263, 44, 32, 29, 46, 25, 23, 22, 20, 25
369288102, 4828, 15085, -4115, -791, 56, 828, -1451, 37, -263, 44, 32, 29, 46, 25, 23, 22, 20, 25
369288922, 4828, 15085, -4115, -791, 56, 828, -1451, 37, -263, 44, 32, 29, 46, 25, 23, 22, 20, 25
369289754, 4828, 15085, -4115, -791, 56, 828, -1451, 37, -263, 44, 32, 29, 46, 25, 23, 22, 20, 25
369290542, 4828, 15085, -4115, -791, 56, 828, -1451, 37, -263, 44, 32, 29, 46, 25, 23, 22, 20, 25
369295639, 4828, 15085, -4115, -791, 56, 828, -1451, 37, -263, 44, 32, 29, 46, 25, 23, 22, 20, 25
369296552, 4796, 15087, -4138, -833, 51, 836, -1443, 46, -281, 45, 32, 29, 46, 25, 23, 22, 20, 25
369297407, 4796, 15087, -4138, -833, 51, 836, -1443, 46, -281, 45, 34, 31, 47, 27, 21, 23, 20, 29
369298192, 4796, 15087, -4138, -833, 51, 836, -1443, 46, -281, 45, 34, 31, 47, 27, 21, 23, 20, 29
369303200, 4796, 15087, -4138, -833, 51, 836, -1443, 46, -281, 45, 34, 31, 47, 27, 21, 23, 20, 29
369304066, 4796, 15087, -4138, -833, 51, 836, -1443, 46, -281, 45, 34, 31, 47, 27, 21, 23, 20, 29
369304822, 4796, 15087, -4138, -833, 51, 836, -1443, 46, -281, 45, 34, 31, 47, 27, 21, 23, 20, 29
369305599, 4796, 15087, -4138, -833, 51, 836, -1443, 46, -281, 45, 34, 31, 47, 27, 21, 23, 20, 29
369310564, 4796, 15087, -4138, -833, 51, 836, -1443, 46, -281, 45, 34, 31, 47, 27, 21, 23, 20, 29
369311400, 4796, 15087, -4138, -833, 51, 836, -1443, 46, -281, 45, 34, 31, 47, 27, 21, 23, 20, 29
369312216, 4796, 15087, -4138, -833, 51, 836, -1443, 46, -281, 45, 34, 31, 47, 27, 21, 23, 20, 29
369313043, 4796, 15087, -4138, -833, 51, 836, -1443, 46, -281, 45, 34, 31, 47, 27, 21, 23, 20, 29
369318092, 4796, 15087, -4138, -833, 51, 836, -1443, 46, -281, 45, 34, 31, 47, 27, 21, 23, 20, 29
369319062, 4762, 15089, -4161, -875, 64, 837, -1421, 65, -293, 40, 34, 31, 47, 27, 21, 23, 20, 29
369319865, 4762, 15089, -4161, -875, 64, 837, -1421, 65, -293, 40, 33, 28, 42, 28, 24, 25, 21, 31
369320656, 4762, 15089, -4161, -875, 64, 837, -1421, 65, -293, 40, 33, 28, 42, 28, 24, 25, 21, 31
369325688, 4762, 15089, -4161, -875, 64, 837, -1421, 65, -293, 40, 33, 28, 42, 28, 24, 25, 21, 31
369326491, 4762, 15089, -4161, -875, 64, 837, -1421, 65, -293, 40, 33, 28, 42, 28, 24, 25, 21, 31
369327292, 4762, 15089, -4161, -875, 64, 837, -1421, 65, -293, 40, 33, 28, 42, 28, 24, 25, 21, 31
369328108, 4762, 15089, -4161, -875, 64, 837, -1421, 65, -293, 40, 33, 28, 42, 28, 24, 25, 21, 31
369333116, 4762, 15089, -4161, -875, 64, 837, -1421, 65, -293, 40, 33, 28, 42, 28, 24, 25, 21, 31
369333955, 4762, 15089, -4161, -875, 64, 837, -1421, 65, -293, 40, 33, 28, 42, 28, 24, 25, 21, 31
369334741, 4762, 15089, -4161, -875, 64, 837, -1421, 65, -293, 40, 33, 28, 42, 28, 24, 25, 21, 31
369335568, 4762, 15089, -4161, -875, 64, 837, -1421, 65, -293, 40, 33, 28, 42, 28, 24, 25, 21, 31
369340657, 4762, 15089, -4161, -875, 64, 837, -1421, 65, -293, 40, 33, 28, 42, 28, 24, 25, 21, 31
369341604, 4726, 15091, -4184, -920, 55, 841, -1429, 77, -313, 34, 33, 28, 42, 28, 24, 25, 21, 31
369342367, 4726, 15091, -4184, -920, 55, 841, -1429, 77, -313, 34, 33, 30, 43, 27, 20, 24, 20, 33
369343203, 4726, 15091, -4184, -920, 55, 841, -1429, 77, -313, 34, 33, 30, 43, 27, 20, 24, 20, 33
369348192, 4726, 15091, -4184, -920, 55, 841, -1429, 77, -313, 34, 33, 30, 43, 27, 20, 24, 20, 33
369349045, 4726, 15091, -4184, -920, 55, 841, -1429, 77, -313, 34, 33, 30, 43, 27, 20, 24, 20, 33
369349818, 4726, 15091, -4184, -920, 55, 841, -1429, 77, -313, 34, 33, 30, 43, 27, 20, 24, 20, 33
369350685, 4726, 15091, -4184, -920, 55, 841, -1429, 77, -313, 34, 33, 30, 43, 27, 20, 24, 20, 33
369355671, 4726, 15091, -4184, -920, 55, 841, -1429, 77, -313, 34, 33, 30, 43, 27, 20, 24, 20, 33
369356395, 4726, 15091, -4184, -920, 55, 841, -1429, 77, -313, 34, 33, 30, 43, 27, 20, 24, 20, 33
369357275, 4726, 15091, -4184, -920, 55, 841, -1429, 77, -313, 34, 33, 30, 43, 27, 20, 24, 20, 33
369358065, 4726, 15091, -4184, -920, 55, 841, -1429, 77, -313, 34, 33, 30, 43, 27, 20, 24, 20, 33
369363092, 4726, 15091, -4184, -920, 55, 841, -1429, 77, -313, 34, 33, 30, 43, 27, 20, 24, 20, 33
369364071, 4693, 15091, -4209, -970, 51, 862, -1418, 59, -341, 41, 33, 30, 43, 27, 20, 24, 20, 33
369364868, 4693, 15091, -4209, -970, 51, 862, -1418, 59, -341, 41, 33, 32, 45, 27, 20, 27, 19, 32
369365769, 4693, 15091, -4209, -970, 51, 862, -1418, 59, -341, 41, 33, 32, 45, 27, 20, 27, 19, 32
369370658, 4693, 15091, -4209, -970, 51, 862, -1418, 59, -341, 41, 33, 32, 45, 27, 20, 27, 19, 32
369371510, 4693, 15091, -4209, -970, 51, 862, -1418, 59, -341, 41, 33, 32, 45, 27, 20, 27, 19, 32
369372317, 4693, 15091, -4209, -970, 51, 862, -1418, 59, -341, 41, 33, 32, 45, 27, 20, 27, 19, 32
369373143, 4693, 15091, -4209, -970, 51, 862, -1418, 59, -341, 41, 33, 32, 45, 27, 20, 27, 19, 32
369378067, 4693, 15091, -4209, -970, 51, 862, -1418, 59, -341, 41, 33, 32, 45, 27, 20, 27, 19, 32
369378921, 4693, 15091, -4209, -970, 51, 862, -1418, 59, -341, 41, 33, 32, 45, 27, 20, 27, 19, 32
369379764, 4693, 15091, -4209, -970, 51, 862, -1418, 59, -341, 41, 33, 32, 45, 27, 20, 27, 19, 32
369380542, 4693, 15091, -4209, -970, 51, 862, -1418, 59, -341, 41, 33, 32, 45, 27, 20, 27, 19, 32
369385642, 4693, 15091, -4209, -970, 51, 862, -1418, 59, -341, 41, 33, 32, 45, 27, 20, 27, 19, 32
369386598, 4656, 15091, -4234, -1032, 16, 849, -1408, 71, -397, 27, 33, 32, 45, 27, 20, 27, 19, 32
369387387, 4656, 15091, -4234, -1032, 16, 849, -1408, 71, -397, 27, 28, 34, 49, 26, 20, 25, 19, 30
369388226, 4656, 15091, -4234, -1032, 16, 849, -1408, 71, -397, 27, 28, 34, 49, 26, 20, 25, 19, 30
369393217, 4656, 15091, -4234, -1032, 16, 849, -1408, 71, -397, 27, 28, 34, 49, 26, 20, 25, 19, 30
369394058, 4656, 15091, -4234, -1032, 16, 849, -1408, 71, -397, 27, 28, 34, 49, 26, 20, 25, 19, 30
369394842, 4656, 15091, -4234, -1032, 16, 849, -1408, 71, -397, 27, 28, 34, 49, 26, 20, 25, 19, 30
369395686, 4656, 15091, -4234, -1032, 16, 849, -1408, 71, -397, 27, 28, 34, 49, 26, 20, 25, 19, 30
369400592, 4656, 15091, -4234, -1032, 16, 849, -1408, 71, -397, 27, 28, 34, 49, 26, 20, 25, 19, 30
369401465, 4656, 15091, -4234, -1032, 16, 849, -1408, 71, -397, 27, 28, 34, 49, 26, 20, 25, 19, 30
369402242, 4656, 15091, -4234, -1032, 16, 849, -1408, 71, -397, 27, 28, 34, 49, 26, 20, 25, 19, 30
369403040, 4656, 15091, -4234, -1032, 16, 849, -1408, 71, -397, 27, 28, 34, 49, 26, 20, 25, 19, 30
369408255, 4613, 15091, -4260, -1120, -30, 898, -1423, 80, -527, -4, 28, 34, 49, 26, 20, 25, 19, 30
369409035, 4613, 15091, -4260, -1120, -30, 898, -1423, 80, -527, -4, 25, 38, 48, 29, 25, 26, 21, 26
369409863, 4613, 15091, -4260, -1120, -30, 898, -1423, 80, -527, -4, 28, 34, 49, 26, 20, 25, 19, 30
369410740, 4613, 15091, -4260, -1120, -30, 898, -1423, 80, -527, -4, 25, 38, 48, 29, 25, 26, 21, 26
369415571, 4613, 15091, -4260, -1120, -30, 898, -1423, 80, -527, -4, 25, 38, 48, 29, 25, 26, 21, 26
369416397, 4613, 15091, -4260, -1120, -30, 898, -1423, 80, -527, -4, 25, 38, 48, 29, 25, 26, 21, 26
369417204, 4613, 15091, -4260, -1120, -30, 898, -1423, 80, -527, -4, 25, 38, 48, 29, 25, 26, 21, 26
369418016, 4613, 15091, -4260, -1120, -30, 898, -1423, 80, -527, -4, 25, 38, 48, 29, 25, 26, 21, 26
369423164, 4613, 15091, -4260, -1120, -30, 898, -1423, 80, -527, -4, 25, 38, 48, 29, 25, 26, 21, 26
369424070, 4566, 15087, -4292, -1245, -103, 936, -1349, 83, -716, -11, 25, 38, 48, 29, 25, 26, 21, 26
369424894, 4566, 15087, -4292, -1245, -103, 936, -1349, 83, -716, -11, 27, 38, 55, 44, 48, 32, 23, 26
369425743, 4566, 15087, -4292, -1245, -103, 936, -1349, 83, -716, -11, 27, 38, 55, 44, 48, 32, 23, 26
369438228, 4566, 15087, -4292, -1245, -103, 936, -1349, 83, -716, -11, 27, 38, 55, 44, 48, 32, 23, 26
369439144, 4566, 15087, -4292, -1245, -103, 936, -1349, 83, -716, -11, 27, 38, 55, 44, 48, 32, 23, 26
369439892, 4566, 15087, -4292, -1245, -103, 936, -1349, 83, -716, -11, 27, 38, 55, 44, 48, 32, 23, 26
369440669, 4566, 15087, -4292, -1245, -103, 936, -1349, 83, -716, -11, 27, 38, 55, 44, 48, 32, 23, 26
369445634, 4566, 15087, -4292, -1245, -103, 936, -1349, 83, -716, -11, 27, 38, 55, 44, 48, 32, 23, 26
369446451, 4566, 15087, -4292, -1245, -103, 936, -1349, 83, -716, -11, 27, 38, 55, 44, 48, 32, 23, 26
369447245, 4566, 15087, -4292, -1245, -103, 936, -1349, 83, -716, -11, 27, 38, 55, 44, 48, 32, 23, 26
369448044, 4566, 15087, -4292, -1245, -103, 936, -1349, 83, -716, -11, 27, 38, 55, 44, 48, 32, 23, 26
369453191, 4566, 15087, -4292, -1245, -103, 936, -1349, 83, -716, -11, 26, 36, 55, 73, 97, 36, 25, 24
369453967, 4566, 15087, -4292, -1245, -103, 936, -1349, 83, -716, -11, 26, 36, 55, 73, 97, 36, 25, 24
369454818, 4566, 15087, -4292, -1245, -103, 936, -1349, 83, -716, -11, 26, 36, 55, 73, 97, 36, 25, 24
369455621, 4566, 15087, -4292, -1245, -103, 936, -1349, 83, -716, -11, 26, 36, 55, 73, 97, 36, 25, 24
369460578, 4566, 15087, -4292, -1245, -103, 936, -1349, 83, -716, -11, 26, 36, 55, 73, 97, 36, 25, 24
369461392, 4566, 15087, -4292, -1245, -103, 936, -1349, 83, -716, -11, 26, 36, 55, 73, 97, 36, 25, 24
369462193, 4566, 15087, -4292, -1245, -103, 936, -1349, 83, -716, -11, 26, 36, 55, 73, 97, 36, 25, 24
369463032, 4566, 15087, -4292, -1245, -103, 936, -1349, 83, -716, -11, 26, 36, 55, 73, 97, 36, 25, 24
369468118, 4566, 15087, -4292, -1245, -103, 936, -1349, 83, -716, -11, 26, 36, 55, 73, 97, 36, 25, 24
369469111, 4479, 15034, -4410, -1697, -159, 995, -915, -18, -1439, -16, 26, 36, 55, 73, 97, 36, 25, 24
369469894, 4479, 15034, -4410, -1697, -159, 995, -915, -18, -1439, -16, 30, 39, 75, 122, 104, 39, 29, 29
369470740, 4479, 15034, -4410, -1697, -159, 995, -915, -18, -1439, -16, 30, 39, 75, 122, 104, 39, 29, 29
369475742, 4479, 15034, -4410, -1697, -159, 995, -915, -18, -1439, -16, 30, 39, 75, 122, 104, 39, 29, 29
369476549, 4479, 15034, -4410, -1697, -159, 995, -915, -18, -1439, -16, 30, 39, 75, 122, 104, 39, 29, 29
369477364, 4479, 15034, -4410, -1697, -159, 995, -915, -18, -1439, -16, 30, 39, 75, 122, 104, 39, 29, 29
369478169, 4479, 15034, -4410, -1697, -159, 995, -915, -18, -1439, -16, 30, 39, 75, 122, 104, 39, 29, 29
369483092, 4479, 15034, -4410, -1697, -159, 995, -915, -18, -1439, -16, 30, 39, 75, 122, 104, 39, 29, 29
369483957, 4479, 15034, -4410, -1697, -159, 995, -915, -18, -1439, -16, 30, 39, 75, 122, 104, 39, 29, 29
369484763, 4479, 15034, -4410, -1697, -159, 995, -915, -18, -1439, -16, 30, 39, 75, 122, 104, 39, 29, 29
369485568, 4479, 15034, -4410, -1697, -159, 995, -915, -18, -1439, -16, 30, 39, 75, 122, 104, 39, 29, 29
369490597, 4479, 15034, -4410, -1697, -159, 995, -915, -18, -1439, -16, 30, 39, 75, 122, 104, 39, 29, 29
369491559, 4327, 15017, -4493, -1999, -231, 817, -560, 397, -1898, -92, 30, 39, 75, 122, 104, 39, 29, 29
369492363, 4327, 15017, -4493, -1999, -231, 817, -560, 397, -1898, -92, 32, 41, 91, 150, 135, 43, 31, 29
369493206, 4327, 15017, -4493, -1999, -231, 817, -560, 397, -1898, -92, 32, 41, 91, 150, 135, 43, 31, 29
369498167, 4327, 15017, -4493, -1999, -231, 817, -560, 397, -1898, -92, 32, 41, 91, 150, 135, 43, 31, 29
369499033, 4327, 15017, -4493, -1999, -231, 817, -560, 397, -1898, -92, 32, 41, 91, 150, 135, 43, 31, 29
369499816, 4327, 15017, -4493, -1999, -231, 817, -560, 397, -1898, -92, 32, 41, 91, 150, 135, 43, 31, 29
369500643, 4327, 15017, -4493, -1999, -231, 817, -560, 397, -1898, -92, 32, 41, 91, 150, 135, 43, 31, 29
369505566, 4327, 15017, -4493, -1999, -231, 817, -560, 397, -1898, -92, 32, 41, 91, 150, 135, 43, 31, 29
369506420, 4327, 15017, -4493, -1999, -231, 817, -560, 397, -1898, -92, 32, 41, 91, 150, 135, 43, 31, 29
369507191, 4327, 15017, -4493, -1999, -231, 817, -560, 397, -1898, -92, 32, 41, 91, 150, 135, 43, 31, 29
369508015, 4327, 15017, -4493, -1999, -231, 817, -560, 397, -1898, -92, 32, 41, 91, 150, 135, 43, 31, 29
369513107, 4327, 15017, -4493, -1999, -231, 817, -560, 397, -1898, -92, 32, 41, 91, 150, 135, 43, 31, 29
369514019, 3996, 15016, -4624, -2365, -208, 838, -303, 1300, -2563, -86, 32, 41, 91, 150, 135, 43, 31, 29
369514838, 3996, 15016, -4624, -2365, -208, 838, -303, 1300, -2563, -86, 41, 41, 104, 195, 150, 45, 31, 37
369515642, 3996, 15016, -4624, -2365, -208, 838, -303, 1300, -2563, -86, 41, 41, 104, 195, 150, 45, 31, 37
369520686, 3996, 15016, -4624, -2365, -208, 838, -303, 1300, -2563, -86, 41, 41, 104, 195, 150, 45, 31, 37
369521468, 3996, 15016, -4624, -2365, -208, 838, -303, 1300, -2563, -86, 41, 41, 104, 195, 150, 45, 31, 37
369522333, 3996, 15016, -4624, -2365, -208, 838, -303, 1300, -2563, -86, 41, 41, 104, 195, 150, 45, 31, 37
369523127, 3996, 15016, -4624, -2365, -208, 838, -303, 1300, -2563, -86, 41, 41, 104, 195, 150, 45, 31, 37
369528144, 3996, 15016, -4624, -2365, -208, 838, -303, 1300, -2563, -86, 41, 41, 104, 195, 150, 45, 31, 37
369528916, 3996, 15016, -4624, -2365, -208, 838, -303, 1300, -2563, -86, 41, 41, 104, 195, 150, 45, 31, 37
369529764, 3996, 15016, -4624, -2365, -208, 838, -303, 1300, -2563, -86, 41, 41, 104, 195, 150, 45, 31, 37
369530566, 3996, 15016, -4624, -2365, -208, 838, -303, 1300, -2563, -86, 41, 41, 104, 195, 150, 45, 31, 37
369535619, 3996, 15016, -4624, -2365, -208, 838, -303, 1300, -2563, -86, 41, 41, 104, 195, 150, 45, 31, 37
369536586, 3479, 15010, -4816, -2795, -133, 887, -212, 2205, -3277, -21, 41, 41, 104, 195, 150, 45, 31, 37
369537394, 3479, 15010, -4816, -2795, -133, 887, -212, 2205, -3277, -21, 41, 40, 110, 219, 150, 41, 30, 39
369538214, 3479, 15010, -4816, -2795, -133, 887, -212, 2205, -3277, -21, 41, 40, 110, 219, 150, 41, 30, 39
369543208, 3479, 15010, -4816, -2795, -133, 887, -212, 2205, -3277, -21, 41, 40, 110, 219, 150, 41, 30, 39
369544025, 3479, 15010, -4816, -2795, -133, 887, -212, 2205, -3277, -21, 41, 40, 110, 219, 150, 41, 30, 39
369544841, 3479, 15010, -4816, -2795, -133, 887, -212, 2205, -3277, -21, 41, 40, 110, 219, 150, 41, 30, 39
369545666, 3479, 15010, -4816, -2795, -133, 887, -212, 2205, -3277, -21, 41, 40, 110, 219, 150, 41, 30, 39
369550602, 3479, 15010, -4816, -2795, -133, 887, -212, 2205, -3277, -21, 41, 40, 110, 219, 150, 41, 30, 39
369551406, 3479, 15010, -4816, -2795, -133, 887, -212, 2205, -3277, -21, 41, 40, 110, 219, 150, 41, 30, 39
369552217, 3479, 15010, -4816, -2795, -133, 887, -212, 2205, -3277, -21, 41, 40, 110, 219, 150, 41, 30, 39
369553083, 3479, 15010, -4816, -2795, -133, 887, -212, 2205, -3277, -21, 41, 40, 110, 219, 150, 41, 30, 39
369558092, 3479, 15010, -4816, -2795, -133, 887, -212, 2205, -3277, -21, 41, 40, 110, 219, 150, 41, 30, 39
369559071, 2909, 14947, -5066, -3300, 67, 1161, -247, 2378, -3905, 200, 41, 40, 110, 219, 150, 41, 30, 39
369559841, 2909, 14947, -5066, -3300, 67, 1161, -247, 2378, -3905, 200, 42, 41, 114, 227, 126, 38, 29, 39
369560743, 2909, 14947, -5066, -3300, 67, 1161, -247, 2378, -3905, 200, 42, 41, 114, 227, 126, 38, 29, 39
369565666, 2909, 14947, -5066, -3300, 67, 1161, -247, 2378, -3905, 200, 42, 41, 114, 227, 126, 38, 29, 39
369566532, 2909, 14947, -5066, -3300, 67, 1161, -247, 2378, -3905, 200, 42, 41, 114, 227, 126, 38, 29, 39
369567305, 2909, 14947, -5066, -3300, 67, 1161, -247, 2378, -3905, 200, 42, 41, 114, 227, 126, 38, 29, 39
369568119, 2909, 14947, -5066, -3300, 67, 1161, -247, 2378, -3905, 200, 42, 41, 114, 227, 126, 38, 29, 39
369573117, 2909, 14947, -5066, -3300, 67, 1161, -247, 2378, -3905, 200, 42, 41, 114, 227, 126, 38, 29, 39
369573904, 2909, 14947, -5066, -3300, 67, 1161, -247, 2378, -3905, 200, 42, 41, 114, 227, 126, 38, 29, 39
369574749, 2909, 14947, -5066, -3300, 67, 1161, -247, 2378, -3905, 200, 42, 41, 114, 227, 126, 38, 29, 39
369575508, 2909, 14947, -5066, -3300, 67, 1161, -247, 2378, -3905, 200, 42, 41, 114, 227, 126, 38, 29, 39
369580590, 2909, 14947, -5066, -3300, 67, 1161, -247, 2378, -3905, 200, 42, 41, 114, 227, 126, 38, 29, 39
369581530, 2420, 14803, -5330, -3878, 517, 1417, -286, 1802, -4296, 387, 42, 41, 114, 227, 126, 38, 29, 39
369582340, 2420, 14803, -5330, -3878, 517, 1417, -286, 1802, -4296, 387, 40, 37, 102, 206, 122, 34, 27, 35
369583160, 2420, 14803, -5330, -3878, 517, 1417, -286, 1802, -4296, 387, 40, 37, 102, 206, 122, 34, 27, 35
369588148, 2420, 14803, -5330, -3878, 517, 1417, -286, 1802, -4296, 387, 40, 37, 102, 206, 122, 34, 27, 35
369588958, 2420, 14803, -5330, -3878, 517, 1417, -286, 1802, -4296, 387, 40, 37, 102, 206, 122, 34, 27, 35
369589806, 2420, 14803, -5330, -3878, 517, 1417, -286, 1802, -4296, 387, 40, 37, 102, 206, 122, 34, 27, 35
369590608, 2420, 14803, -5330, -3878, 517, 1417, -286, 1802, -4296, 387, 40, 37, 102, 206, 122, 34, 27, 35
369595592, 2420, 14803, -5330, -3878, 517, 1417, -286, 1802, -4296, 387, 40, 37, 102, 206, 122, 34, 27, 35
369596430, 2420, 14803, -5330, -3878, 517, 1417, -286, 1802, -4296, 387, 40, 37, 102, 206, 122, 34, 27, 35
369597264, 2420, 14803, -5330, -3878, 517, 1417, -286, 1802, -4296, 387, 40, 37, 102, 206, 122, 34, 27, 35
369598065, 2420, 14803, -5330, -3878, 517, 1417, -286, 1802, -4296, 387, 40, 37, 102, 206, 122, 34, 27, 35
369603117, 2420, 14803, -5330, -3878, 517, 1417, -286, 1802, -4296, 387, 40, 37, 102, 206, 122, 34, 27, 35
369604068, 2069, 14584, -5587, -4499, 1035, 1464, -353, 951, -4419, 586, 40, 37, 102, 206, 122, 34, 27, 35
369604881, 2069, 14584, -5587, -4499, 1035, 1464, -353, 951, -4419, 586, 41, 42, 97, 197, 116, 32, 25, 35
369605743, 2069, 14584, -5587, -4499, 1035, 1464, -353, 951, -4419, 586, 41, 42, 97, 197, 116, 32, 25, 35
369610767, 2069, 14584, -5587, -4499, 1035, 1464, -353, 951, -4419, 586, 41, 42, 97, 197, 116, 32, 25, 35
369611495, 2069, 14584, -5587, -4499, 1035, 1464, -353, 951, -4419, 586, 41, 42, 97, 197, 116, 32, 25, 35
369612326, 2069, 14584, -5587, -4499, 1035, 1464, -353, 951, -4419, 586, 41, 42, 97, 197, 116, 32, 25, 35
369613148, 2069, 14584, -5587, -4499, 1035, 1464, -353, 951, -4419, 586, 41, 42, 97, 197, 116, 32, 25, 35
369618095, 2069, 14584, -5587, -4499, 1035, 1464, -353, 951, -4419, 586, 41, 42, 97, 197, 116, 32, 25, 35
369618894, 2069, 14584, -5587, -4499, 1035, 1464, -353, 951, -4419, 586, 41, 42, 97, 197, 116, 32, 25, 35
369619751, 2069, 14584, -5587, -4499, 1035, 1464, -353, 951, -4419, 586, 41, 42, 97, 197, 116, 32, 25, 35
369620520, 2069, 14584, -5587, -4499, 1035, 1464, -353, 951, -4419, 586, 41, 42, 97, 197, 116, 32, 25, 35
369625615, 2069, 14584, -5587, -4499, 1035, 1464, -353, 951, -4419, 586, 41, 42, 97, 197, 116, 32, 25, 35
369626525, 1799, 14310, -5827, -5144, 1343, 1314, -370, 416, -4490, 696, 41, 42, 97, 197, 116, 32, 25, 35
369627354, 1799, 14310, -5827, -5144, 1343, 1314, -370, 416, -4490, 696, 34, 45, 91, 193, 99, 28, 27, 31
369628167, 1799, 14310, -5827, -5144, 1343, 1314, -370, 416, -4490, 696, 34, 45, 91, 193, 99, 28, 27, 31
369633207, 1799, 14310, -5827, -5144, 1343, 1314, -370, 416, -4490, 696, 34, 45, 91, 193, 99, 28, 27, 31
369634033, 1799, 14310, -5827, -5144, 1343, 1314, -370, 416, -4490, 696, 34, 45, 91, 193, 99, 28, 27, 31
369634821, 1799, 14310, -5827, -5144, 1343, 1314, -370, 416, -4490, 696, 34, 45, 91, 193, 99, 28, 27, 31
369635642, 1799, 14310, -5827, -5144, 1343, 1314, -370, 416, -4490, 696, 34, 45, 91, 193, 99, 28, 27, 31
369640602, 1799, 14310, -5827, -5144, 1343, 1314, -370, 416, -4490, 696, 34, 45, 91, 193, 99, 28, 27, 31
369641389, 1799, 14310, -5827, -5144, 1343, 1314, -370, 416, -4490, 696, 34, 45, 91, 193, 99, 28, 27, 31
369642215, 1799, 14310, -5827, -5144, 1343, 1314, -370, 416, -4490, 696, 34, 45, 91, 193, 99, 28, 27, 31
369643014, 1799, 14310, -5827, -5144, 1343, 1314, -370, 416, -4490, 696, 34, 45, 91, 193, 99, 28, 27, 31
369648150, 1799, 14310, -5827, -5144, 1343, 1314, -370, 416, -4490, 696, 34, 45, 91, 193, 99, 28, 27, 31
369649070, 1513, 14003, -6038, -5796, 1374, 1186, -275, 396, -4583, 576, 34, 45, 91, 193, 99, 28, 27, 31
369649888, 1513, 14003, -6038, -5796, 1374, 1186, -275, 396, -4583, 576, 42, 49, 91, 176, 93, 27, 26, 38
369650743, 1513, 14003, -6038, -5796, 1374, 1186, -275, 396, -4583, 576, 42, 49, 91, 176, 93, 27, 26, 38
369655750, 1513, 14003, -6038, -5796, 1374, 1186, -275, 396, -4583, 576, 42, 49, 91, 176, 93, 27, 26, 38
369656562, 1513, 14003, -6038, -5796, 1374, 1186, -275, 396, -4583, 576, 42, 49, 91, 176, 93, 27, 26, 38
369657365, 1513, 14003, -6038, -5796, 1374, 1186, -275, 396, -4583, 576, 42, 49, 91, 176, 93, 27, 26, 38
369658183, 1513, 14003, -6038, -5796, 1374, 1186, -275, 396, -4583, 576, 42, 49, 91, 176, 93, 27, 26, 38
369663093, 1513, 14003, -6038, -5796, 1374, 1186, -275, 396, -4583, 576, 42, 49, 91, 176, 93, 27, 26, 38
369663908, 1513, 14003, -6038, -5796, 1374, 1186, -275, 396, -4583, 576, 42, 49, 91, 176, 93, 27, 26, 38
369664717, 1513, 14003, -6038, -5796, 1374, 1186, -275, 396, -4583, 576, 42, 49, 91, 176, 93, 27, 26, 38
369665519, 1513, 14003, -6038, -5796, 1374, 1186, -275, 396, -4583, 576, 42, 49, 91, 176, 93, 27, 26, 38
369670593, 1513, 14003, -6038, -5796, 1374, 1186, -275, 396, -4583, 576, 42, 49, 91, 176, 93, 27, 26, 38
369671567, 1159, 13684, -6193, -6441, 1343, 1199, -96, 615, -4663, 201, 42, 49, 91, 176, 93, 27, 26, 38
369672366, 1159, 13684, -6193, -6441, 1343, 1199, -96, 615, -4663, 201, 42, 56, 97, 160, 95, 28, 27, 40
369673195, 1159, 13684, -6193, -6441, 1343, 1199, -96, 615, -4663, 201, 42, 56, 97, 160, 95, 28, 27, 40
369678167, 1159, 13684, -6193, -6441, 1343, 1199, -96, 615, -4663, 201, 42, 56, 97, 160, 95, 28, 27, 40
369679013, 1159, 13684, -6193, -6441, 1343, 1199, -96, 615, -4663, 201, 42, 56, 97, 160, 95, 28, 27, 40
369679816, 1159, 13684, -6193, -6441, 1343, 1199, -96, 615, -4663, 201, 42, 56, 97, 160, 95, 28, 27, 40
369680611, 1159, 13684, -6193, -6441, 1343, 1199, -96, 615, -4663, 201, 42, 56, 97, 160, 95, 28, 27, 40
369685542, 1159, 13684, -6193, -6441, 1343, 1199, -96, 615, -4663, 201, 42, 56, 97, 160, 95, 28, 27, 40
369686366, 1159, 13684, -6193, -6441, 1343, 1199, -96, 615, -4663, 201, 42, 56, 97, 160, 95, 28, 27, 40
369687166, 1159, 13684, -6193, -6441, 1343, 1199, -96, 615, -4663, 201, 42, 56, 97, 160, 95, 28, 27, 40
369687991, 1159, 13684, -6193, -6441, 1343, 1199, -96, 615, -4663, 201, 42, 56, 97, 160, 95, 28, 27, 40
369700618, 1159, 13684, -6193, -6441, 1343, 1199, -96, 615, -4663, 201, 42, 56, 97, 160, 95, 28, 27, 40
369701577, 762, 13363, -6291, -7051, 1360, 1141, -201, 750, -4568, -155, 42, 56, 97, 160, 95, 28, 27, 40
369702366, 762, 13363, -6291, -7051, 1360, 1141, -201, 750, -4568, -155, 42, 58, 97, 160, 110, 26, 28, 41
369703218, 762, 13363, -6291, -7051, 1360, 1141, -201, 750, -4568, -155, 42, 58, 97, 160, 110, 26, 28, 41
369715741, 762, 13363, -6291, -7051, 1360, 1141, -201, 750, -4568, -155, 42, 58, 97, 160, 110, 26, 28, 41
369716485, 762, 13363, -6291, -7051, 1360, 1141, -201, 750, -4568, -155, 42, 58, 97, 160, 110, 26, 28, 41
369717292, 762, 13363, -6291, -7051, 1360, 1141, -201, 750, -4568, -155, 42, 58, 97, 160, 110, 26, 28, 41
369718116, 762, 13363, -6291, -7051, 1360, 1141, -201, 750, -4568, -155, 42, 58, 97, 160, 110, 26, 28, 41
369723041, 762, 13363, -6291, -7051, 1360, 1141, -201, 750, -4568, -155, 42, 58, 97, 160, 110, 26, 28, 41
369723866, 762, 13363, -6291, -7051, 1360, 1141, -201, 750, -4568, -155, 42, 58, 97, 160, 110, 26, 28, 41
369724715, 762, 13363, -6291, -7051, 1360, 1141, -201, 750, -4568, -155, 42, 58, 97, 160, 110, 26, 28, 41
369725493, 762, 13363, -6291, -7051, 1360, 1141, -201, 750, -4568, -155, 42, 58, 97, 160, 110, 26, 28, 41
369730734, 762, 13363, -6291, -7051, 1360, 1141, -201, 750, -4568, -155, 43, 57, 91, 152, 86, 22, 29, 45
369731491, 762, 13363, -6291, -7051, 1360, 1141, -201, 750, -4568, -155, 43, 57, 91, 152, 86, 22, 29, 45
369732305, 762, 13363, -6291, -7051, 1360, 1141, -201, 750, -4568, -155, 43, 57, 91, 152, 86, 22, 29, 45
369733132, 762, 13363, -6291, -7051, 1360, 1141, -201, 750, -4568, -155, 43, 57, 91, 152, 86, 22, 29, 45
369738093, 762, 13363, -6291, -7051, 1360, 1141, -201, 750, -4568, -155, 43, 57, 91, 152, 86, 22, 29, 45
369738938, 762, 13363, -6291, -7051, 1360, 1141, -201, 750, -4568, -155, 43, 57, 91, 152, 86, 22, 29, 45
369739741, 762, 13363, -6291, -7051, 1360, 1141, -201, 750, -4568, -155, 43, 57, 91, 152, 86, 22, 29, 45
369740570, 762, 13363, -6291, -7051, 1360, 1141, -201, 750, -4568, -155, 43, 57, 91, 152, 86, 22, 29, 45
369745598, 762, 13363, -6291, -7051, 1360, 1141, -201, 750, -4568, -155, 43, 57, 91, 152, 86, 22, 29, 45
369746578, -9, 12706, -6452, -8085, 1693, 1190, -299, 949, -3977, -171, 43, 57, 91, 152, 86, 22, 29, 45
369747368, -9, 12706, -6452, -8085, 1693, 1190, -299, 949, -3977, -171, 48, 60, 96, 106, 85, 24, 28, 55
369748164, -9, 12706, -6452, -8085, 1693, 1190, -299, 949, -3977, -171, 48, 60, 96, 106, 85, 24, 28, 55
369753167, -9, 12706, -6452, -8085, 1693, 1190, -299, 949, -3977, -171, 48, 60, 96, 106, 85, 24, 28, 55
369754014, -9, 12706, -6452, -8085, 1693, 1190, -299, 949, -3977, -171, 48, 60, 96, 106, 85, 24, 28, 55
369754818, -9, 12706, -6452, -8085, 1693, 1190, -299, 949, -3977, -171, 48, 60, 96, 106, 85, 24, 28, 55
369755622, -9, 12706, -6452, -8085, 1693, 1190, -299, 949, -3977, -171, 48, 60, 96, 106, 85, 24, 28, 55
369760569, -9, 12706, -6452, -8085, 1693, 1190, -299, 949, -3977, -171, 48, 60, 96, 106, 85, 24, 28, 55
369761399, -9, 12706, -6452, -8085, 1693, 1190, -299, 949, -3977, -171, 48, 60, 96, 106, 85, 24, 28, 55
369762189, -9, 12706, -6452, -8085, 1693, 1190, -299, 949, -3977, -171, 48, 60, 96, 106, 85, 24, 28, 55
369763056, -9, 12706, -6452, -8085, 1693, 1190, -299, 949, -3977, -171, 48, 60, 96, 106, 85, 24, 28, 55
369768092, -9, 12706, -6452, -8085, 1693, 1190, -299, 949, -3977, -171, 48, 60, 96, 106, 85, 24, 28, 55
369769046, -436, 12386, -6566, -8470, 1720, 1331, -84, 1407, -3612, -208, 48, 60, 96, 106, 85, 24, 28, 55
369769841, -436, 12386, -6566, -8470, 1720, 1331, -84, 1407, -3612, -208, 50, 62, 87, 92, 157, 25, 30, 55
369770655, -436, 12386, -6566, -8470, 1720, 1331, -84, 1407, -3612, -208, 50, 62, 87, 92, 157, 25, 30, 55
369775758, -436, 12386, -6566, -8470, 1720, 1331, -84, 1407, -3612, -208, 50, 62, 87, 92, 157, 25, 30, 55
369776465, -436, 12386, -6566, -8470, 1720, 1331, -84, 1407, -3612, -208, 50, 62, 87, 92, 157, 25, 30, 55
369777268, -436, 12386, -6566, -8470, 1720, 1331, -84, 1407, -3612, -208, 50, 62, 87, 92, 157, 25, 30, 55
369778068, -436, 12386, -6566, -8470, 1720, 1331, -84, 1407, -3612, -208, 50, 62, 87, 92, 157, 25, 30, 55
369783060, -436, 12386, -6566, -8470, 1720, 1331, -84, 1407, -3612, -208, 50, 62, 87, 92, 157, 25, 30, 55
369783867, -436, 12386, -6566, -8470, 1720, 1331, -84, 1407, -3612, -208, 50, 62, 87, 92, 157, 25, 30, 55
369784764, -436, 12386, -6566, -8470, 1720, 1331, -84, 1407, -3612, -208, 50, 62, 87, 92, 157, 25, 30, 55
369785445, -436, 12386, -6566, -8470, 1720, 1331, -84, 1407, -3612, -208, 50, 62, 87, 92, 157, 25, 30, 55
369790644, -436, 12386, -6566, -8470, 1720, 1331, -84, 1407, -3612, -208, 50, 62, 87, 92, 157, 25, 30, 55
369791550, -830, 12075, -6635, -8828, 1672, 1300, 76, 1197, -3372, -323, 50, 62, 87, 92, 157, 25, 30, 55
369792393, -830, 12075, -6635, -8828, 1672, 1300, 76, 1197, -3372, -323, 69, 66, 82, 93, 250, 29, 31, 74
369793192, -830, 12075, -6635, -8828, 1672, 1300, 76, 1197, -3372, -323, 69, 66, 82, 93, 250, 29, 31, 74
369798195, -830, 12075, -6635, -8828, 1672, 1300, 76, 1197, -3372, -323, 69, 66, 82, 93, 250, 29, 31, 74
369799015, -830, 12075, -6635, -8828, 1672, 1300, 76, 1197, -3372, -323, 69, 66, 82, 93, 250, 29, 31, 74
369799858, -830, 12075, -6635, -8828, 1672, 1300, 76, 1197, -3372, -323, 69, 66, 82, 93, 250, 29, 31, 74
369800645, -830, 12075, -6635, -8828, 1672, 1300, 76, 1197, -3372, -323, 69, 66, 82, 93, 250, 29, 31, 74
369805632, -830, 12075, -6635, -8828, 1672, 1300, 76, 1197, -3372, -323, 69, 66, 82, 93, 250, 29, 31, 74
369806398, -830, 12075, -6635, -8828, 1672, 1300, 76, 1197, -3372, -323, 69, 66, 82, 93, 250, 29, 31, 74
369807258, -830, 12075, -6635, -8828, 1672, 1300, 76, 1197, -3372, -323, 69, 66, 82, 93, 250, 29, 31, 74
369808119, -830, 12075, -6635, -8828, 1672, 1300, 76, 1197, -3372, -323, 69, 66, 82, 93, 250, 29, 31, 74
369813084, -830, 12075, -6635, -8828, 1672, 1300, 76, 1197, -3372, -323, 69, 66, 82, 93, 250, 29, 31, 74
369814069, -1101, 11776, -6588, -9228, 1774, 1441, -211, 221, -3292, -468, 69, 66, 82, 93, 250, 29, 31, 74
369814841, -1101, 11776, -6588, -9228, 1774, 1441, -211, 221, -3292, -468, 84, 81, 90, 91, 256, 31, 35, 84
369815782, -1101, 11776, -6588, -9228, 1774, 1441, -211, 221, -3292, -468, 84, 81, 90, 91, 256, 31, 35, 84
369820693, -1101, 11776, -6588, -9228, 1774, 1441, -211, 221, -3292, -468, 84, 81, 90, 91, 256, 31, 35, 84
369821492, -1101, 11776, -6588, -9228, 1774, 1441, -211, 221, -3292, -468, 84, 81, 90, 91, 256, 31, 35, 84
369822313, -1101, 11776, -6588, -9228, 1774, 1441, -211, 221, -3292, -468, 84, 81, 90, 91, 256, 31, 35, 84
369823116, -1101, 11776, -6588, -9228, 1774, 1441, -211, 221, -3292, -468, 84, 81, 90, 91, 256, 31, 35, 84
369828071, -1101, 11776, -6588, -9228, 1774, 1441, -211, 221, -3292, -468, 84, 81, 90, 91, 256, 31, 35, 84
369828867, -1101, 11776, -6588, -9228, 1774, 1441, -211, 221, -3292, -468, 84, 81, 90, 91, 256, 31, 35, 84
369829768, -1101, 11776, -6588, -9228, 1774, 1441, -211, 221, -3292, -468, 84, 81, 90, 91, 256, 31, 35, 84
369830520, -1101, 11776, -6588, -9228, 1774, 1441, -211, 221, -3292, -468, 84, 81, 90, 91, 256, 31, 35, 84
369835595, -1101, 11776, -6588, -9228, 1774, 1441, -211, 221, -3292, -468, 84, 81, 90, 91, 256, 31, 35, 84
369836519, -1274, 11483, -6452, -9662, 2190, 1479, -459, -558, -3250, -548, 84, 81, 90, 91, 256, 31, 35, 84
369837333, -1274, 11483, -6452, -9662, 2190, 1479, -459, -558, -3250, -548, 108, 89, 99, 92, 257, 33, 41, 106
369838127, -1274, 11483, -6452, -9662, 2190, 1479, -459, -558, -3250, -548, 108, 89, 99, 92, 257, 33, 41, 106
369843144, -1274, 11483, -6452, -9662, 2190, 1479, -459, -558, -3250, -548, 108, 89, 99, 92, 257, 33, 41, 106
369843964, -1274, 11483, -6452, -9662, 2190, 1479, -459, -558, -3250, -548, 108, 89, 99, 92, 257, 33, 41, 106
369844768, -1274, 11483, -6452, -9662, 2190, 1479, -459, -558, -3250, -548, 108, 89, 99, 92, 257, 33, 41, 106
369845597, -1274, 11483, -6452, -9662, 2190, 1479, -459, -558, -3250, -548, 108, 89, 99, 92, 257, 33, 41, 106
369850591, -1274, 11483, -6452, -9662, 2190, 1479, -459, -558, -3250, -548, 108, 89, 99, 92, 257, 33, 41, 106
369851457, -1274, 11483, -6452, -9662, 2190, 1479, -459, -558, -3250, -548, 108, 89, 99, 92, 257, 33, 41, 106
369852242, -1274, 11483, -6452, -9662, 2190, 1479, -459, -558, -3250, -548, 108, 89, 99, 92, 257, 33, 41, 106
369853083, -1274, 11483, -6452, -9662, 2190, 1479, -459, -558, -3250, -548, 108, 89, 99, 92, 257, 33, 41, 106
369858106, -1274, 11483, -6452, -9662, 2190, 1479, -459, -558, -3250, -548, 108, 89, 99, 92, 257, 33, 41, 106
369859069, -1376, 11217, -6244, -10087, 2460, 1214, -396, -1083, -2986, -646, 108, 89, 99, 92, 257, 33, 41, 106
369859867, -1376, 11217, -6244, -10087, 2460, 1214, -396, -1083, -2986, -646, 143, 107, 92, 93, 260, 37, 50, 139
369860770, -1376, 11217, -6244, -10087, 2460, 1214, -396, -1083, -2986, -646, 143, 107, 92, 93, 260, 37, 50, 139
369865742, -1376, 11217, -6244, -10087, 2460, 1214, -396, -1083, -2986, -646, 143, 107, 92, 93, 260, 37, 50, 139
369866536, -1376, 11217, -6244, -10087, 2460, 1214, -396, -1083, -2986, -646, 143, 107, 92, 93, 260, 37, 50, 139
369867317, -1376, 11217, -6244, -10087, 2460, 1214, -396, -1083, -2986, -646, 143, 107, 92, 93, 260, 37, 50, 139
369868150, -1376, 11217, -6244, -10087, 2460, 1214, -396, -1083, -2986, -646, 143, 107, 92, 93, 260, 37, 50, 139
369873081, -1376, 11217, -6244, -10087, 2460, 1214, -396, -1083, -2986, -646, 143, 107, 92, 93, 260, 37, 50, 139
369873893, -1376, 11217, -6244, -10087, 2460, 1214, -396, -1083, -2986, -646, 143, 107, 92, 93, 260, 37, 50, 139
369874744, -1376, 11217, -6244, -10087, 2460, 1214, -396, -1083, -2986, -646, 143, 107, 92, 93, 260, 37, 50, 139
369875510, -1376, 11217, -6244, -10087, 2460, 1214, -396, -1083, -2986, -646, 143, 107, 92, 93, 260, 37, 50, 139
369880591, -1376, 11217, -6244, -10087, 2460, 1214, -396, -1083, -2986, -646, 143, 107, 92, 93, 260, 37, 50, 139
369881559, -1466, 10999, -5940, -10489, 2457, 688, -247, -1448, -2717, -1019, 143, 107, 92, 93, 260, 37, 50, 139
369882342, -1466, 10999, -5940, -10489, 2457, 688, -247, -1448, -2717, -1019, 164, 110, 93, 85, 228, 41, 87, 158
369883206, -1466, 10999, -5940, -10489, 2457, 688, -247, -1448, -2717, -1019, 164, 110, 93, 85, 228, 41, 87, 158
369888167, -1466, 10999, -5940, -10489, 2457, 688, -247, -1448, -2717, -1019, 164, 110, 93, 85, 228, 41, 87, 158
369889007, -1466, 10999, -5940, -10489, 2457, 688, -247, -1448, -2717, -1019, 164, 110, 93, 85, 228, 41, 87, 158
369889803, -1466, 10999, -5940, -10489, 2457, 688, -247, -1448, -2717, -1019, 164, 110, 93, 85, 228, 41, 87, 158
369890634, -1466, 10999, -5940, -10489, 2457, 688, -247, -1448, -2717, -1019, 164, 110, 93, 85, 228, 41, 87, 158
369895582, -1466, 10999, -5940, -10489, 2457, 688, -247, -1448, -2717, -1019, 164, 110, 93, 85, 228, 41, 87, 158
369896410, -1466, 10999, -5940, -10489, 2457, 688, -247, -1448, -2717, -1019, 164, 110, 93, 85, 228, 41, 87, 158
369897223, -1466, 10999, -5940, -10489, 2457, 688, -247, -1448, -2717, -1019, 164, 110, 93, 85, 228, 41, 87, 158
369897994, -1466, 10999, -5940, -10489, 2457, 688, -247, -1448, -2717, -1019, 164, 110, 93, 85, 228, 41, 87, 158
369903110, -1466, 10999, -5940, -10489, 2457, 688, -247, -1448, -2717, -1019, 164, 110, 93, 85, 228, 41, 87, 158
369904007, -1579, 10826, -5576, -10847, 2371, 350, -258, -1524, -2444, -1388, 164, 110, 93, 85, 228, 41, 87, 158
369904817, -1579, 10826, -5576, -10847, 2371, 350, -258, -1524, -2444, -1388, 171, 112, 86, 79, 120, 42, 90, 162
369905686, -1579, 10826, -5576, -10847, 2371, 350, -258, -1524, -2444, -1388, 164, 110, 93, 85, 228, 41, 87, 158
369910642, -1579, 10826, -5576, -10847, 2371, 350, -258, -1524, -2444, -1388, 171, 112, 86, 79, 120, 42, 90, 162
369911508, -1579, 10826, -5576, -10847, 2371, 350, -258, -1524, -2444, -1388, 171, 112, 86, 79, 120, 42, 90, 162
369912267, -1579, 10826, -5576, -10847, 2371, 350, -258, -1524, -2444, -1388, 171, 112, 86, 79, 120, 42, 90, 162
369913133, -1579, 10826, -5576, -10847, 2371, 350, -258, -1524, -2444, -1388, 171, 112, 86, 79, 120, 42, 90, 162
369918093, -1579, 10826, -5576, -10847, 2371, 350, -258, -1524, -2444, -1388, 171, 112, 86, 79, 120, 42, 90, 162
369918957, -1579, 10826, -5576, -10847, 2371, 350, -258, -1524, -2444, -1388, 171, 112, 86, 79, 120, 42, 90, 162
369919764, -1579, 10826, -5576, -10847, 2371, 350, -258, -1524, -2444, -1388, 171, 112, 86, 79, 120, 42, 90, 162
369920573, -1579, 10826, -5576, -10847, 2371, 350, -258, -1524, -2444, -1388, 171, 112, 86, 79, 120, 42, 90, 162
369925596, -1579, 10826, -5576, -10847, 2371, 350, -258, -1524, -2444, -1388, 171, 112, 86, 79, 120, 42, 90, 162
369926547, -1713, 10678, -5228, -11142, 2212, 313, -342, -1285, -2144, -1469, 171, 112, 86, 79, 120, 42, 90, 162
369927367, -1713, 10678, -5228, -11142, 2212, 313, -342, -1285, -2144, -1469, 184, 110, 79, 82, 101, 44, 90, 171
369928207, -1713, 10678, -5228, -11142, 2212, 313, -342, -1285, -2144, -1469, 184, 110, 79, 82, 101, 44, 90, 171
369933167, -1713, 10678, -5228, -11142, 2212, 313, -342, -1285, -2144, -1469, 184, 110, 79, 82, 101, 44, 90, 171
369934032, -1713, 10678, -5228, -11142, 2212, 313, -342, -1285, -2144, -1469, 184, 110, 79, 82, 101, 44, 90, 171
369934816, -1713, 10678, -5228, -11142, 2212, 313, -342, -1285, -2144, -1469, 184, 110, 79, 82, 101, 44, 90, 171
369935661, -1713, 10678, -5228, -11142, 2212, 313, -342, -1285, -2144, -1469, 184, 110, 79, 82, 101, 44, 90, 171
369940659, -1713, 10678, -5228, -11142, 2212, 313, -342, -1285, -2144, -1469, 184, 110, 79, 82, 101, 44, 90, 171
369941372, -1713, 10678, -5228, -11142, 2212, 313, -342, -1285, -2144, -1469, 184, 110, 79, 82, 101, 44, 90, 171
369942193, -1713, 10678, -5228, -11142, 2212, 313, -342, -1285, -2144, -1469, 184, 110, 79, 82, 101, 44, 90, 171
369943059, -1713, 10678, -5228, -11142, 2212, 313, -342, -1285, -2144, -1469, 184, 110, 79, 82, 101, 44, 90, 171
369948115, -1713, 10678, -5228, -11142, 2212, 313, -342, -1285, -2144, -1469, 184, 110, 79, 82, 101, 44, 90, 171
369949047, -1861, 10570, -4945, -11349, 2069, 319, -508, -861, -1670, -1402, 184, 110, 79, 82, 101, 44, 90, 171
369949841, -1861, 10570, -4945, -11349, 2069, 319, -508, -861, -1670, -1402, 182, 102, 60, 76, 98, 43, 89, 165
369950686, -1861, 10570, -4945, -11349, 2069, 319, -508, -861, -1670, -1402, 182, 102, 60, 76, 98, 43, 89, 165
369955643, -1861, 10570, -4945, -11349, 2069, 319, -508, -861, -1670, -1402, 182, 102, 60, 76, 98, 43, 89, 165
369956493, -1861, 10570, -4945, -11349, 2069, 319, -508, -861, -1670, -1402, 182, 102, 60, 76, 98, 43, 89, 165
369957291, -1861, 10570, -4945, -11349, 2069, 319, -508, -861, -1670, -1402, 182, 102, 60, 76, 98, 43, 89, 165
369958113, -1861, 10570, -4945, -11349, 2069, 319, -508, -861, -1670, -1402, 182, 102, 60, 76, 98, 43, 89, 165
369963042, -1861, 10570, -4945, -11349, 2069, 319, -508, -861, -1670, -1402, 182, 102, 60, 76, 98, 43, 89, 165
369963907, -1861, 10570, -4945, -11349, 2069, 319, -508, -861, -1670, -1402, 182, 102, 60, 76, 98, 43, 89, 165
369964745, -1861, 10570, -4945, -11349, 2069, 319, -508, -861, -1670, -1402, 182, 102, 60, 76, 98, 43, 89, 165
369965486, -1861, 10570, -4945, -11349, 2069, 319, -508, -861, -1670, -1402, 182, 102, 60, 76, 98, 43, 89, 165
369970641, -1861, 10570, -4945, -11349, 2069, 319, -508, -861, -1670, -1402, 182, 102, 60, 76, 98, 43, 89, 165
369971573, -1950, 10515, -4792, -11451, 1911, 537, -597, -488, -1130, -1273, 182, 102, 60, 76, 98, 43, 89, 165
369972367, -1950, 10515, -4792, -11451, 1911, 537, -597, -488, -1130, -1273, 195, 112, 53, 60, 90, 42, 102, 148
369973223, -1950, 10515, -4792, -11451, 1911, 537, -597, -488, -1130, -1273, 195, 112, 53, 60, 90, 42, 102, 148
369978193, -1950, 10515, -4792, -11451, 1911, 537, -597, -488, -1130, -1273, 195, 112, 53, 60, 90, 42, 102, 148
369979019, -1950, 10515, -4792, -11451, 1911, 537, -597, -488, -1130, -1273, 195, 112, 53, 60, 90, 42, 102, 148
369979818, -1950, 10515, -4792, -11451, 1911, 537, -597, -488, -1130, -1273, 195, 112, 53, 60, 90, 42, 102, 148
369980653, -1950, 10515, -4792, -11451, 1911, 537, -597, -488, -1130, -1273, 195, 112, 53, 60, 90, 42, 102, 148
369985600, -1950, 10515, -4792, -11451, 1911, 537, -597, -488, -1130, -1273, 195, 112, 53, 60, 90, 42, 102, 148
369986401, -1950, 10515, -4792, -11451, 1911, 537, -597, -488, -1130, -1273, 195, 112, 53, 60, 90, 42, 102, 148
369987216, -1950, 10515, -4792, -11451, 1911, 537, -597, -488, -1130, -1273, 195, 112, 53, 60, 90, 42, 102, 148
369988016, -1950, 10515, -4792, -11451, 1911, 537, -597, -488, -1130, -1273, 195, 112, 53, 60, 90, 42, 102, 148
369993133, -1950, 10515, -4792, -11451, 1911, 537, -597, -488, -1130, -1273, 195, 112, 53, 60, 90, 42, 102, 148
369994066, -2010, 10505, -4738, -11471, 1697, 788, -599, -104, -543, -1024, 195, 112, 53, 60, 90, 42, 102, 148
369994854, -2010, 10505, -4738, -11471, 1697, 788, -599, -104, -543, -1024, 199, 139, 51, 60, 87, 46, 93, 130
369995764, -2010, 10505, -4738, -11471, 1697, 788, -599, -104, -543, -1024, 199, 139, 51, 60, 87, 46, 93, 130
370000694, -2010, 10505, -4738, -11471, 1697, 788, -599, -104, -543, -1024, 199, 139, 51, 60, 87, 46, 93, 130
370001504, -2010, 10505, -4738, -11471, 1697, 788, -599, -104, -543, -1024, 199, 139, 51, 60, 87, 46, 93, 130
370002319, -2010, 10505, -4738, -11471, 1697, 788, -599, -104, -543, -1024, 199, 139, 51, 60, 87, 46, 93, 130
370003117, -2010, 10505, -4738, -11471, 1697, 788, -599, -104, -543, -1024, 199, 139, 51, 60, 87, 46, 93, 130
370008107, -2010, 10505, -4738, -11471, 1697, 788, -599, -104, -543, -1024, 199, 139, 51, 60, 87, 46, 93, 130
370008867, -2010, 10505, -4738, -11471, 1697, 788, -599, -104, -543, -1024, 199, 139, 51, 60, 87, 46, 93, 130
370009781, -2010, 10505, -4738, -11471, 1697, 788, -599, -104, -543, -1024, 199, 139, 51, 60, 87, 46, 93, 130
370010495, -2010, 10505, -4738, -11471, 1697, 788, -599, -104, -543, -1024, 199, 139, 51, 60, 87, 46, 93, 130
370015606, -2010, 10505, -4738, -11471, 1697, 788, -599, -104, -543, -1024, 199, 139, 51, 60, 87, 46, 93, 130
370016541, -2068, 10565, -4813, -11375, 1579, 855, -816, 507, 120, -765, 199, 139, 51, 60, 87, 46, 93, 130
370017357, -2068, 10565, -4813, -11375, 1579, 855, -816, 507, 120, -765, 197, 149, 52, 55, 80, 42, 92, 128
370018141, -2068, 10565, -4813, -11375, 1579, 855, -816, 507, 120, -765, 197, 149, 52, 55, 80, 42, 92, 128
370023154, -2068, 10565, -4813, -11375, 1579, 855, -816, 507, 120, -765, 197, 149, 52, 55, 80, 42, 92, 128
370023966, -2068, 10565, -4813, -11375, 1579, 855, -816, 507, 120, -765, 197, 149, 52, 55, 80, 42, 92, 128
370024799, -2068, 10565, -4813, -11375, 1579, 855, -816, 507, 120, -765, 197, 149, 52, 55, 80, 42, 92, 128
370025595, -2068, 10565, -4813, -11375, 1579, 855, -816, 507, 120, -765, 197, 149, 52, 55, 80, 42, 92, 128
370030600, -2068, 10565, -4813, -11375, 1579, 855, -816, 507, 120, -765, 197, 149, 52, 55, 80, 42, 92, 128
370031423, -2068, 10565, -4813, -11375, 1579, 855, -816, 507, 120, -765, 197, 149, 52, 55, 80, 42, 92, 128
370032244, -2068, 10565, -4813, -11375, 1579, 855, -816, 507, 120, -765, 197, 149, 52, 55, 80, 42, 92, 128
370033043, -2068, 10565, -4813, -11375, 1579, 855, -816, 507, 120, -765, 197, 149, 52, 55, 80, 42, 92, 128
370038135, -2068, 10565, -4813, -11375, 1579, 855, -816, 507, 120, -765, 197, 149, 52, 55, 80, 42, 92, 128
370039037, -2055, 10701, -4992, -11171, 1369, 1292, -989, 773, 881, -520, 197, 149, 52, 55, 80, 42, 92, 128
370039861, -2055, 10701, -4992, -11171, 1369, 1292, -989, 773, 881, -520, 202, 166, 67, 56, 78, 44, 94, 113
370040738, -2055, 10701, -4992, -11171, 1369, 1292, -989, 773, 881, -520, 202, 166, 67, 56, 78, 44, 94, 113
370045739, -2055, 10701, -4992, -11171, 1369, 1292, -989, 773, 881, -520, 202, 166, 67, 56, 78, 44, 94, 113
370046435, -2055, 10701, -4992, -11171, 1369, 1292, -989, 773, 881, -520, 202, 166, 67, 56, 78, 44, 94, 113
370047291, -2055, 10701, -4992, -11171, 1369, 1292, -989, 773, 881, -520, 202, 166, 67, 56, 78, 44, 94, 113
370048091, -2055, 10701, -4992, -11171, 1369, 1292, -989, 773, 881, -520, 202, 166, 67, 56, 78, 44, 94, 113
370053044, -2055, 10701, -4992, -11171, 1369, 1292, -989, 773, 881, -520, 202, 166, 67, 56, 78, 44, 94, 113
370053866, -2055, 10701, -4992, -11171, 1369, 1292, -989, 773, 881, -520, 202, 166, 67, 56, 78, 44, 94, 113
370054716, -2055, 10701, -4992, -11171, 1369, 1292, -989, 773, 881, -520, 202, 166, 67, 56, 78, 44, 94, 113
370055494, -2055, 10701, -4992, -11171, 1369, 1292, -989, 773, 881, -520, 202, 166, 67, 56, 78, 44, 94, 113
370060585, -2055, 10701, -4992, -11171, 1369, 1292, -989, 773, 881, -520, 202, 166, 67, 56, 78, 44, 94, 113
370061515, -2145, 10898, -5194, -10867, 1114, 1542, -1131, 1453, 1695, -395, 202, 166, 67, 56, 78, 44, 94, 113
370062343, -2145, 10898, -5194, -10867, 1114, 1542, -1131, 1453, 1695, -395, 237, 191, 72, 53, 73, 44, 122, 115
370063169, -2145, 10898, -5194, -10867, 1114, 1542, -1131, 1453, 1695, -395, 237, 191, 72, 53, 73, 44, 122, 115
370068166, -2145, 10898, -5194, -10867, 1114, 1542, -1131, 1453, 1695, -395, 237, 191, 72, 53, 73, 44, 122, 115
370069007, -2145, 10898, -5194, -10867, 1114, 1542, -1131, 1453, 1695, -395, 237, 191, 72, 53, 73, 44, 122, 115
370069792, -2145, 10898, -5194, -10867, 1114, 1542, -1131, 1453, 1695, -395, 237, 191, 72, 53, 73, 44, 122, 115
370070621, -2145, 10898, -5194, -10867, 1114, 1542, -1131, 1453, 1695, -395, 237, 191, 72, 53, 73, 44, 122, 115
370075548, -2145, 10898, -5194, -10867, 1114, 1542, -1131, 1453, 1695, -395, 237, 191, 72, 53, 73, 44, 122, 115
370076368, -2145, 10898, -5194, -10867, 1114, 1542, -1131, 1453, 1695, -395, 237, 191, 72, 53, 73, 44, 122, 115
370077193, -2145, 10898, -5194, -10867, 1114, 1542, -1131, 1453, 1695, -395, 237, 191, 72, 53, 73, 44, 122, 115
370077991, -2145, 10898, -5194, -10867, 1114, 1542, -1131, 1453, 1695, -395, 237, 191, 72, 53, 73, 44, 122, 115
370083066, -2145, 10898, -5194, -10867, 1114, 1542, -1131, 1453, 1695, -395, 237, 191, 72, 53, 73, 44, 122, 115
370084049, -2229, 11157, -5505, -10426, 866, 1733, -1228, 2049, 2516, -191, 237, 191, 72, 53, 73, 44, 122, 115
370084825, -2229, 11157, -5505, -10426, 866, 1733, -1228, 2049, 2516, -191, 287, 271, 91, 54, 71, 44, 113, 108
370085616, -2229, 11157, -5505, -10426, 866, 1733, -1228, 2049, 2516, -191, 287, 271, 91, 54, 71, 44, 113, 108
370090659, -2229, 11157, -5505, -10426, 866, 1733, -1228, 2049, 2516, -191, 287, 271, 91, 54, 71, 44, 113, 108
370091471, -2229, 11157, -5505, -10426, 866, 1733, -1228, 2049, 2516, -191, 287, 271, 91, 54, 71, 44, 113, 108
370092259, -2229, 11157, -5505, -10426, 866, 1733, -1228, 2049, 2516, -191, 287, 271, 91, 54, 71, 44, 113, 108
370093095, -2229, 11157, -5505, -10426, 866, 1733, -1228, 2049, 2516, -191, 287, 271, 91, 54, 71, 44, 113, 108
370098124, -2229, 11157, -5505, -10426, 866, 1733, -1228, 2049, 2516, -191, 287, 271, 91, 54, 71, 44, 113, 108
370098930, -2229, 11157, -5505, -10426, 866, 1733, -1228, 2049, 2516, -191, 287, 271, 91, 54, 71, 44, 113, 108
370099765, -2229, 11157, -5505, -10426, 866, 1733, -1228, 2049, 2516, -191, 287, 271, 91, 54, 71, 44, 113, 108
370100544, -2229, 11157, -5505, -10426, 866, 1733, -1228, 2049, 2516, -191, 287, 271, 91, 54, 71, 44, 113, 108
370105595, -2229, 11157, -5505, -10426, 866, 1733, -1228, 2049, 2516, -191, 287, 271, 91, 54, 71, 44, 113, 108
370106560, -2275, 11433, -5935, -9866, 643, 1930, -1133, 2565, 3205, 256, 287, 271, 91, 54, 71, 44, 113, 108
370107344, -2275, 11433, -5935, -9866, 643, 1930, -1133, 2565, 3205, 256, 386, 386, 113, 50, 60, 37, 99, 129
370108157, -2275, 11433, -5935, -9866, 643, 1930, -1133, 2565, 3205, 256, 386, 386, 113, 50, 60, 37, 99, 129
370113164, -2275, 11433, -5935, -9866, 643, 1930, -1133, 2565, 3205, 256, 386, 386, 113, 50, 60, 37, 99, 129
370114020, -2275, 11433, -5935, -9866, 643, 1930, -1133, 2565, 3205, 256, 386, 386, 113, 50, 60, 37, 99, 129
370114817, -2275, 11433, -5935, -9866, 643, 1930, -1133, 2565, 3205, 256, 386, 386, 113, 50, 60, 37, 99, 129
370115642, -2275, 11433, -5935, -9866, 643, 1930, -1133, 2565, 3205, 256, 386, 386, 113, 50, 60, 37, 99, 129
370120566, -2275, 11433, -5935, -9866, 643, 1930, -1133, 2565, 3205, 256, 386, 386, 113, 50, 60, 37, 99, 129
370121415, -2275, 11433, -5935, -9866, 643, 1930, -1133, 2565, 3205, 256, 386, 386, 113, 50, 60, 37, 99, 129
370122191, -2275, 11433, -5935, -9866, 643, 1930, -1133, 2565, 3205, 256, 386, 386, 113, 50, 60, 37, 99, 129
370123007, -2275, 11433, -5935, -9866, 643, 1930, -1133, 2565, 3205, 256, 386, 386, 113, 50, 60, 37, 99, 129
370128067, -2275, 11433, -5935, -9866, 643, 1930, -1133, 2565, 3205, 256, 386, 386, 113, 50, 60, 37, 99, 129
370128993, -2267, 11693, -6455, -9215, 591, 2022, -1064, 2886, 3692, 754, 386, 386, 113, 50, 60, 37, 99, 129
370129816, -2267, 11693, -6455, -9215, 591, 2022, -1064, 2886, 3692, 754, 677, 561, 175, 71, 67, 49, 145, 209
370130663, -2267, 11693, -6455, -9215, 591, 2022, -1064, 2886, 3692, 754, 677, 561, 175, 71, 67, 49, 145, 209
370135632, -2267, 11693, -6455, -9215, 591, 2022, -1064, 2886, 3692, 754, 677, 561, 175, 71, 67, 49, 145, 209
370136441, -2267, 11693, -6455, -9215, 591, 2022, -1064, 2886, 3692, 754, 677, 561, 175, 71, 67, 49, 145, 209
370137278, -2267, 11693, -6455, -9215, 591, 2022, -1064, 2886, 3692, 754, 677, 561, 175, 71, 67, 49, 145, 209
370138071, -2267, 11693, -6455, -9215, 591, 2022, -1064, 2886, 3692, 754, 677, 561, 175, 71, 67, 49, 145, 209
370143026, -2267, 11693, -6455, -9215, 591, 2022, -1064, 2886, 3692, 754, 677, 561, 175, 71, 67, 49, 145, 209
370143872, -2267, 11693, -6455, -9215, 591, 2022, -1064, 2886, 3692, 754, 677, 561, 175, 71, 67, 49, 145, 209
370144772, -2267, 11693, -6455, -9215, 591, 2022, -1064, 2886, 3692, 754, 677, 561, 175, 71, 67, 49, 145, 209
370145444, -2267, 11693, -6455, -9215, 591, 2022, -1064, 2886, 3692, 754, 677, 561, 175, 71, 67, 49, 145, 209
370150657, -2267, 11693, -6455, -9215, 591, 2022, -1064, 2886, 3692, 754, 677, 561, 175, 71, 67, 49, 145, 209
370151550, -2248, 11903, -7023, -8507, 494, 1898, -599, 3196, 3888, 1070, 677, 561, 175, 71, 67, 49, 145, 209
370152395, -2248, 11903, -7023, -8507, 494, 1898, -599, 3196, 3888, 1070, 731, 612, 189, 114, 59, 52, 145, 235
370153192, -2248, 11903, -7023, -8507, 494, 1898, -599, 3196, 3888, 1070, 677, 561, 175, 71, 67, 49, 145, 209
370156644, -2248, 11903, -7023, -8507, 494, 1898, -599, 3196, 3888, 1070, 731, 612, 189, 114, 59, 52, 145, 235
370165569, -2248, 11903, -7023, -8507, 494, 1898, -599, 3196, 3888, 1070, 731, 612, 189, 114, 59, 52, 145, 235
370166394, -2248, 11903, -7023, -8507, 494, 1898, -599, 3196, 3888, 1070, 731, 612, 189, 114, 59, 52, 145, 235
370167193, -2248, 11903, -7023, -8507, 494, 1898, -599, 3196, 3888, 1070, 731, 612, 189, 114, 59, 52, 145, 235
370168015, -2248, 11903, -7023, -8507, 494, 1898, -599, 3196, 3888, 1070, 731, 612, 189, 114, 59, 52, 145, 235
370173090, -2248, 11903, -7023, -8507, 494, 1898, -599, 3196, 3888, 1070, 731, 612, 189, 114, 59, 52, 145, 235
370173929, -2248, 11903, -7023, -8507, 494, 1898, -599, 3196, 3888, 1070, 731, 612, 189, 114, 59, 52, 145, 235
370174741, -2248, 11903, -7023, -8507, 494, 1898, -599, 3196, 3888, 1070, 731, 612, 189, 114, 59, 52, 145, 235
370175561, -2248, 11903, -7023, -8507, 494, 1898, -599, 3196, 3888, 1070, 731, 612, 189, 114, 59, 52, 145, 235
370180645, -2248, 11903, -7023, -8507, 494, 1898, -599, 3196, 3888, 1070, 804, 692, 193, 119, 59, 52, 124, 249
370181459, -2248, 11903, -7023, -8507, 494, 1898, -599, 3196, 3888, 1070, 804, 692, 193, 119, 59, 52, 124, 249
370182257, -2248, 11903, -7023, -8507, 494, 1898, -599, 3196, 3888, 1070, 804, 692, 193, 119, 59, 52, 124, 249
370183066, -2248, 11903, -7023, -8507, 494, 1898, -599, 3196, 3888, 1070, 804, 692, 193, 119, 59, 52, 124, 249
370188043, -2248, 11903, -7023, -8507, 494, 1898, -599, 3196, 3888, 1070, 804, 692, 193, 119, 59, 52, 124, 249
370188850, -2248, 11903, -7023, -8507, 494, 1898, -599, 3196, 3888, 1070, 804, 692, 193, 119, 59, 52, 124, 249
370189744, -2248, 11903, -7023, -8507, 494, 1898, -599, 3196, 3888, 1070, 804, 692, 193, 119, 59, 52, 124, 249
370190436, -2248, 11903, -7023, -8507, 494, 1898, -599, 3196, 3888, 1070, 804, 692, 193, 119, 59, 52, 124, 249
370195617, -2248, 11903, -7023, -8507, 494, 1898, -599, 3196, 3888, 1070, 804, 692, 193, 119, 59, 52, 124, 249
370196576, -2008, 12479, -7700, -7028, 987, 1660, -1498, 1558, 4454, -162, 804, 692, 193, 119, 59, 52, 124, 249
370197367, -2008, 12479, -7700, -7028, 987, 1660, -1498, 1558, 4454, -162, 799, 720, 202, 126, 59, 52, 121, 253
370198179, -2008, 12479, -7700, -7028, 987, 1660, -1498, 1558, 4454, -162, 799, 720, 202, 126, 59, 52, 121, 253
370203191, -2008, 12479, -7700, -7028, 987, 1660, -1498, 1558, 4454, -162, 799, 720, 202, 126, 59, 52, 121, 253
370204019, -2008, 12479, -7700, -7028, 987, 1660, -1498, 1558, 4454, -162, 799, 720, 202, 126, 59, 52, 121, 253
370204816, -2008, 12479, -7700, -7028, 987, 1660, -1498, 1558, 4454, -162, 799, 720, 202, 126, 59, 52, 121, 253
370205611, -2008, 12479, -7700, -7028, 987, 1660, -1498, 1558, 4454, -162, 799, 720, 202, 126, 59, 52, 121, 253
370210565, -2008, 12479, -7700, -7028, 987, 1660, -1498, 1558, 4454, -162, 799, 720, 202, 126, 59, 52, 121, 253
370211419, -2008, 12479, -7700, -7028, 987, 1660, -1498, 1558, 4454, -162, 799, 720, 202, 126, 59, 52, 121, 253
370212191, -2008, 12479, -7700, -7028, 987, 1660, -1498, 1558, 4454, -162, 799, 720, 202, 126, 59, 52, 121, 253
370213046, -2008, 12479, -7700, -7028, 987, 1660, -1498, 1558, 4454, -162, 799, 720, 202, 126, 59, 52, 121, 253
370218153, -2008, 12479, -7700, -7028, 987, 1660, -1498, 1558, 4454, -162, 799, 720, 202, 126, 59, 52, 121, 253
370219020, -1741, 12862, -7880, -6156, 1159, 2541, -1690, 1328, 5471, -197, 799, 720, 202, 126, 59, 52, 121, 253
370219880, -1741, 12862, -7880, -6156, 1159, 2541, -1690, 1328, 5471, -197, 855, 756, 201, 136, 58, 52, 140, 250
370220645, -1741, 12862, -7880, -6156, 1159, 2541, -1690, 1328, 5471, -197, 855, 756, 201, 136, 58, 52, 140, 250
370225690, -1741, 12862, -7880, -6156, 1159, 2541, -1690, 1328, 5471, -197, 855, 756, 201, 136, 58, 52, 140, 250
370226467, -1741, 12862, -7880, -6156, 1159, 2541, -1690, 1328, 5471, -197, 855, 756, 201, 136, 58, 52, 140, 250
370227316, -1741, 12862, -7880, -6156, 1159, 2541, -1690, 1328, 5471, -197, 855, 756, 201, 136, 58, 52, 140, 250
370228093, -1741, 12862, -7880, -6156, 1159, 2541, -1690, 1328, 5471, -197, 855, 756, 201, 136, 58, 52, 140, 250
370233071, -1741, 12862, -7880, -6156, 1159, 2541, -1690, 1328, 5471, -197, 855, 756, 201, 136, 58, 52, 140, 250
370233889, -1741, 12862, -7880, -6156, 1159, 2541, -1690, 1328, 5471, -197, 855, 756, 201, 136, 58, 52, 140, 250
370234764, -1741, 12862, -7880, -6156, 1159, 2541, -1690, 1328, 5471, -197, 855, 756, 201, 136, 58, 52, 140, 250
370235445, -1741, 12862, -7880, -6156, 1159, 2541, -1690, 1328, 5471, -197, 855, 756, 201, 136, 58, 52, 140, 250
370240584, -1741, 12862, -7880, -6156, 1159, 2541, -1690, 1328, 5471, -197, 855, 756, 201, 136, 58, 52, 140, 250
370241493, -1325, 13177, -8199, -5081, 666, 3820, -1646, 1554, 6714, 791, 855, 756, 201, 136, 58, 52, 140, 250
370242315, -1325, 13177, -8199, -5081, 666, 3820, -1646, 1554, 6714, 791, 674, 818, 173, 144, 57, 45, 95, 213
370243114, -1325, 13177, -8199, -5081, 666, 3820, -1646, 1554, 6714, 791, 674, 818, 173, 144, 57, 45, 95, 213
370246607, -1325, 13177, -8199, -5081, 666, 3820, -1646, 1554, 6714, 791, 674, 818, 173, 144, 57, 45, 95, 213
370247415, -1325, 13177, -8199, -5081, 666, 3820, -1646, 1554, 6714, 791, 674, 818, 173, 144, 57, 45, 95, 213
370255578, -1325, 13177, -8199, -5081, 666, 3820, -1646, 1554, 6714, 791, 674, 818, 173, 144, 57, 45, 95, 213
370256413, -1325, 13177, -8199, -5081, 666, 3820, -1646, 1554, 6714, 791, 674, 818, 173, 144, 57, 45, 95, 213
370257239, -1325, 13177, -8199, -5081, 666, 3820, -1646, 1554, 6714, 791, 674, 818, 173, 144, 57, 45, 95, 213
370258016, -1325, 13177, -8199, -5081, 666, 3820, -1646, 1554, 6714, 791, 674, 818, 173, 144, 57, 45, 95, 213
370263071, -1325, 13177, -8199, -5081, 666, 3820, -1646, 1554, 6714, 791, 674, 818, 173, 144, 57, 45, 95, 213
370263865, -1325, 13177, -8199, -5081, 666, 3820, -1646, 1554, 6714, 791, 674, 818, 173, 144, 57, 45, 95, 213
370264769, -1325, 13177, -8199, -5081, 666, 3820, -1646, 1554, 6714, 791, 674, 818, 173, 144, 57, 45, 95, 213
370265595, -1325, 13177, -8199, -5081, 666, 3820, -1646, 1554, 6714, 791, 625, 806, 156, 123, 50, 43, 92, 192
370270646, -1325, 13177, -8199, -5081, 666, 3820, -1646, 1554, 6714, 791, 625, 806, 156, 123, 50, 43, 92, 192
370271476, -1325, 13177, -8199, -5081, 666, 3820, -1646, 1554, 6714, 791, 625, 806, 156, 123, 50, 43, 92, 192
370272292, -1325, 13177, -8199, -5081, 666, 3820, -1646, 1554, 6714, 791, 625, 806, 156, 123, 50, 43, 92, 192
370273118, -1325, 13177, -8199, -5081, 666, 3820, -1646, 1554, 6714, 791, 625, 806, 156, 123, 50, 43, 92, 192
370278042, -1325, 13177, -8199, -5081, 666, 3820, -1646, 1554, 6714, 791, 625, 806, 156, 123, 50, 43, 92, 192
370278907, -1325, 13177, -8199, -5081, 666, 3820, -1646, 1554, 6714, 791, 625, 806, 156, 123, 50, 43, 92, 192
370279742, -1325, 13177, -8199, -5081, 666, 3820, -1646, 1554, 6714, 791, 625, 806, 156, 123, 50, 43, 92, 192
370280441, -1325, 13177, -8199, -5081, 666, 3820, -1646, 1554, 6714, 791, 625, 806, 156, 123, 50, 43, 92, 192
370285541, -1325, 13177, -8199, -5081, 666, 3820, -1646, 1554, 6714, 791, 625, 806, 156, 123, 50, 43, 92, 192
370286505, 173, 13395, -8821, -3340, -1289, 4003, -739, -1466, 5902, 2049, 625, 806, 156, 123, 50, 43, 92, 192
370287317, 173, 13395, -8821, -3340, -1289, 4003, -739, -1466, 5902, 2049, 613, 813, 169, 124, 64, 46, 90, 183
370288151, 173, 13395, -8821, -3340, -1289, 4003, -739, -1466, 5902, 2049, 613, 813, 169, 124, 64, 46, 90, 183
370293198, 173, 13395, -8821, -3340, -1289, 4003, -739, -1466, 5902, 2049, 613, 813, 169, 124, 64, 46, 90, 183
370294019, 173, 13395, -8821, -3340, -1289, 4003, -739, -1466, 5902, 2049, 613, 813, 169, 124, 64, 46, 90, 183
370294838, 173, 13395, -8821, -3340, -1289, 4003, -739, -1466, 5902, 2049, 613, 813, 169, 124, 64, 46, 90, 183
370295661, 173, 13395, -8821, -3340, -1289, 4003, -739, -1466, 5902, 2049, 613, 813, 169, 124, 64, 46, 90, 183
370300592, 173, 13395, -8821, -3340, -1289, 4003, -739, -1466, 5902, 2049, 613, 813, 169, 124, 64, 46, 90, 183
370301424, 173, 13395, -8821, -3340, -1289, 4003, -739, -1466, 5902, 2049, 613, 813, 169, 124, 64, 46, 90, 183
370302216, 173, 13395, -8821, -3340, -1289, 4003, -739, -1466, 5902, 2049, 613, 813, 169, 124, 64, 46, 90, 183
370303056, 173, 13395, -8821, -3340, -1289, 4003, -739, -1466, 5902, 2049, 613, 813, 169, 124, 64, 46, 90, 183
370308114, 173, 13395, -8821, -3340, -1289, 4003, -739, -1466, 5902, 2049, 613, 813, 169, 124, 64, 46, 90, 183
370309045, 1289, 13279, -9038, -2960, -409, 3366, -171, -3730, 4968, 2645, 613, 813, 169, 124, 64, 46, 90, 183
370309844, 1289, 13279, -9038, -2960, -409, 3366, -171, -3730, 4968, 2645, 700, 886, 187, 128, 68, 49, 92, 240
370310781, 1289, 13279, -9038, -2960, -409, 3366, -171, -3730, 4968, 2645, 700, 886, 187, 128, 68, 49, 92, 240
370314130, 1289, 13279, -9038, -2960, -409, 3366, -171, -3730, 4968, 2645, 700, 886, 187, 128, 68, 49, 92, 240
370314944, 1289, 13279, -9038, -2960, -409, 3366, -171, -3730, 4968, 2645, 700, 886, 187, 128, 68, 49, 92, 240
370323042, 1289, 13279, -9038, -2960, -409, 3366, -171, -3730, 4968, 2645, 700, 886, 187, 128, 68, 49, 92, 240
370323909, 1289, 13279, -9038, -2960, -409, 3366, -171, -3730, 4968, 2645, 700, 886, 187, 128, 68, 49, 92, 240
370324742, 1289, 13279, -9038, -2960, -409, 3366, -171, -3730, 4968, 2645, 700, 886, 187, 128, 68, 49, 92, 240
370325524, 1289, 13279, -9038, -2960, -409, 3366, -171, -3730, 4968, 2645, 700, 886, 187, 128, 68, 49, 92, 240
370327942, 1289, 13279, -9038, -2960, -409, 3366, -171, -3730, 4968, 2645, 700, 886, 187, 128, 68, 49, 92, 240
370336104, 1289, 13279, -9038, -2960, -409, 3366, -171, -3730, 4968, 2645, 382, 398, 167, 88, 62, 42, 77, 206
370336936, 1289, 13279, -9038, -2960, -409, 3366, -171, -3730, 4968, 2645, 382, 398, 167, 88, 62, 42, 77, 206
370343098, 7286, 3910, -14142, -250, 2473, 643, -627, 236, -236, 358, 382, 398, 167, 88, 62, 42, 77, 206
370351080, 7286, 3910, -14142, -250, 2473, 643, -627, 236, -236, 358, 401, 449, 169, 93, 69, 43, 72, 204
370351902, 7286, 3910, -14142, -250, 2473, 643, -627, 236, -236, 358, 401, 449, 169, 93, 69, 43, 72, 204
370358020, 7357, 3875, -14116, -212, 2644, 737, -579, 167, -175, 204, 401, 449, 169, 93, 69, 43, 72, 204
370373604, 7357, 3875, -14116, -212, 2644, 737, -579, 167, -175, 204, 409, 477, 154, 82, 68, 45, 74, 217
370374422, 7357, 3875, -14116, -212, 2644, 737, -579, 167, -175, 204, 409, 477, 154, 82, 68, 45, 74, 217
370380575, 7447, 3870, -14070, -189, 2820, 863, -530, 186, -108, 29, 409, 477, 154, 82, 68, 45, 74, 217
370396761, 7447, 3870, -14070, -189, 2820, 863, -530, 186, -108, 29, 394, 451, 129, 68, 67, 39, 67, 226
370397591, 7447, 3870, -14070, -189, 2820, 863, -530, 186, -108, 29, 394, 451, 129, 68, 67, 39, 67, 226
370398517, 7561, 3895, -14002, -184, 2990, 974, -487, 179, -17, -162, 394, 451, 129, 68, 67, 39, 67, 226
370411091, 7561, 3895, -14002, -184, 2990, 974, -487, 179, -17, -162, 394, 488, 124, 63, 65, 39, 58, 206
370411921, 7561, 3895, -14002, -184, 2990, 974, -487, 179, -17, -162, 394, 488, 124, 63, 65, 39, 58, 206
370418044, 7696, 3941, -13916, -184, 3023, 1077, -428, 207, 121, -269, 394, 488, 124, 63, 65, 39, 58, 206
370433577, 7696, 3941, -13916, -184, 3023, 1077, -428, 207, 121, -269, 394, 515, 120, 59, 56, 39, 58, 218
370434391, 7696, 3941, -13916, -184, 3023, 1077, -428, 207, 121, -269, 394, 515, 120, 59, 56, 39, 58, 218
370440563, 7836, 4000, -13820, -200, 2934, 1186, -364, 187, 178, -332, 394, 515, 120, 59, 56, 39, 58, 218
370456791, 7836, 4000, -13820, -200, 2934, 1186, -364, 187, 178, -332, 379, 471, 108, 53, 52, 38, 59, 200
370457618, 7836, 4000, -13820, -200, 2934, 1186, -364, 187, 178, -332, 379, 471, 108, 53, 52, 38, 59, 200
370458526, 7972, 4061, -13724, -247, 2854, 1254, -362, 60, 163, -395, 379, 471, 108, 53, 52, 38, 59, 200
370471065, 7972, 4061, -13724, -247, 2854, 1254, -362, 60, 163, -395, 357, 468, 104, 49, 52, 32, 53, 189
370471867, 7972, 4061, -13724, -247, 2854, 1254, -362, 60, 163, -395, 357, 468, 104, 49, 52, 32, 53, 189
370478048, 8107, 4112, -13627, -327, 2838, 1305, -383, -122, 155, -435, 357, 468, 104, 49, 52, 32, 53, 189
370493574, 8107, 4112, -13627, -327, 2838, 1305, -383, -122, 155, -435, 368, 511, 97, 50, 49, 35, 48, 175
370494366, 8107, 4112, -13627, -327, 2838, 1305, -383, -122, 155, -435, 368, 511, 97, 50, 49, 35, 48, 175
370500528, 8243, 4156, -13529, -425, 2810, 1318, -410, -249, 187, -466, 368, 511, 97, 50, 49, 35, 48, 175
370516763, 8243, 4156, -13529, -425, 2810, 1318, -410, -249, 187, -466, 386, 518, 84, 51, 49, 34, 42, 161
370517570, 8243, 4156, -13529, -425, 2810, 1318, -410, -249, 187, -466, 386, 518, 84, 51, 49, 34, 42, 161
370518522, 8370, 4205, -13432, -517, 2745, 1306, -429, -211, 205, -484, 386, 518, 84, 51, 49, 34, 42, 161
370530417, 8370, 4205, -13432, -517, 2745, 1306, -429, -211, 205, -484, 339, 482, 90, 51, 44, 33, 38, 114
370538612, 8370, 4205, -13432, -517, 2745, 1306, -429, -211, 205, -484, 339, 482, 90, 51, 44, 33, 38, 114
370539548, 8483, 4272, -13337, -594, 2682, 1307, -446, -96, 208, -536, 339, 482, 90, 51, 44, 33, 38, 114
370553574, 8483, 4272, -13337, -594, 2682, 1307, -446, -96, 208, -536, 294, 446, 93, 50, 40, 31, 36, 109
370554384, 8483, 4272, -13337, -594, 2682, 1307, -446, -96, 208, -536, 294, 446, 93, 50, 40, 31, 36, 109
370560567, 8586, 4355, -13241, -660, 2604, 1346, -489, 12, 242, -572, 294, 446, 93, 50, 40, 31, 36, 109
370576791, 8586, 4355, -13241, -660, 2604, 1346, -489, 12, 242, -572, 264, 411, 115, 52, 36, 31, 33, 95
370577628, 8586, 4355, -13241, -660, 2604, 1346, -489, 12, 242, -572, 264, 411, 115, 52, 36, 31, 33, 95
370578539, 8675, 4460, -13144, -721, 2489, 1357, -589, 88, 286, -652, 264, 411, 115, 52, 36, 31, 33, 95
370599262, 8675, 4460, -13144, -721, 2489, 1357, -589, 88, 286, -652, 210, 328, 135, 42, 35, 27, 32, 85
370600078, 8675, 4460, -13144, -721, 2489, 1357, -589, 88, 286, -652, 210, 328, 135, 42, 35, 27, 32, 85
370600994, 8746, 4596, -13046, -793, 2354, 1346, -642, 130, 265, -833, 210, 328, 135, 42, 35, 27, 32, 85
370613600, 8746, 4596, -13046, -793, 2354, 1346, -642, 130, 265, -833, 121, 231, 135, 39, 29, 25, 30, 59
370614427, 8746, 4596, -13046, -793, 2354, 1346, -642, 130, 265, -833, 121, 231, 135, 39, 29, 25, 30, 59
370620543, 8802, 4767, -12941, -880, 2259, 1340, -590, 180, 214, -1065, 121, 231, 135, 39, 29, 25, 30, 59
370636757, 8802, 4767, -12941, -880, 2259, 1340, -590, 180, 214, -1065, 99, 123, 128, 42, 28, 22, 28, 55
370637544, 8802, 4767, -12941, -880, 2259, 1340, -590, 180, 214, -1065, 99, 123, 128, 42, 28, 22, 28, 55
370638535, 8843, 4979, -12827, -960, 2169, 1312, -549, 350, 208, -1267, 99, 123, 128, 42, 28, 22, 28, 55
370659274, 8843, 4979, -12827, -960, 2169, 1312, -549, 350, 208, -1267, 94, 101, 134, 43, 26, 23, 28, 45
370660095, 8843, 4979, -12827, -960, 2169, 1312, -549, 350, 208, -1267, 94, 101, 134, 43, 26, 23, 28, 45
370661041, 8865, 5241, -12702, -1024, 2061, 1244, -605, 561, 250, -1504, 94, 101, 134, 43, 26, 23, 28, 45
370673565, 8865, 5241, -12702, -1024, 2061, 1244, -605, 561, 250, -1504, 80, 92, 130, 40, 27, 23, 26, 39
370674341, 8865, 5241, -12702, -1024, 2061, 1244, -605, 561, 250, -1504, 80, 92, 130, 40, 27, 23, 26, 39
370680520, 8853, 5566, -12566, -1084, 1998, 1325, -592, 729, 320, -1827, 80, 92, 130, 40, 27, 23, 26, 39
370696752, 8853, 5566, -12566, -1084, 1998, 1325, -592, 729, 320, -1827, 61, 85, 121, 48, 44, 26, 25, 31
370697610, 8853, 5566, -12566, -1084, 1998, 1325, -592, 729, 320, -1827, 61, 85, 121, 48, 44, 26, 25, 31
370698495, 8833, 5961, -12388, -1191, 1994, 1300, -643, 737, 348, -2367, 61, 85, 121, 48, 44, 26, 25, 31
370719293, 8833, 5961, -12388, -1191, 1994, 1300, -643, 737, 348, -2367, 51, 69, 150, 48, 45, 26, 25, 30
370720091, 8833, 5961, -12388, -1191, 1994, 1300, -643, 737, 348, -2367, 51, 69, 150, 48, 45, 26, 25, 30
370721046, 8822, 6405, -12153, -1369, 2115, 1308, -788, 524, 442, -2928, 51, 69, 150, 48, 45, 26, 25, 30
370733542, 8822, 6405, -12153, -1369, 2115, 1308, -788, 524, 442, -2928, 46, 73, 194, 47, 46, 27, 23, 30
370734388, 8822, 6405, -12153, -1369, 2115, 1308, -788, 524, 442, -2928, 46, 73, 194, 47, 46, 27, 23, 30
370740532, 8830, 6884, -11858, -1567, 2235, 1278, -431, 497, 636, -3289, 46, 73, 194, 47, 46, 27, 23, 30
370756753, 8830, 6884, -11858, -1567, 2235, 1278, -431, 497, 636, -3289, 55, 74, 200, 47, 47, 27, 25, 44
370757591, 8830, 6884, -11858, -1567, 2235, 1278, -431, 497, 636, -3289, 55, 74, 200, 47, 47, 27, 25, 44
370758541, 8821, 7470, -11486, -1703, 2096, 1063, -234, 1069, 987, -3752, 55, 74, 200, 47, 47, 27, 25, 44
370779232, 8821, 7470, -11486, -1703, 2096, 1063, -234, 1069, 987, -3752, 75, 71, 196, 46, 46, 30, 31, 74
370780042, 8821, 7470, -11486, -1703, 2096, 1063, -234, 1069, 987, -3752, 75, 71, 196, 46, 46, 30, 31, 74
370780971, 8733, 8185, -11047, -1771, 1610, 845, -326, 1874, 1156, -4265, 75, 71, 196, 46, 46, 30, 31, 74
370793543, 8733, 8185, -11047, -1771, 1610, 845, -326, 1874, 1156, -4265, 79, 70, 191, 39, 27, 29, 35, 84
370794358, 8733, 8185, -11047, -1771, 1610, 845, -326, 1874, 1156, -4265, 79, 70, 191, 39, 27, 29, 35, 84
370800500, 8517, 8995, -10568, -1819, 1051, 1002, -434, 2569, 946, -4704, 79, 70, 191, 39, 27, 29, 35, 84
370824245, 8517, 8995, -10568, -1819, 1051, 1002, -434, 2569, 946, -4704, 88, 74, 171, 45, 62, 38, 43, 93
370825070, 8517, 8995, -10568, -1819, 1051, 1002, -434, 2569, 946, -4704, 88, 74, 171, 45, 62, 38, 43, 93
370826015, 8224, 9774, -10072, -1951, 908, 1638, -250, 2461, 415, -4898, 88, 74, 171, 45, 62, 38, 43, 93
370839237, 8224, 9774, -10072, -1951, 908, 1638, -250, 2461, 415, -4898, 122, 74, 125, 46, 71, 43, 48, 105
370840072, 8224, 9774, -10072, -1951, 908, 1638, -250, 2461, 415, -4898, 122, 74, 125, 46, 71, 43, 48, 105
370841019, 7920, 10490, -9533, -2184, 1180, 2002, -425, 1954, 106, -5148, 122, 74, 125, 46, 71, 43, 48, 105
370853595, 7920, 10490, -9533, -2184, 1180, 2002, -425, 1954, 106, -5148, 127, 69, 106, 42, 73, 43, 46, 106
370854367, 7920, 10490, -9533, -2184, 1180, 2002, -425, 1954, 106, -5148, 127, 69, 106, 42, 73, 43, 46, 106
370860546, 7628, 11159, -8921, -2474, 1209, 1848, -656, 1514, 104, -5443, 127, 69, 106, 42, 73, 43, 46, 106
370876798, 7628, 11159, -8921, -2474, 1209, 1848, -656, 1514, 104, -5443, 121, 85, 94, 45, 76, 42, 42, 90
370877594, 7628, 11159, -8921, -2474, 1209, 1848, -656, 1514, 104, -5443, 121, 85, 94, 45, 76, 42, 42, 90
370878554, 7344, 11759, -8289, -2740, 1085, 1724, -576, 1363, 209, -5245, 121, 85, 94, 45, 76, 42, 42, 90
370899292, 7344, 11759, -8289, -2740, 1085, 1724, -576, 1363, 209, -5245, 156, 136, 79, 43, 77, 40, 40, 87
370900074, 7344, 11759, -8289, -2740, 1085, 1724, -576, 1363, 209, -5245, 156, 136, 79, 43, 77, 40, 40, 87
370901022, 7081, 12242, -7754, -2882, 1127, 1662, -369, 1447, 398, -4219, 156, 136, 79, 43, 77, 40, 40, 87
370913568, 7081, 12242, -7754, -2882, 1127, 1662, -369, 1447, 398, -4219, 219, 204, 83, 43, 53, 32, 35, 88
370914434, 7081, 12242, -7754, -2882, 1127, 1662, -369, 1447, 398, -4219, 219, 204, 83, 43, 53, 32, 35, 88
370920545, 6920, 12592, -7306, -2933, 1096, 1950, -490, 1042, 705, -3182, 219, 204, 83, 43, 53, 32, 35, 88
