Timestamp, Orientation x, Orientation y, Orientation z, Orientation w, Acceleration x, Acceleration y, Acceleration z, Rotation x, Rotation y, Rotation z, EMG 0, EMG 1, EMG 2, EMG 3, EMG 4, EMG 5, EMG 6, EMG 7
315272276, 12838, 6973, -7059, -2272, 206, 560, -790, -1773, -2112, 513, 0, 0, 0, 0, 0, 0, 0, 0
315279763, 12741, 6764, -7381, -2422, 415, 669, -634, -890, -2101, 548, 0, 0, 0, 0, 0, 0, 0, 0
315294758, 12618, 6603, -7696, -2526, 568, 909, -527, -505, -1997, 592, 0, 0, 0, 0, 0, 0, 0, 0
315309768, 12492, 6458, -7989, -2615, 668, 1019, -523, -402, -1860, 560, 0, 0, 0, 0, 0, 0, 0, 0
315325249, 12363, 6336, -8255, -2698, 661, 1014, -472, -301, -1721, 470, 0, 0, 0, 0, 0, 0, 0, 0
315340395, 12363, 6336, -8255, -2698, 661, 1014, -472, -301, -1721, 470, 48, 58, 80, 34, 63, 110, 32, 82
315341178, 12363, 6336, -8255, -2698, 661, 1014, -472, -301, -1721, 470, 48, 58, 80, 34, 63, 110, 32, 82
315347364, 12228, 6202, -8525, -2786, 519, 1092, -448, -343, -1782, 508, 48, 58, 80, 34, 63, 110, 32, 82
315362883, 12228, 6202, -8525, -2786, 519, 1092, -448, -343, -1782, 508, 52, 69, 91, 36, 66, 111, 33, 94
315363743, 12228, 6202, -8525, -2786, 519, 1092, -448, -343, -1782, 508, 52, 69, 91, 36, 66, 111, 33, 94
315369884, 12107, 5983, -8804, -2924, 504, 1142, -276, -849, -1985, 590, 52, 69, 91, 36, 66, 111, 33, 94
315386017, 12107, 5983, -8804, -2924, 504, 1142, -276, -849, -1985, 590, 60, 71, 88, 37, 70, 105, 34, 102
315386868, 12107, 5983, -8804, -2924, 504, 1142, -276, -849, -1985, 590, 60, 71, 88, 37, 70, 105, 34, 102
315387824, 11997, 5702, -9068, -3122, 593, 1097, -209, -1312, -2078, 496, 60, 71, 88, 37, 70, 105, 34, 102
315400343, 11997, 5702, -9068, -3122, 593, 1097, -209, -1312, -2078, 496, 55, 65, 81, 36, 75, 61, 34, 113
315401196, 11997, 5702, -9068, -3122, 593, 1097, -209, -1312, -2078, 496, 55, 65, 81, 36, 75, 61, 34, 113
315407321, 11882, 5423, -9314, -3328, 529, 870, -160, -1330, -2039, 402, 55, 65, 81, 36, 75, 61, 34, 113
315422869, 11882, 5423, -9314, -3328, 529, 870, -160, -1330, -2039, 402, 58, 62, 73, 37, 75, 96, 53, 135
315423741, 11882, 5423, -9314, -3328, 529, 870, -160, -1330, -2039, 402, 58, 62, 73, 37, 75, 96, 53, 135
315429821, 11734, 5157, -9577, -3525, 381, 753, -109, -1159, -2188, 400, 58, 62, 73, 37, 75, 96, 53, 135
315446047, 11734, 5157, -9577, -3525, 381, 753, -109, -1159, -2188, 400, 63, 64, 72, 36, 63, 108, 55, 139
315446865, 11734, 5157, -9577, -3525, 381, 753, -109, -1159, -2188, 400, 63, 64, 72, 36, 63, 108, 55, 139
315447818, 11551, 4885, -9857, -3739, 406, 762, -108, -1151, -2411, 337, 63, 64, 72, 36, 63, 108, 55, 139
315460337, 11551, 4885, -9857, -3739, 406, 762, -108, -1151, -2411, 337, 65, 49, 48, 40, 62, 112, 60, 143
315461142, 11551, 4885, -9857, -3739, 406, 762, -108, -1151, -2411, 337, 65, 49, 48, 40, 62, 112, 60, 143
315467353, 11342, 4620, -10145, -3940, 467, 697, -211, -1030, -2493, 338, 65, 49, 48, 40, 62, 112, 60, 143
315482903, 11342, 4620, -10145, -3940, 467, 697, -211, -1030, -2493, 338, 70, 76, 55, 59, 81, 124, 116, 142
315483760, 11342, 4620, -10145, -3940, 467, 697, -211, -1030, -2493, 338, 70, 76, 55, 59, 81, 124, 116, 142
315489844, 11107, 4381, -10440, -4109, 580, 509, -210, -770, -2521, 322, 70, 76, 55, 59, 81, 124, 116, 142
315506044, 11107, 4381, -10440, -4109, 580, 509, -210, -770, -2521, 322, 114, 99, 60, 68, 90, 222, 152, 143
315506842, 11107, 4381, -10440, -4109, 580, 509, -210, -770, -2521, 322, 114, 99, 60, 68, 90, 222, 152, 143
315507796, 10848, 4153, -10740, -4263, 715, 532, -142, -618, -2597, 295, 114, 99, 60, 68, 90, 222, 152, 143
315520374, 10848, 4153, -10740, -4263, 715, 532, -142, -618, -2597, 295, 165, 155, 62, 75, 97, 230, 157, 133
315521168, 10848, 4153, -10740, -4263, 715, 532, -142, -618, -2597, 295, 165, 155, 62, 75, 97, 230, 157, 133
315527313, 10590, 3896, -11027, -4420, 805, 716, -264, -766, -2584, 394, 165, 155, 62, 75, 97, 230, 157, 133
315542840, 10590, 3896, -11027, -4420, 805, 716, -264, -766, -2584, 394, 250, 292, 72, 77, 121, 256, 169, 126
315543748, 10590, 3896, -11027, -4420, 805, 716, -264, -766, -2584, 394, 250, 292, 72, 77, 121, 256, 169, 126
315549848, 10356, 3619, -11275, -4579, 846, 739, -268, -936, -2385, 444, 250, 292, 72, 77, 121, 256, 169, 126
315566084, 10356, 3619, -11275, -4579, 846, 739, -268, -936, -2385, 444, 363, 370, 88, 80, 182, 331, 209, 120
315566867, 10356, 3619, -11275, -4579, 846, 739, -268, -936, -2385, 444, 363, 370, 88, 80, 182, 331, 209, 120
315567825, 10107, 3354, -11508, -4755, 819, 480, -165, -956, -2409, 268, 363, 370, 88, 80, 182, 331, 209, 120
315580339, 10107, 3354, -11508, -4755, 819, 480, -165, -956, -2409, 268, 425, 388, 89, 69, 188, 350, 198, 117
315581165, 10107, 3354, -11508, -4755, 819, 480, -165, -956, -2409, 268, 425, 388, 89, 69, 188, 350, 198, 117
315587304, 9843, 3082, -11736, -4933, 1033, 486, -257, -980, -2459, 247, 425, 388, 89, 69, 188, 350, 198, 117
315602896, 9843, 3082, -11736, -4933, 1033, 486, -257, -980, -2459, 247, 469, 397, 88, 66, 196, 316, 178, 114
315603764, 9843, 3082, -11736, -4933, 1033, 486, -257, -980, -2459, 247, 469, 397, 88, 66, 196, 316, 178, 114
315609884, 9606, 2833, -11928, -5086, 1304, 565, -400, -905, -2159, 222, 469, 397, 88, 66, 196, 316, 178, 114
315626017, 9606, 2833, -11928, -5086, 1304, 565, -400, -905, -2159, 222, 469, 399, 84, 59, 200, 307, 176, 112
315626856, 9606, 2833, -11928, -5086, 1304, 565, -400, -905, -2159, 222, 469, 399, 84, 59, 200, 307, 176, 112
315627770, 9408, 2634, -12073, -5218, 1329, 519, -401, -771, -1744, 110, 469, 399, 84, 59, 200, 307, 176, 112
315639745, 9408, 2634, -12073, -5218, 1329, 519, -401, -771, -1744, 110, 446, 318, 76, 60, 196, 292, 170, 111
315647867, 9408, 2634, -12073, -5218, 1329, 519, -401, -771, -1744, 110, 446, 318, 76, 60, 196, 292, 170, 111
315648824, 9226, 2447, -12212, -5311, 1237, 445, -323, -645, -1593, 10, 446, 318, 76, 60, 196, 292, 170, 111
315663509, 9226, 2447, -12212, -5311, 1237, 445, -323, -645, -1593, 10, 371, 227, 58, 56, 147, 212, 121, 107
315664317, 9226, 2447, -12212, -5311, 1237, 445, -323, -645, -1593, 10, 371, 227, 58, 56, 147, 212, 121, 107
315669848, 9055, 2273, -12342, -5382, 1375, 456, -276, -517, -1514, -1, 371, 227, 58, 56, 147, 212, 121, 107
315686072, 9055, 2273, -12342, -5382, 1375, 456, -276, -517, -1514, -1, 301, 188, 47, 61, 155, 207, 99, 107
315686867, 9055, 2273, -12342, -5382, 1375, 456, -276, -517, -1514, -1, 301, 188, 47, 61, 155, 207, 99, 107
315687846, 8917, 2117, -12450, -5426, 1515, 477, -311, -414, -1273, 9, 301, 188, 47, 61, 155, 207, 99, 107
315699674, 8917, 2117, -12450, -5426, 1515, 477, -311, -414, -1273, 9, 249, 172, 48, 56, 138, 188, 94, 104
315707895, 8917, 2117, -12450, -5426, 1515, 477, -311, -414, -1273, 9, 249, 172, 48, 56, 138, 188, 94, 104
315708820, 8809, 1994, -12536, -5451, 1570, 486, -344, -310, -999, -47, 249, 172, 48, 56, 138, 188, 94, 104
315722842, 8809, 1994, -12536, -5451, 1570, 486, -344, -310, -999, -47, 233, 118, 57, 60, 140, 199, 83, 95
315723644, 8809, 1994, -12536, -5451, 1570, 486, -344, -310, -999, -47, 233, 118, 57, 60, 140, 199, 83, 95
315729834, 8728, 1893, -12606, -5457, 1599, 474, -276, -183, -822, -51, 233, 118, 57, 60, 140, 199, 83, 95
315746021, 8728, 1893, -12606, -5457, 1599, 474, -276, -183, -822, -51, 221, 111, 85, 63, 140, 195, 69, 80
315746870, 8728, 1893, -12606, -5457, 1599, 474, -276, -183, -822, -51, 221, 111, 85, 63, 140, 195, 69, 80
315747797, 8668, 1806, -12663, -5451, 1654, 439, -277, -129, -674, -75, 221, 111, 85, 63, 140, 195, 69, 80
315768566, 8668, 1806, -12663, -5451, 1654, 439, -277, -129, -674, -75, 208, 134, 103, 65, 156, 209, 59, 94
315769368, 8668, 1806, -12663, -5451, 1654, 439, -277, -129, -674, -75, 208, 134, 103, 65, 156, 209, 59, 94
315770361, 8630, 1731, -12703, -5441, 1692, 442, -207, -95, -536, -92, 208, 134, 103, 65, 156, 209, 59, 94
315782817, 8630, 1731, -12703, -5441, 1692, 442, -207, -95, -536, -92, 216, 190, 132, 81, 184, 214, 63, 104
315783685, 8630, 1731, -12703, -5441, 1692, 442, -207, -95, -536, -92, 216, 190, 132, 81, 184, 214, 63, 104
315789794, 8624, 1668, -12721, -5427, 1744, 356, -204, -115, -325, -132, 216, 190, 132, 81, 184, 214, 63, 104
315806070, 8624, 1668, -12721, -5427, 1744, 356, -204, -115, -325, -132, 193, 187, 145, 108, 216, 235, 60, 96
315806842, 8624, 1668, -12721, -5427, 1744, 356, -204, -115, -325, -132, 193, 187, 145, 108, 216, 235, 60, 96
315807816, 8629, 1622, -12736, -5397, 1793, 377, -156, 17, -251, -146, 193, 187, 145, 108, 216, 235, 60, 96
315828562, 8629, 1622, -12736, -5397, 1793, 377, -156, 17, -251, -146, 197, 221, 153, 118, 259, 300, 67, 124
315829341, 8629, 1622, -12736, -5397, 1793, 377, -156, 17, -251, -146, 197, 221, 153, 118, 259, 300, 67, 124
315830280, 8651, 1593, -12748, -5344, 1847, 370, -113, 163, -147, -136, 197, 221, 153, 118, 259, 300, 67, 124
315851062, 8651, 1593, -12748, -5344, 1847, 370, -113, 163, -147, -136, 239, 270, 151, 125, 268, 306, 72, 136
315851843, 8651, 1593, -12748, -5344, 1847, 370, -113, 163, -147, -136, 239, 270, 151, 125, 268, 306, 72, 136
315852816, 8685, 1575, -12755, -5277, 1803, 494, -106, 262, -54, -44, 239, 270, 151, 125, 268, 306, 72, 136
315866030, 8685, 1575, -12755, -5277, 1803, 494, -106, 262, -54, -44, 271, 279, 145, 132, 260, 293, 76, 139
315866854, 8685, 1575, -12755, -5277, 1803, 494, -106, 262, -54, -44, 271, 279, 145, 132, 260, 293, 76, 139
315867769, 8730, 1549, -12745, -5235, 1672, 612, -46, 124, 9, 21, 271, 279, 145, 132, 260, 293, 76, 139
315888562, 8730, 1549, -12745, -5235, 1672, 612, -46, 124, 9, 21, 277, 249, 128, 128, 231, 270, 74, 139
315889367, 8730, 1549, -12745, -5235, 1672, 612, -46, 124, 9, 21, 277, 249, 128, 128, 231, 270, 74, 139
315890322, 8778, 1502, -12730, -5205, 1877, 530, -71, -19, -11, -13, 277, 249, 128, 128, 231, 270, 74, 139
315902821, 8778, 1502, -12730, -5205, 1877, 530, -71, -19, -11, -13, 270, 243, 115, 110, 205, 276, 97, 142
315903643, 8778, 1502, -12730, -5205, 1877, 530, -71, -19, -11, -13, 270, 243, 115, 110, 205, 276, 97, 142
315909821, 8854, 1432, -12688, -5199, 1968, 513, 52, -221, 77, 22, 270, 243, 115, 110, 205, 276, 97, 142
315926052, 8854, 1432, -12688, -5199, 1968, 513, 52, -221, 77, 22, 282, 243, 101, 97, 139, 205, 119, 123
315926843, 8854, 1432, -12688, -5199, 1968, 513, 52, -221, 77, 22, 282, 243, 101, 97, 139, 205, 119, 123
315927802, 8932, 1365, -12645, -5188, 1918, 404, 65, -207, 106, 7, 282, 243, 101, 97, 139, 205, 119, 123
315948517, 8932, 1365, -12645, -5188, 1918, 404, 65, -207, 106, 7, 267, 211, 84, 83, 108, 198, 119, 129
315949356, 8932, 1365, -12645, -5188, 1918, 404, 65, -207, 106, 7, 267, 211, 84, 83, 108, 198, 119, 129
315950269, 9002, 1299, -12610, -5168, 1885, 431, 77, -136, 63, 47, 267, 211, 84, 83, 108, 198, 119, 129
315962860, 9002, 1299, -12610, -5168, 1885, 431, 77, -136, 63, 47, 251, 183, 75, 75, 114, 240, 158, 138
315963644, 9002, 1299, -12610, -5168, 1885, 431, 77, -136, 63, 47, 251, 183, 75, 75, 114, 240, 158, 138
315969798, 9068, 1230, -12577, -5149, 1867, 435, 107, -141, 33, 74, 251, 183, 75, 75, 114, 240, 158, 138
315986041, 9068, 1230, -12577, -5149, 1867, 435, 107, -141, 33, 74, 292, 188, 61, 62, 123, 283, 197, 132
315986893, 9068, 1230, -12577, -5149, 1867, 435, 107, -141, 33, 74, 292, 188, 61, 62, 123, 283, 197, 132
315987793, 9131, 1159, -12544, -5135, 1887, 464, 130, -161, 7, 73, 292, 188, 61, 62, 123, 283, 197, 132
316008516, 9131, 1159, -12544, -5135, 1887, 464, 130, -161, 7, 73, 306, 192, 62, 57, 118, 262, 189, 132
316009331, 9131, 1159, -12544, -5135, 1887, 464, 130, -161, 7, 73, 306, 192, 62, 57, 118, 262, 189, 132
316010251, 9193, 1087, -12511, -5121, 1928, 448, 37, -190, 42, 63, 306, 192, 62, 57, 118, 262, 189, 132
316022837, 9193, 1087, -12511, -5121, 1928, 448, 37, -190, 42, 63, 310, 177, 74, 62, 123, 256, 174, 131
316023739, 9193, 1087, -12511, -5121, 1928, 448, 37, -190, 42, 63, 310, 177, 74, 62, 123, 256, 174, 131
316029819, 9264, 1020, -12470, -5108, 1916, 396, 82, -197, 109, 43, 310, 177, 74, 62, 123, 256, 174, 131
316046015, 9264, 1020, -12470, -5108, 1916, 396, 82, -197, 109, 43, 283, 146, 75, 61, 134, 276, 172, 115
316046800, 9264, 1020, -12470, -5108, 1916, 396, 82, -197, 109, 43, 283, 146, 75, 61, 134, 276, 172, 115
316047721, 9332, 959, -12434, -5083, 1893, 259, 147, -102, 71, 1, 283, 146, 75, 61, 134, 276, 172, 115
316068518, 9332, 959, -12434, -5083, 1893, 259, 147, -102, 71, 1, 277, 196, 73, 53, 118, 238, 135, 88
316069384, 9332, 959, -12434, -5083, 1893, 259, 147, -102, 71, 1, 277, 196, 73, 53, 118, 238, 135, 88
316070294, 9391, 913, -12407, -5049, 1924, 274, 131, -9, 46, -38, 277, 196, 73, 53, 118, 238, 135, 88
316082891, 9391, 913, -12407, -5049, 1924, 274, 131, -9, 46, -38, 218, 191, 71, 49, 101, 193, 63, 89
316083745, 9391, 913, -12407, -5049, 1924, 274, 131, -9, 46, -38, 218, 191, 71, 49, 101, 193, 63, 89
316089844, 9450, 875, -12383, -5003, 1933, 298, 129, 71, 63, -14, 218, 191, 71, 49, 101, 193, 63, 89
316106040, 9450, 875, -12383, -5003, 1933, 298, 129, 71, 63, -14, 196, 191, 68, 51, 103, 222, 62, 82
316106810, 9450, 875, -12383, -5003, 1933, 298, 129, 71, 63, -14, 196, 191, 68, 51, 103, 222, 62, 82
316107769, 9504, 843, -12360, -4962, 1917, 359, 93, 71, 65, -24, 196, 191, 68, 51, 103, 222, 62, 82
316128595, 9504, 843, -12360, -4962, 1917, 359, 93, 71, 65, -24, 151, 176, 52, 43, 98, 212, 70, 81
316129386, 9504, 843, -12360, -4962, 1917, 359, 93, 71, 65, -24, 151, 176, 52, 43, 98, 212, 70, 81
316130324, 9556, 806, -12336, -4931, 1909, 420, 73, 3, 63, -1, 151, 176, 52, 43, 98, 212, 70, 81
316142860, 9556, 806, -12336, -4931, 1909, 420, 73, 3, 63, -1, 153, 173, 47, 47, 124, 188, 71, 77
316143625, 9556, 806, -12336, -4931, 1909, 420, 73, 3, 63, -1, 153, 173, 47, 47, 124, 188, 71, 77
316149785, 9610, 755, -12304, -4913, 1881, 410, 102, -102, 67, 23, 153, 173, 47, 47, 124, 188, 71, 77
316166027, 9610, 755, -12304, -4913, 1881, 410, 102, -102, 67, 23, 151, 121, 41, 45, 131, 195, 122, 83
316166879, 9610, 755, -12304, -4913, 1881, 410, 102, -102, 67, 23, 151, 121, 41, 45, 131, 195, 122, 83
316167770, 9662, 701, -12271, -4902, 1872, 372, 105, -146, 61, 6, 151, 121, 41, 45, 131, 195, 122, 83
316188554, 9662, 701, -12271, -4902, 1872, 372, 105, -146, 61, 6, 175, 125, 43, 46, 131, 212, 144, 78
316189367, 9662, 701, -12271, -4902, 1872, 372, 105, -146, 61, 6, 175, 125, 43, 46, 131, 212, 144, 78
316190335, 9712, 650, -12243, -4879, 1843, 329, 118, -75, 46, 24, 175, 125, 43, 46, 131, 212, 144, 78
316202839, 9712, 650, -12243, -4879, 1843, 329, 118, -75, 46, 24, 202, 137, 42, 42, 128, 185, 153, 90
316203672, 9712, 650, -12243, -4879, 1843, 329, 118, -75, 46, 24, 202, 137, 42, 42, 128, 185, 153, 90
316209796, 9760, 608, -12221, -4843, 1889, 370, 95, 12, 45, 42, 202, 137, 42, 42, 128, 185, 153, 90
316226020, 9760, 608, -12221, -4843, 1889, 370, 95, 12, 45, 42, 212, 134, 51, 43, 126, 195, 154, 84
316226844, 9760, 608, -12221, -4843, 1889, 370, 95, 12, 45, 42, 212, 134, 51, 43, 126, 195, 154, 84
316227793, 9805, 576, -12201, -4807, 1885, 401, 104, 52, 44, 21, 212, 134, 51, 43, 126, 195, 154, 84
316249148, 9805, 576, -12201, -4807, 1885, 401, 104, 52, 44, 21, 208, 141, 56, 44, 119, 195, 155, 84
316249990, 9805, 576, -12201, -4807, 1885, 401, 104, 52, 44, 21, 208, 141, 56, 44, 119, 195, 155, 84
316250893, 9846, 540, -12177, -4787, 1866, 398, 101, -39, 34, -15, 208, 141, 56, 44, 119, 195, 155, 84
316271069, 9846, 540, -12177, -4787, 1866, 398, 101, -39, 34, -15, 217, 145, 61, 57, 138, 209, 123, 91
316271847, 9846, 540, -12177, -4787, 1866, 398, 101, -39, 34, -15, 217, 145, 61, 57, 138, 209, 123, 91
316272810, 9890, 504, -12153, -4761, 1887, 296, 111, -15, 52, -40, 217, 145, 61, 57, 138, 209, 123, 91
316293491, 9890, 504, -12153, -4761, 1887, 296, 111, -15, 52, -40, 236, 233, 81, 78, 144, 187, 97, 106
316294340, 9890, 504, -12153, -4761, 1887, 296, 111, -15, 52, -40, 236, 233, 81, 78, 144, 187, 97, 106
316295257, 9934, 479, -12133, -4725, 1882, 302, 110, 68, 60, -36, 236, 233, 81, 78, 144, 187, 97, 106
316308515, 9934, 479, -12133, -4725, 1882, 302, 110, 68, 60, -36, 243, 291, 102, 100, 161, 181, 73, 103
316309303, 9934, 479, -12133, -4725, 1882, 302, 110, 68, 60, -36, 243, 291, 102, 100, 161, 181, 73, 103
316310221, 9970, 464, -12120, -4683, 1858, 272, 159, 150, -2, -73, 243, 291, 102, 100, 161, 181, 73, 103
316331049, 9970, 464, -12120, -4683, 1858, 272, 159, 150, -2, -73, 258, 312, 104, 111, 173, 196, 67, 126
316331843, 9970, 464, -12120, -4683, 1858, 272, 159, 150, -2, -73, 258, 312, 104, 111, 173, 196, 67, 126
316332798, 9996, 445, -12114, -4645, 1891, 360, 130, 128, -55, -46, 258, 312, 104, 111, 173, 196, 67, 126
316353536, 9996, 445, -12114, -4645, 1891, 360, 130, 128, -55, -46, 276, 324, 111, 115, 162, 204, 67, 141
316354341, 9996, 445, -12114, -4645, 1891, 360, 130, 128, -55, -46, 276, 324, 111, 115, 162, 204, 67, 141
316355244, 10029, 445, -12106, -4596, 1995, 437, -59, 194, 95, -62, 276, 324, 111, 115, 162, 204, 67, 141
316368520, 10029, 445, -12106, -4596, 1995, 437, -59, 194, 95, -62, 261, 326, 112, 111, 140, 195, 63, 134
316369292, 10029, 445, -12106, -4596, 1995, 437, -59, 194, 95, -62, 261, 326, 112, 111, 140, 195, 63, 134
316370253, 10074, 426, -12081, -4562, 1874, 456, 210, 104, 53, 27, 261, 326, 112, 111, 140, 195, 63, 134
316391026, 10074, 426, -12081, -4562, 1874, 456, 210, 104, 53, 27, 272, 270, 101, 97, 131, 194, 67, 134
316391833, 10074, 426, -12081, -4562, 1874, 456, 210, 104, 53, 27, 272, 270, 101, 97, 131, 194, 67, 134
316392769, 10103, 399, -12062, -4551, 1828, 455, 93, -40, 12, -25, 272, 270, 101, 97, 131, 194, 67, 134
316413504, 10103, 399, -12062, -4551, 1828, 455, 93, -40, 12, -25, 255, 195, 79, 74, 119, 208, 68, 131
316414291, 10103, 399, -12062, -4551, 1828, 455, 93, -40, 12, -25, 255, 195, 79, 74, 119, 208, 68, 131
316415272, 10133, 372, -12047, -4527, 1856, 389, 116, 25, -6, -11, 255, 195, 79, 74, 119, 208, 68, 131
316427567, 10133, 372, -12047, -4527, 1856, 389, 116, 25, -6, -11, 242, 158, 71, 59, 107, 235, 83, 112
316435344, 10133, 372, -12047, -4527, 1856, 389, 116, 25, -6, -11, 242, 158, 71, 59, 107, 235, 83, 112
316436244, 10159, 339, -12034, -4506, 1864, 358, 116, -9, -31, -16, 242, 158, 71, 59, 107, 235, 83, 112
316451046, 10159, 339, -12034, -4506, 1864, 358, 116, -9, -31, -16, 227, 130, 54, 47, 139, 240, 108, 101
316451854, 10159, 339, -12034, -4506, 1864, 358, 116, -9, -31, -16, 227, 130, 54, 47, 139, 240, 108, 101
316452771, 10182, 307, -12024, -4483, 1886, 378, 104, 6, -54, -9, 227, 130, 54, 47, 139, 240, 108, 101
316473522, 10182, 307, -12024, -4483, 1886, 378, 104, 6, -54, -9, 245, 127, 52, 45, 146, 233, 148, 103
316474317, 10182, 307, -12024, -4483, 1886, 378, 104, 6, -54, -9, 245, 127, 52, 45, 146, 233, 148, 103
316475285, 10205, 272, -12013, -4462, 1883, 401, 104, -15, -45, 15, 245, 127, 52, 45, 146, 233, 148, 103
316488515, 10205, 272, -12013, -4462, 1883, 401, 104, -15, -45, 15, 202, 141, 50, 49, 146, 242, 156, 91
316489318, 10205, 272, -12013, -4462, 1883, 401, 104, -15, -45, 15, 202, 141, 50, 49, 146, 242, 156, 91
316490244, 10224, 237, -12005, -4442, 1852, 406, 96, -20, -73, 20, 202, 141, 50, 49, 146, 242, 156, 91
316511044, 10224, 237, -12005, -4442, 1852, 406, 96, -20, -73, 20, 193, 170, 49, 50, 144, 242, 161, 91
316511841, 10224, 237, -12005, -4442, 1852, 406, 96, -20, -73, 20, 193, 170, 49, 50, 144, 242, 161, 91
316512790, 10241, 201, -11999, -4420, 1898, 376, 93, -8, -83, 11, 193, 170, 49, 50, 144, 242, 161, 91
316533503, 10241, 201, -11999, -4420, 1898, 376, 93, -8, -83, 11, 240, 212, 47, 47, 172, 260, 156, 98
316534302, 10241, 201, -11999, -4420, 1898, 376, 93, -8, -83, 11, 240, 212, 47, 47, 172, 260, 156, 98
316535245, 10264, 171, -11990, -4395, 1898, 402, 89, 18, -37, 19, 240, 212, 47, 47, 172, 260, 156, 98
316548500, 10264, 171, -11990, -4395, 1898, 402, 89, 18, -37, 19, 268, 233, 57, 52, 153, 260, 148, 103
316549295, 10264, 171, -11990, -4395, 1898, 402, 89, 18, -37, 19, 268, 233, 57, 52, 153, 260, 148, 103
316550247, 10287, 146, -11982, -4364, 1856, 369, 53, 54, -11, 21, 268, 233, 57, 52, 153, 260, 148, 103
316571042, 10293, 140, -11978, -4359, 1878, 406, 61, 0, -6, 11, 268, 233, 57, 52, 153, 260, 148, 103
316571842, 10293, 140, -11978, -4359, 1878, 406, 61, 0, -6, 11, 298, 250, 57, 53, 150, 282, 134, 96
316572633, 10293, 140, -11978, -4359, 1878, 406, 61, 0, -6, 11, 298, 250, 57, 53, 150, 282, 134, 96
316584774, 10320, 110, -11959, -4348, 1883, 385, 59, -67, 37, -16, 298, 250, 57, 53, 150, 282, 134, 96
316592785, 10320, 110, -11959, -4348, 1883, 385, 59, -67, 37, -16, 323, 255, 54, 49, 148, 270, 168, 97
316593619, 10320, 110, -11959, -4348, 1883, 385, 59, -67, 37, -16, 323, 255, 54, 49, 148, 270, 168, 97
316608505, 10349, 76, -11938, -4338, 1862, 341, 94, -77, 29, -15, 323, 255, 54, 49, 148, 270, 168, 97
316609332, 10349, 76, -11938, -4338, 1862, 341, 94, -77, 29, -15, 328, 242, 59, 50, 140, 263, 165, 97
316610142, 10349, 76, -11938, -4338, 1862, 341, 94, -77, 29, -15, 328, 242, 59, 50, 140, 263, 165, 97
316631057, 10377, 44, -11918, -4327, 1899, 358, 114, -65, 24, -14, 328, 242, 59, 50, 140, 263, 165, 97
316631843, 10377, 44, -11918, -4327, 1899, 358, 114, -65, 24, -14, 315, 205, 61, 51, 99, 237, 167, 85
316632743, 10377, 44, -11918, -4327, 1899, 358, 114, -65, 24, -14, 315, 205, 61, 51, 99, 237, 167, 85
316644756, 10402, 17, -11901, -4312, 1902, 327, 101, -27, 11, -32, 315, 205, 61, 51, 99, 237, 167, 85
316652784, 10402, 17, -11901, -4312, 1902, 327, 101, -27, 11, -32, 295, 185, 57, 46, 69, 219, 163, 75
316653619, 10402, 17, -11901, -4312, 1902, 327, 101, -27, 11, -32, 295, 185, 57, 46, 69, 219, 163, 75
316668538, 10428, -9, -11883, -4298, 1910, 353, 87, -36, 31, -28, 295, 185, 57, 46, 69, 219, 163, 75
316669337, 10428, -9, -11883, -4298, 1910, 353, 87, -36, 31, -28, 284, 192, 62, 46, 90, 188, 144, 78
316670164, 10428, -9, -11883, -4298, 1910, 353, 87, -36, 31, -28, 284, 192, 62, 46, 90, 188, 144, 78
316691045, 10455, -24, -11869, -4273, 1872, 325, 76, 51, 44, -31, 284, 192, 62, 46, 90, 188, 144, 78
316691851, 10455, -24, -11869, -4273, 1872, 325, 76, 51, 44, -31, 248, 174, 66, 48, 96, 227, 102, 77
316692778, 10455, -24, -11869, -4273, 1872, 325, 76, 51, 44, -31, 248, 174, 66, 48, 96, 227, 102, 77
316704745, 10479, -34, -11857, -4248, 1863, 340, 83, 73, 34, -44, 248, 174, 66, 48, 96, 227, 102, 77
316712857, 10479, -34, -11857, -4248, 1863, 340, 83, 73, 34, -44, 234, 162, 61, 62, 116, 237, 98, 79
316713623, 10479, -34, -11857, -4248, 1863, 340, 83, 73, 34, -44, 234, 162, 61, 62, 116, 237, 98, 79
316728530, 10502, -41, -11844, -4225, 1879, 393, 72, 74, 49, -36, 234, 162, 61, 62, 116, 237, 98, 79
316729322, 10502, -41, -11844, -4225, 1879, 393, 72, 74, 49, -36, 230, 172, 82, 87, 156, 217, 92, 89
316730116, 10502, -41, -11844, -4225, 1879, 393, 72, 74, 49, -36, 230, 172, 82, 87, 156, 217, 92, 89
316751040, 10521, -50, -11834, -4207, 1846, 360, 93, 54, 4, -64, 230, 172, 82, 87, 156, 217, 92, 89
316751829, 10521, -50, -11834, -4207, 1846, 360, 93, 54, 4, -64, 239, 175, 80, 100, 167, 221, 86, 105
316752620, 10521, -50, -11834, -4207, 1846, 360, 93, 54, 4, -64, 239, 175, 80, 100, 167, 221, 86, 105
316764698, 10535, -67, -11828, -4191, 1824, 332, 91, 20, -32, -44, 239, 175, 80, 100, 167, 221, 86, 105
316772838, 10535, -67, -11828, -4191, 1824, 332, 91, 20, -32, -44, 208, 150, 88, 121, 179, 241, 83, 108
316773685, 10535, -67, -11828, -4191, 1824, 332, 91, 20, -32, -44, 208, 150, 88, 121, 179, 241, 83, 108
316788544, 10548, -79, -11817, -4186, 1866, 325, 149, -4, -43, -123, 208, 150, 88, 121, 179, 241, 83, 108
316789370, 10548, -79, -11817, -4186, 1866, 325, 149, -4, -43, -123, 207, 180, 103, 136, 186, 238, 66, 114
316790169, 10548, -79, -11817, -4186, 1866, 325, 149, -4, -43, -123, 207, 180, 103, 136, 186, 238, 66, 114
316811016, 10558, -84, -11817, -4162, 1909, 384, -59, 77, 19, -60, 207, 180, 103, 136, 186, 238, 66, 114
316811816, 10558, -84, -11817, -4162, 1909, 384, -59, 77, 19, -60, 227, 257, 114, 134, 181, 214, 60, 119
316812685, 10558, -84, -11817, -4162, 1909, 384, -59, 77, 19, -60, 227, 257, 114, 134, 181, 214, 60, 119
316824696, 10589, -82, -11798, -4137, 1757, 393, 240, 135, 40, -16, 227, 257, 114, 134, 181, 214, 60, 119
316832766, 10589, -82, -11798, -4137, 1757, 393, 240, 135, 40, -16, 195, 274, 108, 124, 153, 203, 53, 123
316833635, 10589, -82, -11798, -4137, 1757, 393, 240, 135, 40, -16, 195, 274, 108, 124, 153, 203, 53, 123
316848521, 10594, -72, -11798, -4126, 1869, 469, 54, 102, -36, -124, 195, 274, 108, 124, 153, 203, 53, 123
316849278, 10594, -72, -11798, -4126, 1869, 469, 54, 102, -36, -124, 190, 281, 112, 117, 145, 198, 54, 113
316850142, 10594, -72, -11798, -4126, 1869, 469, 54, 102, -36, -124, 190, 281, 112, 117, 145, 198, 54, 113
316871063, 10610, -82, -11790, -4105, 1940, 515, 78, 62, 0, 30, 190, 281, 112, 117, 145, 198, 54, 113
316871843, 10610, -82, -11790, -4105, 1940, 515, 78, 62, 0, 30, 178, 270, 102, 94, 115, 172, 63, 111
316872689, 10610, -82, -11790, -4105, 1940, 515, 78, 62, 0, 30, 178, 270, 102, 94, 115, 172, 63, 111
316884747, 10627, -96, -11775, -4105, 1842, 453, 77, -46, 27, -45, 178, 270, 102, 94, 115, 172, 63, 111
316892793, 10627, -96, -11775, -4105, 1842, 453, 77, -46, 27, -45, 181, 246, 87, 74, 101, 125, 67, 105
316893610, 10627, -96, -11775, -4105, 1842, 453, 77, -46, 27, -45, 181, 246, 87, 74, 101, 125, 67, 105
316908511, 10641, -118, -11764, -4099, 1778, 459, 60, -53, 7, 26, 181, 246, 87, 74, 101, 125, 67, 105
316909317, 10641, -118, -11764, -4099, 1778, 459, 60, -53, 7, 26, 193, 169, 73, 67, 90, 127, 68, 93
316910128, 10641, -118, -11764, -4099, 1778, 459, 60, -53, 7, 26, 193, 169, 73, 67, 90, 127, 68, 93
316931019, 10657, -144, -11754, -4084, 1807, 404, 43, -33, 10, 47, 193, 169, 73, 67, 90, 127, 68, 93
316931848, 10657, -144, -11754, -4084, 1807, 404, 43, -33, 10, 47, 232, 139, 60, 60, 75, 111, 71, 97
316932682, 10657, -144, -11754, -4084, 1807, 404, 43, -33, 10, 47, 232, 139, 60, 60, 75, 111, 71, 97
316944788, 10672, -163, -11748, -4063, 1809, 435, 39, 19, 9, 55, 232, 139, 60, 60, 75, 111, 71, 97
316952835, 10672, -163, -11748, -4063, 1809, 435, 39, 19, 9, 55, 220, 107, 53, 58, 92, 126, 68, 95
316953620, 10672, -163, -11748, -4063, 1809, 435, 39, 19, 9, 55, 220, 107, 53, 58, 92, 126, 68, 95
316968519, 10690, -186, -11739, -4040, 1813, 460, 10, 7, 40, 98, 220, 107, 53, 58, 92, 126, 68, 95
316969316, 10690, -186, -11739, -4040, 1813, 460, 10, 7, 40, 98, 226, 103, 51, 56, 107, 217, 111, 97
316970168, 10690, -186, -11739, -4040, 1813, 460, 10, 7, 40, 98, 226, 103, 51, 56, 107, 217, 111, 97
316991043, 10710, -210, -11727, -4020, 1753, 430, 2, -17, 60, 97, 226, 103, 51, 56, 107, 217, 111, 97
316991840, 10710, -210, -11727, -4020, 1753, 430, 2, -17, 60, 97, 229, 110, 43, 51, 146, 249, 136, 98
316992739, 10710, -210, -11727, -4020, 1753, 430, 2, -17, 60, 97, 229, 110, 43, 51, 146, 249, 136, 98
317004671, 10726, -232, -11719, -3999, 1681, 414, -6, -4, 44, 101, 229, 110, 43, 51, 146, 249, 136, 98
317012820, 10726, -232, -11719, -3999, 1681, 414, -6, -4, 44, 101, 221, 120, 42, 46, 155, 262, 146, 114
317013642, 10726, -232, -11719, -3999, 1681, 414, -6, -4, 44, 101, 221, 120, 42, 46, 155, 262, 146, 114
317028547, 10739, -245, -11719, -3966, 1676, 402, -61, 82, 43, 95, 221, 120, 42, 46, 155, 262, 146, 114
317029353, 10739, -245, -11719, -3966, 1676, 402, -61, 82, 43, 95, 176, 115, 41, 40, 157, 265, 145, 102
317030169, 10739, -245, -11719, -3966, 1676, 402, -61, 82, 43, 95, 176, 115, 41, 40, 157, 265, 145, 102
317051002, 10751, -240, -11720, -3928, 1684, 368, -98, 154, 74, 28, 176, 115, 41, 40, 157, 265, 145, 102
317051794, 10751, -240, -11720, -3928, 1684, 368, -98, 154, 74, 28, 198, 124, 37, 34, 147, 264, 176, 92
317052624, 10751, -240, -11720, -3928, 1684, 368, -98, 154, 74, 28, 198, 124, 37, 34, 147, 264, 176, 92
317064674, 10770, -224, -11715, -3892, 1671, 377, -156, 179, 170, -3, 198, 124, 37, 34, 147, 264, 176, 92
317072817, 10770, -224, -11715, -3892, 1671, 377, -156, 179, 170, -3, 188, 124, 37, 32, 140, 201, 168, 86
317073674, 10770, -224, -11715, -3892, 1671, 377, -156, 179, 170, -3, 188, 124, 37, 32, 140, 201, 168, 86
317087158, 10801, -200, -11700, -3852, 1653, 382, -133, 208, 262, 0, 188, 124, 37, 32, 140, 201, 168, 86
317095349, 10801, -200, -11700, -3852, 1653, 382, -133, 208, 262, 0, 183, 118, 40, 29, 97, 158, 156, 83
317096110, 10801, -200, -11700, -3852, 1653, 382, -133, 208, 262, 0, 183, 118, 40, 29, 97, 158, 156, 83
317111049, 10842, -179, -11670, -3830, 1668, 411, -78, 119, 328, -23, 183, 118, 40, 29, 97, 158, 156, 83
317111848, 10842, -179, -11670, -3830, 1668, 411, -78, 119, 328, -23, 166, 103, 37, 30, 79, 137, 148, 66
317112685, 10842, -179, -11670, -3830, 1668, 411, -78, 119, 328, -23, 166, 103, 37, 30, 79, 137, 148, 66
317124772, 10891, -168, -11628, -3820, 1722, 377, 12, 30, 346, -48, 166, 103, 37, 30, 79, 137, 148, 66
317132793, 10891, -168, -11628, -3820, 1722, 377, 12, 30, 346, -48, 170, 90, 35, 30, 87, 131, 149, 64
317133628, 10891, -168, -11628, -3820, 1722, 377, 12, 30, 346, -48, 170, 90, 35, 30, 87, 131, 149, 64
317147223, 10943, -153, -11579, -3823, 1733, 391, 105, 1, 356, -95, 170, 90, 35, 30, 87, 131, 149, 64
317155292, 10943, -153, -11579, -3823, 1733, 391, 105, 1, 356, -95, 132, 78, 35, 31, 79, 101, 116, 65
317156115, 10943, -153, -11579, -3823, 1733, 391, 105, 1, 356, -95, 132, 78, 35, 31, 79, 101, 116, 65
317172372, 10997, -126, -11527, -3824, 1815, 427, 116, 51, 396, -135, 132, 78, 35, 31, 79, 101, 116, 65
317173234, 10610, -82, -11790, -4105, 1940, 515, 78, 62, 0, 30, 132, 78, 35, 31, 79, 101, 116, 65
317173995, 10610, -82, -11790, -4105, 1940, 515, 78, 62, 0, 30, 178, 270, 102, 94, 115, 172, 63, 111
317174819, 10610, -82, -11790, -4105, 1940, 515, 78, 62, 0, 30, 178, 270, 102, 94, 115, 172, 63, 111
317179946, 10627, -96, -11775, -4105, 1842, 453, 77, -46, 27, -45, 178, 270, 102, 94, 115, 172, 63, 111
317180775, 10627, -96, -11775, -4105, 1842, 453, 77, -46, 27, -45, 181, 246, 87, 74, 101, 125, 67, 105
317181568, 10627, -96, -11775, -4105, 1842, 453, 77, -46, 27, -45, 181, 246, 87, 74, 101, 125, 67, 105
317182421, 10627, -96, -11775, -4105, 1842, 453, 77, -46, 27, -45, 181, 246, 87, 74, 101, 125, 67, 105
317187293, 10627, -96, -11775, -4105, 1842, 453, 77, -46, 27, -45, 181, 246, 87, 74, 101, 125, 67, 105
317188132, 10627, -96, -11775, -4105, 1842, 453, 77, -46, 27, -45, 181, 246, 87, 74, 101, 125, 67, 105
317188917, 10627, -96, -11775, -4105, 1842, 453, 77, -46, 27, -45, 181, 246, 87, 74, 101, 125, 67, 105
317189766, 10627, -96, -11775, -4105, 1842, 453, 77, -46, 27, -45, 181, 246, 87, 74, 101, 125, 67, 105
317194819, 10627, -96, -11775, -4105, 1842, 453, 77, -46, 27, -45, 181, 246, 87, 74, 101, 125, 67, 105
317195743, 10641, -118, -11764, -4099, 1778, 459, 60, -53, 7, 26, 181, 246, 87, 74, 101, 125, 67, 105
317196576, 10641, -118, -11764, -4099, 1778, 459, 60, -53, 7, 26, 193, 169, 73, 67, 90, 127, 68, 93
317197383, 10641, -118, -11764, -4099, 1778, 459, 60, -53, 7, 26, 193, 169, 73, 67, 90, 127, 68, 93
317202368, 10641, -118, -11764, -4099, 1778, 459, 60, -53, 7, 26, 193, 169, 73, 67, 90, 127, 68, 93
317203173, 10641, -118, -11764, -4099, 1778, 459, 60, -53, 7, 26, 193, 169, 73, 67, 90, 127, 68, 93
317204015, 10641, -118, -11764, -4099, 1778, 459, 60, -53, 7, 26, 193, 169, 73, 67, 90, 127, 68, 93
317204816, 10641, -118, -11764, -4099, 1778, 459, 60, -53, 7, 26, 193, 169, 73, 67, 90, 127, 68, 93
317209794, 10641, -118, -11764, -4099, 1778, 459, 60, -53, 7, 26, 193, 169, 73, 67, 90, 127, 68, 93
317210569, 10641, -118, -11764, -4099, 1778, 459, 60, -53, 7, 26, 193, 169, 73, 67, 90, 127, 68, 93
317211430, 10641, -118, -11764, -4099, 1778, 459, 60, -53, 7, 26, 193, 169, 73, 67, 90, 127, 68, 93
317212191, 10641, -118, -11764, -4099, 1778, 459, 60, -53, 7, 26, 193, 169, 73, 67, 90, 127, 68, 93
317217358, 10641, -118, -11764, -4099, 1778, 459, 60, -53, 7, 26, 193, 169, 73, 67, 90, 127, 68, 93
317218269, 10657, -144, -11754, -4084, 1807, 404, 43, -33, 10, 47, 193, 169, 73, 67, 90, 127, 68, 93
317219094, 10657, -144, -11754, -4084, 1807, 404, 43, -33, 10, 47, 232, 139, 60, 60, 75, 111, 71, 97
317219891, 10657, -144, -11754, -4084, 1807, 404, 43, -33, 10, 47, 232, 139, 60, 60, 75, 111, 71, 97
317224883, 10657, -144, -11754, -4084, 1807, 404, 43, -33, 10, 47, 232, 139, 60, 60, 75, 111, 71, 97
317225717, 10657, -144, -11754, -4084, 1807, 404, 43, -33, 10, 47, 232, 139, 60, 60, 75, 111, 71, 97
317226494, 10657, -144, -11754, -4084, 1807, 404, 43, -33, 10, 47, 232, 139, 60, 60, 75, 111, 71, 97
317227316, 10657, -144, -11754, -4084, 1807, 404, 43, -33, 10, 47, 232, 139, 60, 60, 75, 111, 71, 97
317232306, 10657, -144, -11754, -4084, 1807, 404, 43, -33, 10, 47, 232, 139, 60, 60, 75, 111, 71, 97
317233124, 10657, -144, -11754, -4084, 1807, 404, 43, -33, 10, 47, 232, 139, 60, 60, 75, 111, 71, 97
317233940, 10657, -144, -11754, -4084, 1807, 404, 43, -33, 10, 47, 232, 139, 60, 60, 75, 111, 71, 97
317234753, 10657, -144, -11754, -4084, 1807, 404, 43, -33, 10, 47, 232, 139, 60, 60, 75, 111, 71, 97
317239797, 10657, -144, -11754, -4084, 1807, 404, 43, -33, 10, 47, 232, 139, 60, 60, 75, 111, 71, 97
317240750, 10672, -163, -11748, -4063, 1809, 435, 39, 19, 9, 55, 232, 139, 60, 60, 75, 111, 71, 97
317241526, 10672, -163, -11748, -4063, 1809, 435, 39, 19, 9, 55, 220, 107, 53, 58, 92, 126, 68, 95
317242341, 10672, -163, -11748, -4063, 1809, 435, 39, 19, 9, 55, 220, 107, 53, 58, 92, 126, 68, 95
317247394, 10672, -163, -11748, -4063, 1809, 435, 39, 19, 9, 55, 220, 107, 53, 58, 92, 126, 68, 95
317248192, 10672, -163, -11748, -4063, 1809, 435, 39, 19, 9, 55, 220, 107, 53, 58, 92, 126, 68, 95
317249058, 10672, -163, -11748, -4063, 1809, 435, 39, 19, 9, 55, 220, 107, 53, 58, 92, 126, 68, 95
317249817, 10672, -163, -11748, -4063, 1809, 435, 39, 19, 9, 55, 220, 107, 53, 58, 92, 126, 68, 95
317254857, 10672, -163, -11748, -4063, 1809, 435, 39, 19, 9, 55, 220, 107, 53, 58, 92, 126, 68, 95
317255649, 10672, -163, -11748, -4063, 1809, 435, 39, 19, 9, 55, 220, 107, 53, 58, 92, 126, 68, 95
317256466, 10672, -163, -11748, -4063, 1809, 435, 39, 19, 9, 55, 220, 107, 53, 58, 92, 126, 68, 95
317257264, 10672, -163, -11748, -4063, 1809, 435, 39, 19, 9, 55, 220, 107, 53, 58, 92, 126, 68, 95
317262416, 10690, -186, -11739, -4040, 1813, 460, 10, 7, 40, 98, 220, 107, 53, 58, 92, 126, 68, 95
317263216, 10690, -186, -11739, -4040, 1813, 460, 10, 7, 40, 98, 226, 103, 51, 56, 107, 217, 111, 97
317264082, 10690, -186, -11739, -4040, 1813, 460, 10, 7, 40, 98, 226, 103, 51, 56, 107, 217, 111, 97
317264841, 10690, -186, -11739, -4040, 1813, 460, 10, 7, 40, 98, 226, 103, 51, 56, 107, 217, 111, 97
317269821, 10690, -186, -11739, -4040, 1813, 460, 10, 7, 40, 98, 226, 103, 51, 56, 107, 217, 111, 97
317270627, 10690, -186, -11739, -4040, 1813, 460, 10, 7, 40, 98, 226, 103, 51, 56, 107, 217, 111, 97
317271429, 10690, -186, -11739, -4040, 1813, 460, 10, 7, 40, 98, 226, 103, 51, 56, 107, 217, 111, 97
317272240, 10690, -186, -11739, -4040, 1813, 460, 10, 7, 40, 98, 226, 103, 51, 56, 107, 217, 111, 97
317277425, 10710, -210, -11727, -4020, 1753, 430, 2, -17, 60, 97, 226, 103, 51, 56, 107, 217, 111, 97
317278242, 10710, -210, -11727, -4020, 1753, 430, 2, -17, 60, 97, 229, 110, 43, 51, 146, 249, 136, 98
317279096, 10710, -210, -11727, -4020, 1753, 430, 2, -17, 60, 97, 229, 110, 43, 51, 146, 249, 136, 98
317279867, 10710, -210, -11727, -4020, 1753, 430, 2, -17, 60, 97, 229, 110, 43, 51, 146, 249, 136, 98
317283464, 10710, -210, -11727, -4020, 1753, 430, 2, -17, 60, 97, 229, 110, 43, 51, 146, 249, 136, 98
317284266, 10710, -210, -11727, -4020, 1753, 430, 2, -17, 60, 97, 229, 110, 43, 51, 146, 249, 136, 98
317285118, 10710, -210, -11727, -4020, 1753, 430, 2, -17, 60, 97, 229, 110, 43, 51, 146, 249, 136, 98
317290968, 11311, 79, -11250, -3735, 1809, 421, 203, 58, 240, -69, 229, 110, 43, 51, 146, 249, 136, 98
317291832, 11311, 79, -11250, -3735, 1809, 421, 203, 58, 240, -69, 37, 29, 25, 30, 75, 41, 67, 55
317292617, 11311, 79, -11250, -3735, 1809, 421, 203, 58, 240, -69, 37, 29, 25, 30, 75, 41, 67, 55
317304671, 11340, 83, -11221, -3731, 1778, 418, 205, 16, 184, -60, 37, 29, 25, 30, 75, 41, 67, 55
317312838, 11340, 83, -11221, -3731, 1778, 418, 205, 16, 184, -60, 38, 28, 31, 32, 73, 38, 59, 60
317313660, 11340, 83, -11221, -3731, 1778, 418, 205, 16, 184, -60, 38, 28, 31, 32, 73, 38, 59, 60
317327144, 11364, 89, -11199, -3724, 1791, 451, 194, 36, 145, -43, 38, 28, 31, 32, 73, 38, 59, 60
317335320, 11364, 89, -11199, -3724, 1791, 451, 194, 36, 145, -43, 38, 27, 32, 35, 90, 36, 56, 61
317336139, 11364, 89, -11199, -3724, 1791, 451, 194, 36, 145, -43, 38, 27, 32, 35, 90, 36, 56, 61
317351042, 11384, 99, -11182, -3712, 1807, 480, 192, 76, 125, -35, 38, 27, 32, 35, 90, 36, 56, 61
317351862, 11384, 99, -11182, -3712, 1807, 480, 192, 76, 125, -35, 47, 29, 33, 31, 89, 30, 53, 63
317352643, 11384, 99, -11182, -3712, 1807, 480, 192, 76, 125, -35, 47, 29, 33, 31, 89, 30, 53, 63
317364668, 11404, 106, -11167, -3699, 1792, 530, 160, 65, 132, 9, 47, 29, 33, 31, 89, 30, 53, 63
317372804, 11404, 106, -11167, -3699, 1792, 530, 160, 65, 132, 9, 46, 27, 31, 30, 93, 30, 54, 71
317373595, 11404, 106, -11167, -3699, 1792, 530, 160, 65, 132, 9, 46, 27, 31, 30, 93, 30, 54, 71
317387159, 11426, 106, -11148, -3689, 1760, 542, 163, 20, 143, 47, 46, 27, 31, 30, 93, 30, 54, 71
317395273, 11426, 106, -11148, -3689, 1760, 542, 163, 20, 143, 47, 48, 29, 32, 30, 94, 28, 35, 144
317396134, 11426, 106, -11148, -3689, 1760, 542, 163, 20, 143, 47, 48, 29, 32, 30, 94, 28, 35, 144
317402244, 11449, 100, -11128, -3676, 1739, 503, 156, 6, 148, 66, 48, 29, 32, 30, 94, 28, 35, 144
317412419, 11449, 100, -11128, -3676, 1739, 503, 156, 6, 148, 66, 48, 29, 32, 30, 94, 28, 35, 144
317413219, 10891, -168, -11628, -3820, 1722, 377, 12, 30, 346, -48, 48, 29, 32, 30, 94, 28, 35, 144
317414057, 10891, -168, -11628, -3820, 1722, 377, 12, 30, 346, -48, 170, 90, 35, 30, 87, 131, 149, 64
317414864, 10891, -168, -11628, -3820, 1722, 377, 12, 30, 346, -48, 170, 90, 35, 30, 87, 131, 149, 64
317419931, 10943, -153, -11579, -3823, 1733, 391, 105, 1, 356, -95, 170, 90, 35, 30, 87, 131, 149, 64
317420742, 10943, -153, -11579, -3823, 1733, 391, 105, 1, 356, -95, 132, 78, 35, 31, 79, 101, 116, 65
317421586, 10943, -153, -11579, -3823, 1733, 391, 105, 1, 356, -95, 132, 78, 35, 31, 79, 101, 116, 65
317422367, 10943, -153, -11579, -3823, 1733, 391, 105, 1, 356, -95, 132, 78, 35, 31, 79, 101, 116, 65
317427268, 10943, -153, -11579, -3823, 1733, 391, 105, 1, 356, -95, 132, 78, 35, 31, 79, 101, 116, 65
317428066, 10943, -153, -11579, -3823, 1733, 391, 105, 1, 356, -95, 132, 78, 35, 31, 79, 101, 116, 65
317428893, 10943, -153, -11579, -3823, 1733, 391, 105, 1, 356, -95, 132, 78, 35, 31, 79, 101, 116, 65
317429742, 10943, -153, -11579, -3823, 1733, 391, 105, 1, 356, -95, 132, 78, 35, 31, 79, 101, 116, 65
317434816, 10943, -153, -11579, -3823, 1733, 391, 105, 1, 356, -95, 132, 78, 35, 31, 79, 101, 116, 65
317435810, 10997, -126, -11527, -3824, 1815, 427, 116, 51, 396, -135, 132, 78, 35, 31, 79, 101, 116, 65
317436581, 10997, -126, -11527, -3824, 1815, 427, 116, 51, 396, -135, 124, 71, 31, 32, 74, 78, 85, 62
317437399, 10997, -126, -11527, -3824, 1815, 427, 116, 51, 396, -135, 132, 78, 35, 31, 79, 101, 116, 65
317442411, 10997, -126, -11527, -3824, 1815, 427, 116, 51, 396, -135, 124, 71, 31, 32, 74, 78, 85, 62
317443224, 10997, -126, -11527, -3824, 1815, 427, 116, 51, 396, -135, 124, 71, 31, 32, 74, 78, 85, 62
317444057, 10997, -126, -11527, -3824, 1815, 427, 116, 51, 396, -135, 124, 71, 31, 32, 74, 78, 85, 62
317444842, 10997, -126, -11527, -3824, 1815, 427, 116, 51, 396, -135, 124, 71, 31, 32, 74, 78, 85, 62
317449833, 10997, -126, -11527, -3824, 1815, 427, 116, 51, 396, -135, 124, 71, 31, 32, 74, 78, 85, 62
317450618, 10997, -126, -11527, -3824, 1815, 427, 116, 51, 396, -135, 124, 71, 31, 32, 74, 78, 85, 62
317451447, 10997, -126, -11527, -3824, 1815, 427, 116, 51, 396, -135, 124, 71, 31, 32, 74, 78, 85, 62
317452216, 10997, -126, -11527, -3824, 1815, 427, 116, 51, 396, -135, 124, 71, 31, 32, 74, 78, 85, 62
317457318, 10997, -126, -11527, -3824, 1815, 427, 116, 51, 396, -135, 124, 71, 31, 32, 74, 78, 85, 62
317458244, 11058, -98, -11471, -3816, 1832, 456, 170, 87, 414, -83, 124, 71, 31, 32, 74, 78, 85, 62
317459068, 11058, -98, -11471, -3816, 1832, 456, 170, 87, 414, -83, 115, 62, 33, 36, 85, 77, 87, 62
317459866, 11058, -98, -11471, -3816, 1832, 456, 170, 87, 414, -83, 115, 62, 33, 36, 85, 77, 87, 62
317464906, 11058, -98, -11471, -3816, 1832, 456, 170, 87, 414, -83, 115, 62, 33, 36, 85, 77, 87, 62
317465742, 11058, -98, -11471, -3816, 1832, 456, 170, 87, 414, -83, 115, 62, 33, 36, 85, 77, 87, 62
317466521, 11058, -98, -11471, -3816, 1832, 456, 170, 87, 414, -83, 115, 62, 33, 36, 85, 77, 87, 62
317467317, 11058, -98, -11471, -3816, 1832, 456, 170, 87, 414, -83, 115, 62, 33, 36, 85, 77, 87, 62
317472275, 11058, -98, -11471, -3816, 1832, 456, 170, 87, 414, -83, 115, 62, 33, 36, 85, 77, 87, 62
317473108, 11058, -98, -11471, -3816, 1832, 456, 170, 87, 414, -83, 115, 62, 33, 36, 85, 77, 87, 62
317473915, 11058, -98, -11471, -3816, 1832, 456, 170, 87, 414, -83, 115, 62, 33, 36, 85, 77, 87, 62
317474760, 11058, -98, -11471, -3816, 1832, 456, 170, 87, 414, -83, 115, 62, 33, 36, 85, 77, 87, 62
317479766, 11058, -98, -11471, -3816, 1832, 456, 170, 87, 414, -83, 115, 62, 33, 36, 85, 77, 87, 62
317480773, 11124, -61, -11414, -3797, 1816, 406, 151, 163, 469, -90, 115, 62, 33, 36, 85, 77, 87, 62
317481524, 11124, -61, -11414, -3797, 1816, 406, 151, 163, 469, -90, 88, 40, 31, 34, 87, 64, 88, 55
317482351, 11124, -61, -11414, -3797, 1816, 406, 151, 163, 469, -90, 88, 40, 31, 34, 87, 64, 88, 55
317487344, 11124, -61, -11414, -3797, 1816, 406, 151, 163, 469, -90, 88, 40, 31, 34, 87, 64, 88, 55
317488180, 11124, -61, -11414, -3797, 1816, 406, 151, 163, 469, -90, 88, 40, 31, 34, 87, 64, 88, 55
317489003, 11124, -61, -11414, -3797, 1816, 406, 151, 163, 469, -90, 88, 40, 31, 34, 87, 64, 88, 55
317489793, 11124, -61, -11414, -3797, 1816, 406, 151, 163, 469, -90, 88, 40, 31, 34, 87, 64, 88, 55
317494817, 11124, -61, -11414, -3797, 1816, 406, 151, 163, 469, -90, 88, 40, 31, 34, 87, 64, 88, 55
317495608, 11124, -61, -11414, -3797, 1816, 406, 151, 163, 469, -90, 88, 40, 31, 34, 87, 64, 88, 55
317496398, 11124, -61, -11414, -3797, 1816, 406, 151, 163, 469, -90, 88, 40, 31, 34, 87, 64, 88, 55
317497216, 11124, -61, -11414, -3797, 1816, 406, 151, 163, 469, -90, 88, 40, 31, 34, 87, 64, 88, 55
317502316, 11124, -61, -11414, -3797, 1816, 406, 151, 163, 469, -90, 88, 40, 31, 34, 87, 64, 88, 55
317503270, 11184, -9, -11361, -3779, 1695, 409, 169, 221, 452, -139, 88, 40, 31, 34, 87, 64, 88, 55
317504066, 11184, -9, -11361, -3779, 1695, 409, 169, 221, 452, -139, 62, 36, 30, 32, 72, 57, 85, 47
317504894, 11184, -9, -11361, -3779, 1695, 409, 169, 221, 452, -139, 62, 36, 30, 32, 72, 57, 85, 47
317509891, 11184, -9, -11361, -3779, 1695, 409, 169, 221, 452, -139, 62, 36, 30, 32, 72, 57, 85, 47
317510770, 11184, -9, -11361, -3779, 1695, 409, 169, 221, 452, -139, 62, 36, 30, 32, 72, 57, 85, 47
317511520, 11184, -9, -11361, -3779, 1695, 409, 169, 221, 452, -139, 62, 36, 30, 32, 72, 57, 85, 47
317512356, 11184, -9, -11361, -3779, 1695, 409, 169, 221, 452, -139, 62, 36, 30, 32, 72, 57, 85, 47
317517267, 11184, -9, -11361, -3779, 1695, 409, 169, 221, 452, -139, 62, 36, 30, 32, 72, 57, 85, 47
317518132, 11184, -9, -11361, -3779, 1695, 409, 169, 221, 452, -139, 62, 36, 30, 32, 72, 57, 85, 47
317518914, 11184, -9, -11361, -3779, 1695, 409, 169, 221, 452, -139, 62, 36, 30, 32, 72, 57, 85, 47
317519769, 11184, -9, -11361, -3779, 1695, 409, 169, 221, 452, -139, 62, 36, 30, 32, 72, 57, 85, 47
317524792, 11184, -9, -11361, -3779, 1695, 409, 169, 221, 452, -139, 62, 36, 30, 32, 72, 57, 85, 47
317525772, 11233, 39, -11319, -3761, 1658, 418, 206, 225, 347, -131, 62, 36, 30, 32, 72, 57, 85, 47
317526569, 11233, 39, -11319, -3761, 1658, 418, 206, 225, 347, -131, 50, 27, 28, 34, 90, 58, 80, 44
317527383, 11233, 39, -11319, -3761, 1658, 418, 206, 225, 347, -131, 50, 27, 28, 34, 90, 58, 80, 44
317532370, 11233, 39, -11319, -3761, 1658, 418, 206, 225, 347, -131, 50, 27, 28, 34, 90, 58, 80, 44
317533195, 11233, 39, -11319, -3761, 1658, 418, 206, 225, 347, -131, 50, 27, 28, 34, 90, 58, 80, 44
317533992, 11233, 39, -11319, -3761, 1658, 418, 206, 225, 347, -131, 50, 27, 28, 34, 90, 58, 80, 44
317534791, 11233, 39, -11319, -3761, 1658, 418, 206, 225, 347, -131, 50, 27, 28, 34, 90, 58, 80, 44
317538439, 11233, 39, -11319, -3761, 1658, 418, 206, 225, 347, -131, 50, 27, 28, 34, 90, 58, 80, 44
317539246, 11233, 39, -11319, -3761, 1658, 418, 206, 225, 347, -131, 50, 27, 28, 34, 90, 58, 80, 44
317540041, 11233, 39, -11319, -3761, 1658, 418, 206, 225, 347, -131, 50, 27, 28, 34, 90, 58, 80, 44
317544629, 11479, 107, -11124, -3591, 1633, 473, 72, 4, -13, 16, 50, 27, 28, 34, 90, 58, 80, 44
317552798, 11479, 107, -11124, -3591, 1633, 473, 72, 4, -13, 16, 41, 29, 35, 27, 32, 26, 36, 60
317553621, 11479, 107, -11124, -3591, 1633, 473, 72, 4, -13, 16, 41, 29, 35, 27, 32, 26, 36, 60
317567170, 11473, 101, -11132, -3588, 1637, 482, 53, -14, -19, 2, 41, 29, 35, 27, 32, 26, 36, 60
317575319, 11473, 101, -11132, -3588, 1637, 482, 53, -14, -19, 2, 42, 30, 29, 27, 46, 24, 32, 56
317576103, 11473, 101, -11132, -3588, 1637, 482, 53, -14, -19, 2, 42, 30, 29, 27, 46, 24, 32, 56
317582273, 11472, 100, -11133, -3587, 1632, 479, 63, -7, -13, -7, 42, 30, 29, 27, 46, 24, 32, 56
317590312, 11472, 100, -11133, -3587, 1632, 479, 63, -7, -13, -7, 46, 29, 28, 28, 54, 24, 29, 55
317591129, 11472, 100, -11133, -3587, 1632, 479, 63, -7, -13, -7, 46, 29, 28, 28, 54, 24, 29, 55
317604721, 11469, 99, -11138, -3585, 1635, 475, 53, 3, 6, -19, 46, 29, 28, 28, 54, 24, 29, 55
317612822, 11469, 99, -11138, -3585, 1635, 475, 53, 3, 6, -19, 48, 28, 25, 28, 54, 26, 27, 59
317613619, 11469, 99, -11138, -3585, 1635, 475, 53, 3, 6, -19, 48, 28, 25, 28, 54, 26, 27, 59
317627146, 11466, 102, -11142, -3580, 1640, 470, 54, 22, 16, -27, 48, 28, 25, 28, 54, 26, 27, 59
