Timestamp, Orientation x, Orientation y, Orientation z, Orientation w, Acceleration x, Acceleration y, Acceleration z, Rotation x, Rotation y, Rotation z, EMG 0, EMG 1, EMG 2, EMG 3, EMG 4, EMG 5, EMG 6, EMG 7
259534067, 6567, 8379, -10979, -5880, 387, 2008, -1316, 2600, 2904, -2929, 0, 0, 0, 0, 0, 0, 0, 0
259541576, 6615, 8958, -10589, -5683, 113, 2417, -1494, 1082, 2806, -2713, 0, 0, 0, 0, 0, 0, 0, 0
259556577, 6867, 9347, -10113, -5625, -87, 2280, -1542, -669, 2950, -2195, 0, 0, 0, 0, 0, 0, 0, 0
259579062, 7280, 9569, -9594, -5640, -518, 1800, -1747, -1971, 3086, -1572, 0, 0, 0, 0, 0, 0, 0, 0
259594076, 7709, 9668, -9130, -5673, -762, 1435, -1893, -2335, 2713, -977, 0, 0, 0, 0, 0, 0, 0, 0
259602221, 7709, 9668, -9130, -5673, -762, 1435, -1893, -2335, 2713, -977, 53, 42, 78, 34, 29, 58, 69, 87
259602985, 7709, 9668, -9130, -5673, -762, 1435, -1893, -2335, 2713, -977, 53, 42, 78, 34, 29, 58, 69, 87
259616520, 7984, 9762, -8799, -5655, -563, 1223, -1903, -1442, 2022, -708, 53, 42, 78, 34, 29, 58, 69, 87
259624709, 7984, 9762, -8799, -5655, -563, 1223, -1903, -1442, 2022, -708, 104, 37, 45, 31, 54, 86, 99, 95
259625516, 7984, 9762, -8799, -5655, -563, 1223, -1903, -1442, 2022, -708, 104, 37, 45, 31, 54, 86, 99, 95
259641900, 7965, 9979, -8646, -5536, -341, 1099, -1770, -18, 1335, -631, 104, 37, 45, 31, 54, 86, 99, 95
259642635, 7965, 9979, -8646, -5536, -341, 1099, -1770, -18, 1335, -631, 104, 37, 45, 31, 54, 86, 99, 95
259643456, 6567, 8379, -10979, -5880, 387, 2008, -1316, 2600, 2904, -2929, 104, 37, 45, 31, 54, 86, 99, 95
259644324, 6615, 8958, -10589, -5683, 113, 2417, -1494, 1082, 2806, -2713, 104, 37, 45, 31, 54, 86, 99, 95
259649269, 6867, 9347, -10113, -5625, -87, 2280, -1542, -669, 2950, -2195, 104, 37, 45, 31, 54, 86, 99, 95
259650124, 7280, 9569, -9594, -5640, -518, 1800, -1747, -1971, 3086, -1572, 104, 37, 45, 31, 54, 86, 99, 95
259650929, 7709, 9668, -9130, -5673, -762, 1435, -1893, -2335, 2713, -977, 104, 37, 45, 31, 54, 86, 99, 95
259651734, 7709, 9668, -9130, -5673, -762, 1435, -1893, -2335, 2713, -977, 53, 42, 78, 34, 29, 58, 69, 87
259656740, 7709, 9668, -9130, -5673, -762, 1435, -1893, -2335, 2713, -977, 104, 37, 45, 31, 54, 86, 99, 95
259657537, 7709, 9668, -9130, -5673, -762, 1435, -1893, -2335, 2713, -977, 104, 37, 45, 31, 54, 86, 99, 95
259658357, 7709, 9668, -9130, -5673, -762, 1435, -1893, -2335, 2713, -977, 104, 37, 45, 31, 54, 86, 99, 95
259659141, 7709, 9668, -9130, -5673, -762, 1435, -1893, -2335, 2713, -977, 104, 37, 45, 31, 54, 86, 99, 95
259664117, 7709, 9668, -9130, -5673, -762, 1435, -1893, -2335, 2713, -977, 104, 37, 45, 31, 54, 86, 99, 95
259664984, 7709, 9668, -9130, -5673, -762, 1435, -1893, -2335, 2713, -977, 104, 37, 45, 31, 54, 86, 99, 95
259665767, 7709, 9668, -9130, -5673, -762, 1435, -1893, -2335, 2713, -977, 104, 37, 45, 31, 54, 86, 99, 95
259666610, 7709, 9668, -9130, -5673, -762, 1435, -1893, -2335, 2713, -977, 104, 37, 45, 31, 54, 86, 99, 95
259671745, 7709, 9668, -9130, -5673, -762, 1435, -1893, -2335, 2713, -977, 104, 37, 45, 31, 54, 86, 99, 95
259672620, 7965, 9979, -8646, -5536, -341, 1099, -1770, -18, 1335, -631, 104, 37, 45, 31, 54, 86, 99, 95
259673473, 7965, 9979, -8646, -5536, -341, 1099, -1770, -18, 1335, -631, 114, 37, 36, 31, 57, 98, 162, 97
259674267, 7965, 9979, -8646, -5536, -341, 1099, -1770, -18, 1335, -631, 114, 37, 36, 31, 57, 98, 162, 97
259679283, 7965, 9979, -8646, -5536, -341, 1099, -1770, -18, 1335, -631, 114, 37, 36, 31, 57, 98, 162, 97
259680109, 7965, 9979, -8646, -5536, -341, 1099, -1770, -18, 1335, -631, 114, 37, 36, 31, 57, 98, 162, 97
259680892, 7965, 9979, -8646, -5536, -341, 1099, -1770, -18, 1335, -631, 114, 37, 36, 31, 57, 98, 162, 97
259681782, 7965, 9979, -8646, -5536, -341, 1099, -1770, -18, 1335, -631, 114, 37, 36, 31, 57, 98, 162, 97
259686689, 7965, 9979, -8646, -5536, -341, 1099, -1770, -18, 1335, -631, 114, 37, 36, 31, 57, 98, 162, 97
259687497, 7965, 9979, -8646, -5536, -341, 1099, -1770, -18, 1335, -631, 114, 37, 36, 31, 57, 98, 162, 97
259688274, 7965, 9979, -8646, -5536, -341, 1099, -1770, -18, 1335, -631, 114, 37, 36, 31, 57, 98, 162, 97
259689116, 7965, 9979, -8646, -5536, -341, 1099, -1770, -18, 1335, -631, 114, 37, 36, 31, 57, 98, 162, 97
259694197, 7965, 9979, -8646, -5536, -341, 1099, -1770, -18, 1335, -631, 114, 37, 36, 31, 57, 98, 162, 97
259695120, 7793, 10237, -8628, -5334, -15, 1346, -1568, 1291, 802, -518, 114, 37, 36, 31, 57, 98, 162, 97
259695963, 7793, 10237, -8628, -5334, -15, 1346, -1568, 1291, 802, -518, 123, 35, 36, 30, 58, 105, 203, 98
259696763, 7793, 10237, -8628, -5334, -15, 1346, -1568, 1291, 802, -518, 123, 35, 36, 30, 58, 105, 203, 98
259701782, 7793, 10237, -8628, -5334, -15, 1346, -1568, 1291, 802, -518, 123, 35, 36, 30, 58, 105, 203, 98
259702570, 7793, 10237, -8628, -5334, -15, 1346, -1568, 1291, 802, -518, 123, 35, 36, 30, 58, 105, 203, 98
259703396, 7793, 10237, -8628, -5334, -15, 1346, -1568, 1291, 802, -518, 123, 35, 36, 30, 58, 105, 203, 98
259704191, 7793, 10237, -8628, -5334, -15, 1346, -1568, 1291, 802, -518, 123, 35, 36, 30, 58, 105, 203, 98
259709146, 7793, 10237, -8628, -5334, -15, 1346, -1568, 1291, 802, -518, 123, 35, 36, 30, 58, 105, 203, 98
259709952, 7793, 10237, -8628, -5334, -15, 1346, -1568, 1291, 802, -518, 123, 35, 36, 30, 58, 105, 203, 98
259710742, 7793, 10237, -8628, -5334, -15, 1346, -1568, 1291, 802, -518, 123, 35, 36, 30, 58, 105, 203, 98
259711569, 7793, 10237, -8628, -5334, -15, 1346, -1568, 1291, 802, -518, 123, 35, 36, 30, 58, 105, 203, 98
259716616, 7793, 10237, -8628, -5334, -15, 1346, -1568, 1291, 802, -518, 123, 35, 36, 30, 58, 105, 203, 98
259717568, 7604, 10467, -8649, -5123, 204, 1647, -1390, 1847, 551, -392, 123, 35, 36, 30, 58, 105, 203, 98
259718366, 7604, 10467, -8649, -5123, 204, 1647, -1390, 1847, 551, -392, 129, 39, 36, 31, 60, 119, 254, 103
259719206, 7604, 10467, -8649, -5123, 204, 1647, -1390, 1847, 551, -392, 129, 39, 36, 31, 60, 119, 254, 103
259724221, 7604, 10467, -8649, -5123, 204, 1647, -1390, 1847, 551, -392, 129, 39, 36, 31, 60, 119, 254, 103
259725041, 7604, 10467, -8649, -5123, 204, 1647, -1390, 1847, 551, -392, 129, 39, 36, 31, 60, 119, 254, 103
259725883, 7604, 10467, -8649, -5123, 204, 1647, -1390, 1847, 551, -392, 129, 39, 36, 31, 60, 119, 254, 103
259726744, 7604, 10467, -8649, -5123, 204, 1647, -1390, 1847, 551, -392, 129, 39, 36, 31, 60, 119, 254, 103
259731627, 7604, 10467, -8649, -5123, 204, 1647, -1390, 1847, 551, -392, 129, 39, 36, 31, 60, 119, 254, 103
259732423, 7604, 10467, -8649, -5123, 204, 1647, -1390, 1847, 551, -392, 129, 39, 36, 31, 60, 119, 254, 103
259733282, 7604, 10467, -8649, -5123, 204, 1647, -1390, 1847, 551, -392, 129, 39, 36, 31, 60, 119, 254, 103
259734067, 7604, 10467, -8649, -5123, 204, 1647, -1390, 1847, 551, -392, 129, 39, 36, 31, 60, 119, 254, 103
259739205, 7604, 10467, -8649, -5123, 204, 1647, -1390, 1847, 551, -392, 129, 39, 36, 31, 60, 119, 254, 103
259740138, 7428, 10670, -8676, -4913, 336, 1767, -1219, 1771, 509, -285, 129, 39, 36, 31, 60, 119, 254, 103
259740943, 7428, 10670, -8676, -4913, 336, 1767, -1219, 1771, 509, -285, 143, 38, 32, 30, 59, 108, 264, 104
259741751, 7428, 10670, -8676, -4913, 336, 1767, -1219, 1771, 509, -285, 143, 38, 32, 30, 59, 108, 264, 104
259746795, 7428, 10670, -8676, -4913, 336, 1767, -1219, 1771, 509, -285, 143, 38, 32, 30, 59, 108, 264, 104
259747570, 7428, 10670, -8676, -4913, 336, 1767, -1219, 1771, 509, -285, 143, 38, 32, 30, 59, 108, 264, 104
259748403, 7428, 10670, -8676, -4913, 336, 1767, -1219, 1771, 509, -285, 143, 38, 32, 30, 59, 108, 264, 104
259749216, 7428, 10670, -8676, -4913, 336, 1767, -1219, 1771, 509, -285, 143, 38, 32, 30, 59, 108, 264, 104
259754170, 7428, 10670, -8676, -4913, 336, 1767, -1219, 1771, 509, -285, 143, 38, 32, 30, 59, 108, 264, 104
259754967, 7428, 10670, -8676, -4913, 336, 1767, -1219, 1771, 509, -285, 143, 38, 32, 30, 59, 108, 264, 104
259755820, 7428, 10670, -8676, -4913, 336, 1767, -1219, 1771, 509, -285, 143, 38, 32, 30, 59, 108, 264, 104
259756594, 7428, 10670, -8676, -4913, 336, 1767, -1219, 1771, 509, -285, 143, 38, 32, 30, 59, 108, 264, 104
259761695, 7428, 10670, -8676, -4913, 336, 1767, -1219, 1771, 509, -285, 143, 38, 32, 30, 59, 108, 264, 104
259762594, 7307, 10826, -8690, -4723, 403, 1754, -1200, 1251, 529, -242, 143, 38, 32, 30, 59, 108, 264, 104
259763451, 7307, 10826, -8690, -4723, 403, 1754, -1200, 1251, 529, -242, 116, 37, 29, 28, 37, 89, 259, 88
259764241, 7307, 10826, -8690, -4723, 403, 1754, -1200, 1251, 529, -242, 116, 37, 29, 28, 37, 89, 259, 88
259769268, 7307, 10826, -8690, -4723, 403, 1754, -1200, 1251, 529, -242, 116, 37, 29, 28, 37, 89, 259, 88
259770053, 7307, 10826, -8690, -4723, 403, 1754, -1200, 1251, 529, -242, 116, 37, 29, 28, 37, 89, 259, 88
259770867, 7307, 10826, -8690, -4723, 403, 1754, -1200, 1251, 529, -242, 116, 37, 29, 28, 37, 89, 259, 88
259771763, 7307, 10826, -8690, -4723, 403, 1754, -1200, 1251, 529, -242, 116, 37, 29, 28, 37, 89, 259, 88
259776617, 7307, 10826, -8690, -4723, 403, 1754, -1200, 1251, 529, -242, 116, 37, 29, 28, 37, 89, 259, 88
259777485, 7307, 10826, -8690, -4723, 403, 1754, -1200, 1251, 529, -242, 116, 37, 29, 28, 37, 89, 259, 88
259778266, 7307, 10826, -8690, -4723, 403, 1754, -1200, 1251, 529, -242, 116, 37, 29, 28, 37, 89, 259, 88
259779066, 7307, 10826, -8690, -4723, 403, 1754, -1200, 1251, 529, -242, 116, 37, 29, 28, 37, 89, 259, 88
259784141, 7307, 10826, -8690, -4723, 403, 1754, -1200, 1251, 529, -242, 116, 37, 29, 28, 37, 89, 259, 88
259785109, 7270, 10916, -8668, -4613, 411, 1757, -1261, 469, 459, -240, 116, 37, 29, 28, 37, 89, 259, 88
259785915, 7270, 10916, -8668, -4613, 411, 1757, -1261, 469, 459, -240, 108, 39, 29, 31, 33, 79, 230, 83
259786769, 7270, 10916, -8668, -4613, 411, 1757, -1261, 469, 459, -240, 108, 39, 29, 31, 33, 79, 230, 83
259791741, 7270, 10916, -8668, -4613, 411, 1757, -1261, 469, 459, -240, 108, 39, 29, 31, 33, 79, 230, 83
259792561, 7270, 10916, -8668, -4613, 411, 1757, -1261, 469, 459, -240, 108, 39, 29, 31, 33, 79, 230, 83
259793344, 7270, 10916, -8668, -4613, 411, 1757, -1261, 469, 459, -240, 108, 39, 29, 31, 33, 79, 230, 83
259794176, 7270, 10916, -8668, -4613, 411, 1757, -1261, 469, 459, -240, 108, 39, 29, 31, 33, 79, 230, 83
259799169, 7270, 10916, -8668, -4613, 411, 1757, -1261, 469, 459, -240, 108, 39, 29, 31, 33, 79, 230, 83
259799958, 7270, 10916, -8668, -4613, 411, 1757, -1261, 469, 459, -240, 108, 39, 29, 31, 33, 79, 230, 83
259800767, 7270, 10916, -8668, -4613, 411, 1757, -1261, 469, 459, -240, 108, 39, 29, 31, 33, 79, 230, 83
259801594, 7270, 10916, -8668, -4613, 411, 1757, -1261, 469, 459, -240, 108, 39, 29, 31, 33, 79, 230, 83
259806660, 7270, 10916, -8668, -4613, 411, 1757, -1261, 469, 459, -240, 108, 39, 29, 31, 33, 79, 230, 83
259807616, 7295, 10945, -8635, -4567, 454, 1728, -1383, -190, 336, -184, 108, 39, 29, 31, 33, 79, 230, 83
259808421, 7295, 10945, -8635, -4567, 454, 1728, -1383, -190, 336, -184, 96, 39, 27, 28, 32, 71, 199, 80
259809281, 7295, 10945, -8635, -4567, 454, 1728, -1383, -190, 336, -184, 96, 39, 27, 28, 32, 71, 199, 80
259814254, 7295, 10945, -8635, -4567, 454, 1728, -1383, -190, 336, -184, 96, 39, 27, 28, 32, 71, 199, 80
259815078, 7295, 10945, -8635, -4567, 454, 1728, -1383, -190, 336, -184, 96, 39, 27, 28, 32, 71, 199, 80
259815866, 7295, 10945, -8635, -4567, 454, 1728, -1383, -190, 336, -184, 96, 39, 27, 28, 32, 71, 199, 80
259816782, 7295, 10945, -8635, -4567, 454, 1728, -1383, -190, 336, -184, 96, 39, 27, 28, 32, 71, 199, 80
259821642, 7295, 10945, -8635, -4567, 454, 1728, -1383, -190, 336, -184, 96, 39, 27, 28, 32, 71, 199, 80
259822479, 7295, 10945, -8635, -4567, 454, 1728, -1383, -190, 336, -184, 96, 39, 27, 28, 32, 71, 199, 80
259823274, 7295, 10945, -8635, -4567, 454, 1728, -1383, -190, 336, -184, 96, 39, 27, 28, 32, 71, 199, 80
259824089, 7295, 10945, -8635, -4567, 454, 1728, -1383, -190, 336, -184, 96, 39, 27, 28, 32, 71, 199, 80
259829139, 7295, 10945, -8635, -4567, 454, 1728, -1383, -190, 336, -184, 96, 39, 27, 28, 32, 71, 199, 80
259830121, 7364, 10933, -8593, -4565, 389, 1557, -1427, -670, 278, -117, 96, 39, 27, 28, 32, 71, 199, 80
259830917, 7364, 10933, -8593, -4565, 389, 1557, -1427, -670, 278, -117, 104, 49, 47, 27, 29, 44, 136, 82
259831770, 7364, 10933, -8593, -4565, 389, 1557, -1427, -670, 278, -117, 104, 49, 47, 27, 29, 44, 136, 82
259836738, 7364, 10933, -8593, -4565, 389, 1557, -1427, -670, 278, -117, 104, 49, 47, 27, 29, 44, 136, 82
259837527, 7364, 10933, -8593, -4565, 389, 1557, -1427, -670, 278, -117, 104, 49, 47, 27, 29, 44, 136, 82
259838342, 7364, 10933, -8593, -4565, 389, 1557, -1427, -670, 278, -117, 104, 49, 47, 27, 29, 44, 136, 82
259839141, 7364, 10933, -8593, -4565, 389, 1557, -1427, -670, 278, -117, 104, 49, 47, 27, 29, 44, 136, 82
259844092, 7364, 10933, -8593, -4565, 389, 1557, -1427, -670, 278, -117, 104, 49, 47, 27, 29, 44, 136, 82
259845029, 7364, 10933, -8593, -4565, 389, 1557, -1427, -670, 278, -117, 104, 49, 47, 27, 29, 44, 136, 82
259845770, 7364, 10933, -8593, -4565, 389, 1557, -1427, -670, 278, -117, 104, 49, 47, 27, 29, 44, 136, 82
259846569, 7364, 10933, -8593, -4565, 389, 1557, -1427, -670, 278, -117, 104, 49, 47, 27, 29, 44, 136, 82
259851816, 7364, 10933, -8593, -4565, 389, 1557, -1427, -670, 278, -117, 104, 49, 47, 27, 29, 44, 136, 82
259852636, 7438, 10908, -8556, -4573, 301, 1506, -1473, -791, 252, -34, 104, 49, 47, 27, 29, 44, 136, 82
259853440, 7438, 10908, -8556, -4573, 301, 1506, -1473, -791, 252, -34, 116, 63, 87, 31, 27, 40, 112, 91
259854257, 7438, 10908, -8556, -4573, 301, 1506, -1473, -791, 252, -34, 116, 63, 87, 31, 27, 40, 112, 91
259866774, 7438, 10908, -8556, -4573, 301, 1506, -1473, -791, 252, -34, 116, 63, 87, 31, 27, 40, 112, 91
259867567, 7438, 10908, -8556, -4573, 301, 1506, -1473, -791, 252, -34, 116, 63, 87, 31, 27, 40, 112, 91
259868432, 7438, 10908, -8556, -4573, 301, 1506, -1473, -791, 252, -34, 116, 63, 87, 31, 27, 40, 112, 91
259869217, 7438, 10908, -8556, -4573, 301, 1506, -1473, -791, 252, -34, 116, 63, 87, 31, 27, 40, 112, 91
259874170, 7438, 10908, -8556, -4573, 301, 1506, -1473, -791, 252, -34, 116, 63, 87, 31, 27, 40, 112, 91
259874967, 7438, 10908, -8556, -4573, 301, 1506, -1473, -791, 252, -34, 116, 63, 87, 31, 27, 40, 112, 91
259875832, 7438, 10908, -8556, -4573, 301, 1506, -1473, -791, 252, -34, 116, 63, 87, 31, 27, 40, 112, 91
259876596, 7438, 10908, -8556, -4573, 301, 1506, -1473, -791, 252, -34, 116, 63, 87, 31, 27, 40, 112, 91
259881672, 7438, 10908, -8556, -4573, 301, 1506, -1473, -791, 252, -34, 116, 63, 87, 31, 27, 40, 112, 91
259882595, 7519, 10871, -8523, -4591, 197, 1609, -1569, -904, 239, 61, 116, 63, 87, 31, 27, 40, 112, 91
259883439, 7519, 10871, -8523, -4591, 197, 1609, -1569, -904, 239, 61, 165, 72, 120, 40, 27, 41, 97, 141
259884241, 7519, 10871, -8523, -4591, 197, 1609, -1569, -904, 239, 61, 165, 72, 120, 40, 27, 41, 97, 141
259889282, 7519, 10871, -8523, -4591, 197, 1609, -1569, -904, 239, 61, 165, 72, 120, 40, 27, 41, 97, 141
259890055, 7519, 10871, -8523, -4591, 197, 1609, -1569, -904, 239, 61, 165, 72, 120, 40, 27, 41, 97, 141
259890893, 7519, 10871, -8523, -4591, 197, 1609, -1569, -904, 239, 61, 165, 72, 120, 40, 27, 41, 97, 141
259891741, 7519, 10871, -8523, -4591, 197, 1609, -1569, -904, 239, 61, 165, 72, 120, 40, 27, 41, 97, 141
259896683, 7519, 10871, -8523, -4591, 197, 1609, -1569, -904, 239, 61, 165, 72, 120, 40, 27, 41, 97, 141
259897442, 7519, 10871, -8523, -4591, 197, 1609, -1569, -904, 239, 61, 165, 72, 120, 40, 27, 41, 97, 141
259898295, 7519, 10871, -8523, -4591, 197, 1609, -1569, -904, 239, 61, 165, 72, 120, 40, 27, 41, 97, 141
259899067, 7519, 10871, -8523, -4591, 197, 1609, -1569, -904, 239, 61, 165, 72, 120, 40, 27, 41, 97, 141
259904183, 7519, 10871, -8523, -4591, 197, 1609, -1569, -904, 239, 61, 165, 72, 120, 40, 27, 41, 97, 141
259905102, 7631, 10788, -8500, -4645, 98, 1918, -1619, -1206, 130, 259, 165, 72, 120, 40, 27, 41, 97, 141
259905890, 7631, 10788, -8500, -4645, 98, 1918, -1619, -1206, 130, 259, 174, 135, 155, 40, 29, 35, 83, 142
259906732, 7631, 10788, -8500, -4645, 98, 1918, -1619, -1206, 130, 259, 174, 135, 155, 40, 29, 35, 83, 142
259911717, 7631, 10788, -8500, -4645, 98, 1918, -1619, -1206, 130, 259, 174, 135, 155, 40, 29, 35, 83, 142
259912520, 7631, 10788, -8500, -4645, 98, 1918, -1619, -1206, 130, 259, 174, 135, 155, 40, 29, 35, 83, 142
259913316, 7631, 10788, -8500, -4645, 98, 1918, -1619, -1206, 130, 259, 174, 135, 155, 40, 29, 35, 83, 142
259914141, 7631, 10788, -8500, -4645, 98, 1918, -1619, -1206, 130, 259, 174, 135, 155, 40, 29, 35, 83, 142
259919116, 7631, 10788, -8500, -4645, 98, 1918, -1619, -1206, 130, 259, 174, 135, 155, 40, 29, 35, 83, 142
259919956, 7631, 10788, -8500, -4645, 98, 1918, -1619, -1206, 130, 259, 174, 135, 155, 40, 29, 35, 83, 142
259920763, 7631, 10788, -8500, -4645, 98, 1918, -1619, -1206, 130, 259, 174, 135, 155, 40, 29, 35, 83, 142
259921556, 7631, 10788, -8500, -4645, 98, 1918, -1619, -1206, 130, 259, 174, 135, 155, 40, 29, 35, 83, 142
259926741, 7631, 10788, -8500, -4645, 98, 1918, -1619, -1206, 130, 259, 174, 135, 155, 40, 29, 35, 83, 142
259927649, 7833, 10609, -8470, -4774, 16, 2088, -1602, -1727, -67, 425, 174, 135, 155, 40, 29, 35, 83, 142
259928422, 7833, 10609, -8470, -4774, 16, 2088, -1602, -1727, -67, 425, 184, 143, 164, 44, 29, 34, 70, 143
259929240, 7833, 10609, -8470, -4774, 16, 2088, -1602, -1727, -67, 425, 184, 143, 164, 44, 29, 34, 70, 143
259934308, 7833, 10609, -8470, -4774, 16, 2088, -1602, -1727, -67, 425, 184, 143, 164, 44, 29, 34, 70, 143
259935067, 7833, 10609, -8470, -4774, 16, 2088, -1602, -1727, -67, 425, 184, 143, 164, 44, 29, 34, 70, 143
259935933, 7833, 10609, -8470, -4774, 16, 2088, -1602, -1727, -67, 425, 184, 143, 164, 44, 29, 34, 70, 143
259936737, 7833, 10609, -8470, -4774, 16, 2088, -1602, -1727, -67, 425, 184, 143, 164, 44, 29, 34, 70, 143
259941621, 7833, 10609, -8470, -4774, 16, 2088, -1602, -1727, -67, 425, 184, 143, 164, 44, 29, 34, 70, 143
259942442, 7833, 10609, -8470, -4774, 16, 2088, -1602, -1727, -67, 425, 184, 143, 164, 44, 29, 34, 70, 143
259943241, 7833, 10609, -8470, -4774, 16, 2088, -1602, -1727, -67, 425, 184, 143, 164, 44, 29, 34, 70, 143
259944066, 7833, 10609, -8470, -4774, 16, 2088, -1602, -1727, -67, 425, 184, 143, 164, 44, 29, 34, 70, 143
259949194, 7833, 10609, -8470, -4774, 16, 2088, -1602, -1727, -67, 425, 184, 143, 164, 44, 29, 34, 70, 143
259950094, 8097, 10318, -8455, -4992, -126, 2248, -1572, -2489, -429, 690, 184, 143, 164, 44, 29, 34, 70, 143
259950943, 8097, 10318, -8455, -4992, -126, 2248, -1572, -2489, -429, 690, 189, 145, 165, 48, 29, 30, 53, 153
259951747, 8097, 10318, -8455, -4992, -126, 2248, -1572, -2489, -429, 690, 189, 145, 165, 48, 29, 30, 53, 153
259956771, 8097, 10318, -8455, -4992, -126, 2248, -1572, -2489, -429, 690, 189, 145, 165, 48, 29, 30, 53, 153
259957545, 8097, 10318, -8455, -4992, -126, 2248, -1572, -2489, -429, 690, 189, 145, 165, 48, 29, 30, 53, 153
259958408, 8097, 10318, -8455, -4992, -126, 2248, -1572, -2489, -429, 690, 189, 145, 165, 48, 29, 30, 53, 153
259959180, 8097, 10318, -8455, -4992, -126, 2248, -1572, -2489, -429, 690, 189, 145, 165, 48, 29, 30, 53, 153
259964147, 8097, 10318, -8455, -4992, -126, 2248, -1572, -2489, -429, 690, 189, 145, 165, 48, 29, 30, 53, 153
259964942, 8097, 10318, -8455, -4992, -126, 2248, -1572, -2489, -429, 690, 189, 145, 165, 48, 29, 30, 53, 153
259965796, 8097, 10318, -8455, -4992, -126, 2248, -1572, -2489, -429, 690, 189, 145, 165, 48, 29, 30, 53, 153
259966582, 8097, 10318, -8455, -4992, -126, 2248, -1572, -2489, -429, 690, 189, 145, 165, 48, 29, 30, 53, 153
259971648, 8097, 10318, -8455, -4992, -126, 2248, -1572, -2489, -429, 690, 189, 145, 165, 48, 29, 30, 53, 153
259972577, 8368, 9932, -8485, -5268, -151, 2206, -1351, -2868, -903, 976, 189, 145, 165, 48, 29, 30, 53, 153
259973391, 8368, 9932, -8485, -5268, -151, 2206, -1351, -2868, -903, 976, 197, 159, 161, 61, 31, 28, 51, 164
259974350, 8368, 9932, -8485, -5268, -151, 2206, -1351, -2868, -903, 976, 197, 159, 161, 61, 31, 28, 51, 164
259979216, 8368, 9932, -8485, -5268, -151, 2206, -1351, -2868, -903, 976, 197, 159, 161, 61, 31, 28, 51, 164
259980043, 8368, 9932, -8485, -5268, -151, 2206, -1351, -2868, -903, 976, 197, 159, 161, 61, 31, 28, 51, 164
259980842, 8368, 9932, -8485, -5268, -151, 2206, -1351, -2868, -903, 976, 197, 159, 161, 61, 31, 28, 51, 164
259981739, 8368, 9932, -8485, -5268, -151, 2206, -1351, -2868, -903, 976, 197, 159, 161, 61, 31, 28, 51, 164
259986612, 8368, 9932, -8485, -5268, -151, 2206, -1351, -2868, -903, 976, 197, 159, 161, 61, 31, 28, 51, 164
259987419, 8368, 9932, -8485, -5268, -151, 2206, -1351, -2868, -903, 976, 197, 159, 161, 61, 31, 28, 51, 164
259988240, 8368, 9932, -8485, -5268, -151, 2206, -1351, -2868, -903, 976, 197, 159, 161, 61, 31, 28, 51, 164
259989081, 8368, 9932, -8485, -5268, -151, 2206, -1351, -2868, -903, 976, 197, 159, 161, 61, 31, 28, 51, 164
259994176, 8368, 9932, -8485, -5268, -151, 2206, -1351, -2868, -903, 976, 197, 159, 161, 61, 31, 28, 51, 164
259995156, 8618, 9456, -8587, -5568, -121, 2098, -1127, -2984, -1415, 1377, 197, 159, 161, 61, 31, 28, 51, 164
259995939, 8618, 9456, -8587, -5568, -121, 2098, -1127, -2984, -1415, 1377, 159, 158, 145, 61, 35, 25, 47, 127
259996770, 8618, 9456, -8587, -5568, -121, 2098, -1127, -2984, -1415, 1377, 159, 158, 145, 61, 35, 25, 47, 127
260001741, 8618, 9456, -8587, -5568, -121, 2098, -1127, -2984, -1415, 1377, 159, 158, 145, 61, 35, 25, 47, 127
260002610, 8618, 9456, -8587, -5568, -121, 2098, -1127, -2984, -1415, 1377, 159, 158, 145, 61, 35, 25, 47, 127
260003366, 8618, 9456, -8587, -5568, -121, 2098, -1127, -2984, -1415, 1377, 159, 158, 145, 61, 35, 25, 47, 127
260004235, 8618, 9456, -8587, -5568, -121, 2098, -1127, -2984, -1415, 1377, 159, 158, 145, 61, 35, 25, 47, 127
260009141, 8618, 9456, -8587, -5568, -121, 2098, -1127, -2984, -1415, 1377, 159, 158, 145, 61, 35, 25, 47, 127
260009996, 8618, 9456, -8587, -5568, -121, 2098, -1127, -2984, -1415, 1377, 159, 158, 145, 61, 35, 25, 47, 127
260010767, 8618, 9456, -8587, -5568, -121, 2098, -1127, -2984, -1415, 1377, 159, 158, 145, 61, 35, 25, 47, 127
260011635, 8618, 9456, -8587, -5568, -121, 2098, -1127, -2984, -1415, 1377, 159, 158, 145, 61, 35, 25, 47, 127
260016646, 8618, 9456, -8587, -5568, -121, 2098, -1127, -2984, -1415, 1377, 159, 158, 145, 61, 35, 25, 47, 127
260017623, 8841, 8881, -8764, -5880, -37, 2065, -770, -3051, -1947, 1820, 159, 158, 145, 61, 35, 25, 47, 127
260018397, 8841, 8881, -8764, -5880, -37, 2065, -770, -3051, -1947, 1820, 150, 113, 121, 65, 66, 36, 48, 128
260019210, 8841, 8881, -8764, -5880, -37, 2065, -770, -3051, -1947, 1820, 150, 113, 121, 65, 66, 36, 48, 128
260024257, 8841, 8881, -8764, -5880, -37, 2065, -770, -3051, -1947, 1820, 150, 113, 121, 65, 66, 36, 48, 128
260025042, 8841, 8881, -8764, -5880, -37, 2065, -770, -3051, -1947, 1820, 150, 113, 121, 65, 66, 36, 48, 128
260025879, 8841, 8881, -8764, -5880, -37, 2065, -770, -3051, -1947, 1820, 150, 113, 121, 65, 66, 36, 48, 128
260026743, 8841, 8881, -8764, -5880, -37, 2065, -770, -3051, -1947, 1820, 150, 113, 121, 65, 66, 36, 48, 128
260031646, 8841, 8881, -8764, -5880, -37, 2065, -770, -3051, -1947, 1820, 150, 113, 121, 65, 66, 36, 48, 128
260032423, 8841, 8881, -8764, -5880, -37, 2065, -770, -3051, -1947, 1820, 150, 113, 121, 65, 66, 36, 48, 128
260033271, 8841, 8881, -8764, -5880, -37, 2065, -770, -3051, -1947, 1820, 150, 113, 121, 65, 66, 36, 48, 128
260034067, 8841, 8881, -8764, -5880, -37, 2065, -770, -3051, -1947, 1820, 150, 113, 121, 65, 66, 36, 48, 128
260039162, 8841, 8881, -8764, -5880, -37, 2065, -770, -3051, -1947, 1820, 150, 113, 121, 65, 66, 36, 48, 128
260040085, 9017, 8222, -9004, -6200, 117, 1761, -428, -3037, -2485, 2128, 150, 113, 121, 65, 66, 36, 48, 128
260040891, 9017, 8222, -9004, -6200, 117, 1761, -428, -3037, -2485, 2128, 149, 111, 111, 69, 71, 45, 85, 131
260041781, 9017, 8222, -9004, -6200, 117, 1761, -428, -3037, -2485, 2128, 149, 111, 111, 69, 71, 45, 85, 131
260046771, 9017, 8222, -9004, -6200, 117, 1761, -428, -3037, -2485, 2128, 149, 111, 111, 69, 71, 45, 85, 131
260047560, 9017, 8222, -9004, -6200, 117, 1761, -428, -3037, -2485, 2128, 149, 111, 111, 69, 71, 45, 85, 131
260048367, 9017, 8222, -9004, -6200, 117, 1761, -428, -3037, -2485, 2128, 149, 111, 111, 69, 71, 45, 85, 131
260049191, 9017, 8222, -9004, -6200, 117, 1761, -428, -3037, -2485, 2128, 149, 111, 111, 69, 71, 45, 85, 131
260054138, 9017, 8222, -9004, -6200, 117, 1761, -428, -3037, -2485, 2128, 149, 111, 111, 69, 71, 45, 85, 131
260054966, 9017, 8222, -9004, -6200, 117, 1761, -428, -3037, -2485, 2128, 149, 111, 111, 69, 71, 45, 85, 131
260055811, 9017, 8222, -9004, -6200, 117, 1761, -428, -3037, -2485, 2128, 149, 111, 111, 69, 71, 45, 85, 131
260056619, 9017, 8222, -9004, -6200, 117, 1761, -428, -3037, -2485, 2128, 149, 111, 111, 69, 71, 45, 85, 131
260061666, 9017, 8222, -9004, -6200, 117, 1761, -428, -3037, -2485, 2128, 149, 111, 111, 69, 71, 45, 85, 131
260062623, 9112, 7537, -9287, -6508, 316, 1491, -174, -2732, -2892, 2167, 149, 111, 111, 69, 71, 45, 85, 131
260063444, 9112, 7537, -9287, -6508, 316, 1491, -174, -2732, -2892, 2167, 173, 111, 112, 75, 72, 115, 140, 126
260064272, 9112, 7537, -9287, -6508, 316, 1491, -174, -2732, -2892, 2167, 173, 111, 112, 75, 72, 115, 140, 126
260069242, 9112, 7537, -9287, -6508, 316, 1491, -174, -2732, -2892, 2167, 173, 111, 112, 75, 72, 115, 140, 126
260070080, 9112, 7537, -9287, -6508, 316, 1491, -174, -2732, -2892, 2167, 173, 111, 112, 75, 72, 115, 140, 126
260070867, 9112, 7537, -9287, -6508, 316, 1491, -174, -2732, -2892, 2167, 173, 111, 112, 75, 72, 115, 140, 126
260071772, 9112, 7537, -9287, -6508, 316, 1491, -174, -2732, -2892, 2167, 173, 111, 112, 75, 72, 115, 140, 126
260076618, 9112, 7537, -9287, -6508, 316, 1491, -174, -2732, -2892, 2167, 173, 111, 112, 75, 72, 115, 140, 126
260077488, 9112, 7537, -9287, -6508, 316, 1491, -174, -2732, -2892, 2167, 173, 111, 112, 75, 72, 115, 140, 126
260078267, 9112, 7537, -9287, -6508, 316, 1491, -174, -2732, -2892, 2167, 173, 111, 112, 75, 72, 115, 140, 126
260079096, 9112, 7537, -9287, -6508, 316, 1491, -174, -2732, -2892, 2167, 173, 111, 112, 75, 72, 115, 140, 126
260084144, 9112, 7537, -9287, -6508, 316, 1491, -174, -2732, -2892, 2167, 173, 111, 112, 75, 72, 115, 140, 126
260085072, 9110, 6857, -9610, -6788, 621, 1405, -14, -2278, -3252, 2094, 173, 111, 112, 75, 72, 115, 140, 126
260085882, 9110, 6857, -9610, -6788, 621, 1405, -14, -2278, -3252, 2094, 245, 112, 93, 68, 73, 143, 288, 144
260086740, 9110, 6857, -9610, -6788, 621, 1405, -14, -2278, -3252, 2094, 245, 112, 93, 68, 73, 143, 288, 144
260091766, 9110, 6857, -9610, -6788, 621, 1405, -14, -2278, -3252, 2094, 245, 112, 93, 68, 73, 143, 288, 144
260092506, 9110, 6857, -9610, -6788, 621, 1405, -14, -2278, -3252, 2094, 245, 112, 93, 68, 73, 143, 288, 144
260093320, 9110, 6857, -9610, -6788, 621, 1405, -14, -2278, -3252, 2094, 245, 112, 93, 68, 73, 143, 288, 144
260094141, 9110, 6857, -9610, -6788, 621, 1405, -14, -2278, -3252, 2094, 245, 112, 93, 68, 73, 143, 288, 144
260099137, 9110, 6857, -9610, -6788, 621, 1405, -14, -2278, -3252, 2094, 245, 112, 93, 68, 73, 143, 288, 144
260099916, 9110, 6857, -9610, -6788, 621, 1405, -14, -2278, -3252, 2094, 245, 112, 93, 68, 73, 143, 288, 144
260100766, 9110, 6857, -9610, -6788, 621, 1405, -14, -2278, -3252, 2094, 245, 112, 93, 68, 73, 143, 288, 144
260101544, 9110, 6857, -9610, -6788, 621, 1405, -14, -2278, -3252, 2094, 245, 112, 93, 68, 73, 143, 288, 144
260106672, 9110, 6857, -9610, -6788, 621, 1405, -14, -2278, -3252, 2094, 245, 112, 93, 68, 73, 143, 288, 144
260107604, 9041, 6188, -9950, -7029, 923, 1466, 62, -1916, -3410, 2032, 245, 112, 93, 68, 73, 143, 288, 144
260108398, 9041, 6188, -9950, -7029, 923, 1466, 62, -1916, -3410, 2032, 295, 119, 85, 75, 73, 151, 305, 182
260109216, 9041, 6188, -9950, -7029, 923, 1466, 62, -1916, -3410, 2032, 295, 119, 85, 75, 73, 151, 305, 182
260114246, 9041, 6188, -9950, -7029, 923, 1466, 62, -1916, -3410, 2032, 295, 119, 85, 75, 73, 151, 305, 182
260115069, 9041, 6188, -9950, -7029, 923, 1466, 62, -1916, -3410, 2032, 295, 119, 85, 75, 73, 151, 305, 182
260115902, 9041, 6188, -9950, -7029, 923, 1466, 62, -1916, -3410, 2032, 295, 119, 85, 75, 73, 151, 305, 182
260116735, 9041, 6188, -9950, -7029, 923, 1466, 62, -1916, -3410, 2032, 295, 119, 85, 75, 73, 151, 305, 182
260121634, 9041, 6188, -9950, -7029, 923, 1466, 62, -1916, -3410, 2032, 295, 119, 85, 75, 73, 151, 305, 182
260122463, 9041, 6188, -9950, -7029, 923, 1466, 62, -1916, -3410, 2032, 295, 119, 85, 75, 73, 151, 305, 182
260123258, 9041, 6188, -9950, -7029, 923, 1466, 62, -1916, -3410, 2032, 295, 119, 85, 75, 73, 151, 305, 182
260124088, 9041, 6188, -9950, -7029, 923, 1466, 62, -1916, -3410, 2032, 295, 119, 85, 75, 73, 151, 305, 182
260129167, 9041, 6188, -9950, -7029, 923, 1466, 62, -1916, -3410, 2032, 295, 119, 85, 75, 73, 151, 305, 182
260130134, 8937, 5499, -10274, -7265, 1059, 1580, 2, -1926, -3513, 2001, 295, 119, 85, 75, 73, 151, 305, 182
260130916, 8937, 5499, -10274, -7265, 1059, 1580, 2, -1926, -3513, 2001, 318, 118, 67, 76, 51, 154, 316, 223
260131782, 8937, 5499, -10274, -7265, 1059, 1580, 2, -1926, -3513, 2001, 318, 118, 67, 76, 51, 154, 316, 223
260136747, 8937, 5499, -10274, -7265, 1059, 1580, 2, -1926, -3513, 2001, 318, 118, 67, 76, 51, 154, 316, 223
260137544, 8937, 5499, -10274, -7265, 1059, 1580, 2, -1926, -3513, 2001, 318, 118, 67, 76, 51, 154, 316, 223
260138365, 8937, 5499, -10274, -7265, 1059, 1580, 2, -1926, -3513, 2001, 318, 118, 67, 76, 51, 154, 316, 223
260139165, 8937, 5499, -10274, -7265, 1059, 1580, 2, -1926, -3513, 2001, 318, 118, 67, 76, 51, 154, 316, 223
260144138, 8937, 5499, -10274, -7265, 1059, 1580, 2, -1926, -3513, 2001, 318, 118, 67, 76, 51, 154, 316, 223
260144941, 8937, 5499, -10274, -7265, 1059, 1580, 2, -1926, -3513, 2001, 318, 118, 67, 76, 51, 154, 316, 223
260145752, 8937, 5499, -10274, -7265, 1059, 1580, 2, -1926, -3513, 2001, 318, 118, 67, 76, 51, 154, 316, 223
260146573, 8937, 5499, -10274, -7265, 1059, 1580, 2, -1926, -3513, 2001, 318, 118, 67, 76, 51, 154, 316, 223
260151643, 8937, 5499, -10274, -7265, 1059, 1580, 2, -1926, -3513, 2001, 318, 118, 67, 76, 51, 154, 316, 223
260152579, 8802, 4809, -10566, -7496, 1188, 1458, -178, -1962, -3508, 1873, 318, 118, 67, 76, 51, 154, 316, 223
260153390, 8802, 4809, -10566, -7496, 1188, 1458, -178, -1962, -3508, 1873, 333, 114, 66, 75, 44, 157, 321, 260
260154219, 8802, 4809, -10566, -7496, 1188, 1458, -178, -1962, -3508, 1873, 333, 114, 66, 75, 44, 157, 321, 260
260159218, 8802, 4809, -10566, -7496, 1188, 1458, -178, -1962, -3508, 1873, 333, 114, 66, 75, 44, 157, 321, 260
260160045, 8802, 4809, -10566, -7496, 1188, 1458, -178, -1962, -3508, 1873, 333, 114, 66, 75, 44, 157, 321, 260
260160842, 8802, 4809, -10566, -7496, 1188, 1458, -178, -1962, -3508, 1873, 333, 114, 66, 75, 44, 157, 321, 260
260161686, 8802, 4809, -10566, -7496, 1188, 1458, -178, -1962, -3508, 1873, 333, 114, 66, 75, 44, 157, 321, 260
260166719, 8802, 4809, -10566, -7496, 1188, 1458, -178, -1962, -3508, 1873, 333, 114, 66, 75, 44, 157, 321, 260
260167496, 8802, 4809, -10566, -7496, 1188, 1458, -178, -1962, -3508, 1873, 333, 114, 66, 75, 44, 157, 321, 260
260168314, 8802, 4809, -10566, -7496, 1188, 1458, -178, -1962, -3508, 1873, 333, 114, 66, 75, 44, 157, 321, 260
260169114, 8802, 4809, -10566, -7496, 1188, 1458, -178, -1962, -3508, 1873, 333, 114, 66, 75, 44, 157, 321, 260
260174167, 8802, 4809, -10566, -7496, 1188, 1458, -178, -1962, -3508, 1873, 333, 114, 66, 75, 44, 157, 321, 260
260175160, 8639, 4173, -10804, -7724, 1255, 1084, -235, -1887, -3300, 1498, 333, 114, 66, 75, 44, 157, 321, 260
260175919, 8639, 4173, -10804, -7724, 1255, 1084, -235, -1887, -3300, 1498, 343, 108, 53, 73, 46, 120, 305, 310
260176744, 8639, 4173, -10804, -7724, 1255, 1084, -235, -1887, -3300, 1498, 343, 108, 53, 73, 46, 120, 305, 310
260181758, 8639, 4173, -10804, -7724, 1255, 1084, -235, -1887, -3300, 1498, 343, 108, 53, 73, 46, 120, 305, 310
260182570, 8639, 4173, -10804, -7724, 1255, 1084, -235, -1887, -3300, 1498, 343, 108, 53, 73, 46, 120, 305, 310
260183358, 8639, 4173, -10804, -7724, 1255, 1084, -235, -1887, -3300, 1498, 343, 108, 53, 73, 46, 120, 305, 310
260184167, 8639, 4173, -10804, -7724, 1255, 1084, -235, -1887, -3300, 1498, 343, 108, 53, 73, 46, 120, 305, 310
260189141, 8639, 4173, -10804, -7724, 1255, 1084, -235, -1887, -3300, 1498, 343, 108, 53, 73, 46, 120, 305, 310
260189969, 8639, 4173, -10804, -7724, 1255, 1084, -235, -1887, -3300, 1498, 343, 108, 53, 73, 46, 120, 305, 310
260190768, 8639, 4173, -10804, -7724, 1255, 1084, -235, -1887, -3300, 1498, 343, 108, 53, 73, 46, 120, 305, 310
260191582, 8639, 4173, -10804, -7724, 1255, 1084, -235, -1887, -3300, 1498, 343, 108, 53, 73, 46, 120, 305, 310
260196647, 8639, 4173, -10804, -7724, 1255, 1084, -235, -1887, -3300, 1498, 343, 108, 53, 73, 46, 120, 305, 310
260197596, 8444, 3632, -11015, -7913, 1367, 812, -194, -1481, -3028, 1111, 343, 108, 53, 73, 46, 120, 305, 310
260198399, 8444, 3632, -11015, -7913, 1367, 812, -194, -1481, -3028, 1111, 357, 77, 54, 74, 46, 90, 176, 302
260199215, 8444, 3632, -11015, -7913, 1367, 812, -194, -1481, -3028, 1111, 357, 77, 54, 74, 46, 90, 176, 302
260204220, 8444, 3632, -11015, -7913, 1367, 812, -194, -1481, -3028, 1111, 357, 77, 54, 74, 46, 90, 176, 302
260205081, 8444, 3632, -11015, -7913, 1367, 812, -194, -1481, -3028, 1111, 357, 77, 54, 74, 46, 90, 176, 302
260205842, 8444, 3632, -11015, -7913, 1367, 812, -194, -1481, -3028, 1111, 357, 77, 54, 74, 46, 90, 176, 302
260206782, 8444, 3632, -11015, -7913, 1367, 812, -194, -1481, -3028, 1111, 357, 77, 54, 74, 46, 90, 176, 302
260211617, 8444, 3632, -11015, -7913, 1367, 812, -194, -1481, -3028, 1111, 357, 77, 54, 74, 46, 90, 176, 302
260212444, 8444, 3632, -11015, -7913, 1367, 812, -194, -1481, -3028, 1111, 357, 77, 54, 74, 46, 90, 176, 302
260213241, 8444, 3632, -11015, -7913, 1367, 812, -194, -1481, -3028, 1111, 357, 77, 54, 74, 46, 90, 176, 302
260214057, 8444, 3632, -11015, -7913, 1367, 812, -194, -1481, -3028, 1111, 357, 77, 54, 74, 46, 90, 176, 302
260219132, 8444, 3632, -11015, -7913, 1367, 812, -194, -1481, -3028, 1111, 357, 77, 54, 74, 46, 90, 176, 302
260220089, 8234, 3196, -11221, -8033, 1526, 763, -303, -921, -2698, 853, 357, 77, 54, 74, 46, 90, 176, 302
260220867, 8234, 3196, -11221, -8033, 1526, 763, -303, -921, -2698, 853, 321, 61, 50, 70, 48, 84, 154, 288
260221783, 8234, 3196, -11221, -8033, 1526, 763, -303, -921, -2698, 853, 321, 61, 50, 70, 48, 84, 154, 288
260226764, 8234, 3196, -11221, -8033, 1526, 763, -303, -921, -2698, 853, 321, 61, 50, 70, 48, 84, 154, 288
260227553, 8234, 3196, -11221, -8033, 1526, 763, -303, -921, -2698, 853, 321, 61, 50, 70, 48, 84, 154, 288
260228341, 8234, 3196, -11221, -8033, 1526, 763, -303, -921, -2698, 853, 321, 61, 50, 70, 48, 84, 154, 288
260229183, 8234, 3196, -11221, -8033, 1526, 763, -303, -921, -2698, 853, 321, 61, 50, 70, 48, 84, 154, 288
260234143, 8234, 3196, -11221, -8033, 1526, 763, -303, -921, -2698, 853, 321, 61, 50, 70, 48, 84, 154, 288
260234988, 8234, 3196, -11221, -8033, 1526, 763, -303, -921, -2698, 853, 321, 61, 50, 70, 48, 84, 154, 288
260235792, 8234, 3196, -11221, -8033, 1526, 763, -303, -921, -2698, 853, 321, 61, 50, 70, 48, 84, 154, 288
260236624, 8234, 3196, -11221, -8033, 1526, 763, -303, -921, -2698, 853, 321, 61, 50, 70, 48, 84, 154, 288
260241657, 8234, 3196, -11221, -8033, 1526, 763, -303, -921, -2698, 853, 321, 61, 50, 70, 48, 84, 154, 288
260242593, 8020, 2876, -11423, -8085, 1593, 871, -352, -347, -2309, 590, 321, 61, 50, 70, 48, 84, 154, 288
260243422, 8020, 2876, -11423, -8085, 1593, 871, -352, -347, -2309, 590, 313, 66, 62, 67, 52, 82, 134, 271
260244257, 8020, 2876, -11423, -8085, 1593, 871, -352, -347, -2309, 590, 313, 66, 62, 67, 52, 82, 134, 271
260249248, 8020, 2876, -11423, -8085, 1593, 871, -352, -347, -2309, 590, 313, 66, 62, 67, 52, 82, 134, 271
260250079, 8020, 2876, -11423, -8085, 1593, 871, -352, -347, -2309, 590, 313, 66, 62, 67, 52, 82, 134, 271
260250867, 8020, 2876, -11423, -8085, 1593, 871, -352, -347, -2309, 590, 313, 66, 62, 67, 52, 82, 134, 271
260251769, 8020, 2876, -11423, -8085, 1593, 871, -352, -347, -2309, 590, 313, 66, 62, 67, 52, 82, 134, 271
260256642, 8020, 2876, -11423, -8085, 1593, 871, -352, -347, -2309, 590, 313, 66, 62, 67, 52, 82, 134, 271
260257441, 8020, 2876, -11423, -8085, 1593, 871, -352, -347, -2309, 590, 313, 66, 62, 67, 52, 82, 134, 271
260258265, 8020, 2876, -11423, -8085, 1593, 871, -352, -347, -2309, 590, 313, 66, 62, 67, 52, 82, 134, 271
260259088, 8020, 2876, -11423, -8085, 1593, 871, -352, -347, -2309, 590, 313, 66, 62, 67, 52, 82, 134, 271
260264166, 8020, 2876, -11423, -8085, 1593, 871, -352, -347, -2309, 590, 313, 66, 62, 67, 52, 82, 134, 271
260265069, 7801, 2662, -11617, -8096, 1592, 956, -345, 89, -1975, 272, 313, 66, 62, 67, 52, 82, 134, 271
260265921, 7801, 2662, -11617, -8096, 1592, 956, -345, 89, -1975, 272, 295, 66, 62, 63, 55, 80, 109, 237
260266742, 7801, 2662, -11617, -8096, 1592, 956, -345, 89, -1975, 272, 295, 66, 62, 63, 55, 80, 109, 237
260271776, 7801, 2662, -11617, -8096, 1592, 956, -345, 89, -1975, 272, 295, 66, 62, 63, 55, 80, 109, 237
260272525, 7801, 2662, -11617, -8096, 1592, 956, -345, 89, -1975, 272, 295, 66, 62, 63, 55, 80, 109, 237
260273382, 7801, 2662, -11617, -8096, 1592, 956, -345, 89, -1975, 272, 295, 66, 62, 63, 55, 80, 109, 237
260274167, 7801, 2662, -11617, -8096, 1592, 956, -345, 89, -1975, 272, 295, 66, 62, 63, 55, 80, 109, 237
260279146, 7801, 2662, -11617, -8096, 1592, 956, -345, 89, -1975, 272, 295, 66, 62, 63, 55, 80, 109, 237
260279917, 7801, 2662, -11617, -8096, 1592, 956, -345, 89, -1975, 272, 295, 66, 62, 63, 55, 80, 109, 237
260280782, 7801, 2662, -11617, -8096, 1592, 956, -345, 89, -1975, 272, 295, 66, 62, 63, 55, 80, 109, 237
260281545, 7801, 2662, -11617, -8096, 1592, 956, -345, 89, -1975, 272, 295, 66, 62, 63, 55, 80, 109, 237
260286709, 7801, 2662, -11617, -8096, 1592, 956, -345, 89, -1975, 272, 295, 66, 62, 63, 55, 80, 109, 237
260287619, 7584, 2530, -11810, -8066, 1608, 1013, -307, 481, -1711, 60, 295, 66, 62, 63, 55, 80, 109, 237
260288464, 7584, 2530, -11810, -8066, 1608, 1013, -307, 481, -1711, 60, 269, 66, 66, 60, 58, 78, 100, 164
260289241, 7584, 2530, -11810, -8066, 1608, 1013, -307, 481, -1711, 60, 269, 66, 66, 60, 58, 78, 100, 164
260294281, 7584, 2530, -11810, -8066, 1608, 1013, -307, 481, -1711, 60, 269, 66, 66, 60, 58, 78, 100, 164
260295067, 7584, 2530, -11810, -8066, 1608, 1013, -307, 481, -1711, 60, 269, 66, 66, 60, 58, 78, 100, 164
260295921, 7584, 2530, -11810, -8066, 1608, 1013, -307, 481, -1711, 60, 269, 66, 66, 60, 58, 78, 100, 164
260296790, 7584, 2530, -11810, -8066, 1608, 1013, -307, 481, -1711, 60, 269, 66, 66, 60, 58, 78, 100, 164
260301652, 7584, 2530, -11810, -8066, 1608, 1013, -307, 481, -1711, 60, 269, 66, 66, 60, 58, 78, 100, 164
260302487, 7584, 2530, -11810, -8066, 1608, 1013, -307, 481, -1711, 60, 269, 66, 66, 60, 58, 78, 100, 164
260303267, 7584, 2530, -11810, -8066, 1608, 1013, -307, 481, -1711, 60, 269, 66, 66, 60, 58, 78, 100, 164
260304132, 7584, 2530, -11810, -8066, 1608, 1013, -307, 481, -1711, 60, 269, 66, 66, 60, 58, 78, 100, 164
260309167, 7584, 2530, -11810, -8066, 1608, 1013, -307, 481, -1711, 60, 269, 66, 66, 60, 58, 78, 100, 164
260310135, 7396, 2439, -12033, -7938, 1675, 1072, -290, 1003, -1502, -100, 269, 66, 66, 60, 58, 78, 100, 164
260310918, 7396, 2439, -12033, -7938, 1675, 1072, -290, 1003, -1502, -100, 179, 72, 79, 74, 76, 76, 93, 183
260311769, 7396, 2439, -12033, -7938, 1675, 1072, -290, 1003, -1502, -100, 179, 72, 79, 74, 76, 76, 93, 183
260316742, 7396, 2439, -12033, -7938, 1675, 1072, -290, 1003, -1502, -100, 179, 72, 79, 74, 76, 76, 93, 183
260317572, 7396, 2439, -12033, -7938, 1675, 1072, -290, 1003, -1502, -100, 179, 72, 79, 74, 76, 76, 93, 183
260318366, 7396, 2439, -12033, -7938, 1675, 1072, -290, 1003, -1502, -100, 179, 72, 79, 74, 76, 76, 93, 183
260319194, 7396, 2439, -12033, -7938, 1675, 1072, -290, 1003, -1502, -100, 179, 72, 79, 74, 76, 76, 93, 183
260324117, 7396, 2439, -12033, -7938, 1675, 1072, -290, 1003, -1502, -100, 179, 72, 79, 74, 76, 76, 93, 183
260324953, 7396, 2439, -12033, -7938, 1675, 1072, -290, 1003, -1502, -100, 179, 72, 79, 74, 76, 76, 93, 183
260325741, 7396, 2439, -12033, -7938, 1675, 1072, -290, 1003, -1502, -100, 179, 72, 79, 74, 76, 76, 93, 183
260326596, 7396, 2439, -12033, -7938, 1675, 1072, -290, 1003, -1502, -100, 179, 72, 79, 74, 76, 76, 93, 183
260331642, 7396, 2439, -12033, -7938, 1675, 1072, -290, 1003, -1502, -100, 179, 72, 79, 74, 76, 76, 93, 183
260332611, 7160, 2481, -12289, -7747, 1646, 1080, -203, 1781, -1365, -227, 179, 72, 79, 74, 76, 76, 93, 183
260333414, 7160, 2481, -12289, -7747, 1646, 1080, -203, 1781, -1365, -227, 186, 103, 82, 75, 77, 67, 83, 191
260334233, 7160, 2481, -12289, -7747, 1646, 1080, -203, 1781, -1365, -227, 186, 103, 82, 75, 77, 67, 83, 191
260339251, 7160, 2481, -12289, -7747, 1646, 1080, -203, 1781, -1365, -227, 186, 103, 82, 75, 77, 67, 83, 191
260340032, 7160, 2481, -12289, -7747, 1646, 1080, -203, 1781, -1365, -227, 186, 103, 82, 75, 77, 67, 83, 191
260340854, 7160, 2481, -12289, -7747, 1646, 1080, -203, 1781, -1365, -227, 186, 103, 82, 75, 77, 67, 83, 191
260341671, 7160, 2481, -12289, -7747, 1646, 1080, -203, 1781, -1365, -227, 186, 103, 82, 75, 77, 67, 83, 191
260346578, 7160, 2481, -12289, -7747, 1646, 1080, -203, 1781, -1365, -227, 186, 103, 82, 75, 77, 67, 83, 191
260347403, 7160, 2481, -12289, -7747, 1646, 1080, -203, 1781, -1365, -227, 186, 103, 82, 75, 77, 67, 83, 191
260348193, 7160, 2481, -12289, -7747, 1646, 1080, -203, 1781, -1365, -227, 186, 103, 82, 75, 77, 67, 83, 191
260349016, 7160, 2481, -12289, -7747, 1646, 1080, -203, 1781, -1365, -227, 186, 103, 82, 75, 77, 67, 83, 191
260354173, 7160, 2481, -12289, -7747, 1646, 1080, -203, 1781, -1365, -227, 186, 103, 82, 75, 77, 67, 83, 191
260355122, 6894, 2626, -12600, -7435, 1706, 1095, -183, 2731, -1268, -408, 186, 103, 82, 75, 77, 67, 83, 191
260355917, 6894, 2626, -12600, -7435, 1706, 1095, -183, 2731, -1268, -408, 203, 142, 101, 81, 76, 65, 77, 182
260356781, 6894, 2626, -12600, -7435, 1706, 1095, -183, 2731, -1268, -408, 203, 142, 101, 81, 76, 65, 77, 182
260361764, 6894, 2626, -12600, -7435, 1706, 1095, -183, 2731, -1268, -408, 203, 142, 101, 81, 76, 65, 77, 182
260362557, 6894, 2626, -12600, -7435, 1706, 1095, -183, 2731, -1268, -408, 203, 142, 101, 81, 76, 65, 77, 182
260363367, 6894, 2626, -12600, -7435, 1706, 1095, -183, 2731, -1268, -408, 203, 142, 101, 81, 76, 65, 77, 182
260364220, 6894, 2626, -12600, -7435, 1706, 1095, -183, 2731, -1268, -408, 203, 142, 101, 81, 76, 65, 77, 182
260369142, 6894, 2626, -12600, -7435, 1706, 1095, -183, 2731, -1268, -408, 203, 142, 101, 81, 76, 65, 77, 182
260369981, 6894, 2626, -12600, -7435, 1706, 1095, -183, 2731, -1268, -408, 203, 142, 101, 81, 76, 65, 77, 182
260370788, 6894, 2626, -12600, -7435, 1706, 1095, -183, 2731, -1268, -408, 203, 142, 101, 81, 76, 65, 77, 182
260371581, 6894, 2626, -12600, -7435, 1706, 1095, -183, 2731, -1268, -408, 203, 142, 101, 81, 76, 65, 77, 182
260376649, 6894, 2626, -12600, -7435, 1706, 1095, -183, 2731, -1268, -408, 203, 142, 101, 81, 76, 65, 77, 182
260377632, 6582, 2877, -12962, -6989, 1774, 1116, -312, 3726, -1208, -624, 203, 142, 101, 81, 76, 65, 77, 182
260378398, 6582, 2877, -12962, -6989, 1774, 1116, -312, 3726, -1208, -624, 230, 147, 103, 83, 77, 56, 66, 185
260379239, 6582, 2877, -12962, -6989, 1774, 1116, -312, 3726, -1208, -624, 230, 147, 103, 83, 77, 56, 66, 185
260384257, 6582, 2877, -12962, -6989, 1774, 1116, -312, 3726, -1208, -624, 230, 147, 103, 83, 77, 56, 66, 185
260385042, 6582, 2877, -12962, -6989, 1774, 1116, -312, 3726, -1208, -624, 230, 147, 103, 83, 77, 56, 66, 185
260385871, 6582, 2877, -12962, -6989, 1774, 1116, -312, 3726, -1208, -624, 230, 147, 103, 83, 77, 56, 66, 185
260386739, 6582, 2877, -12962, -6989, 1774, 1116, -312, 3726, -1208, -624, 230, 147, 103, 83, 77, 56, 66, 185
260391654, 6582, 2877, -12962, -6989, 1774, 1116, -312, 3726, -1208, -624, 230, 147, 103, 83, 77, 56, 66, 185
260392423, 6582, 2877, -12962, -6989, 1774, 1116, -312, 3726, -1208, -624, 230, 147, 103, 83, 77, 56, 66, 185
260393268, 6582, 2877, -12962, -6989, 1774, 1116, -312, 3726, -1208, -624, 230, 147, 103, 83, 77, 56, 66, 185
260394066, 6582, 2877, -12962, -6989, 1774, 1116, -312, 3726, -1208, -624, 230, 147, 103, 83, 77, 56, 66, 185
260399125, 6582, 2877, -12962, -6989, 1774, 1116, -312, 3726, -1208, -624, 230, 147, 103, 83, 77, 56, 66, 185
260400068, 6218, 3201, -13345, -6438, 1729, 1213, -554, 4449, -1215, -797, 230, 147, 103, 83, 77, 56, 66, 185
260400866, 6218, 3201, -13345, -6438, 1729, 1213, -554, 4449, -1215, -797, 231, 150, 116, 82, 75, 52, 63, 196
260401783, 6218, 3201, -13345, -6438, 1729, 1213, -554, 4449, -1215, -797, 231, 150, 116, 82, 75, 52, 63, 196
260406764, 6218, 3201, -13345, -6438, 1729, 1213, -554, 4449, -1215, -797, 231, 150, 116, 82, 75, 52, 63, 196
260407544, 6218, 3201, -13345, -6438, 1729, 1213, -554, 4449, -1215, -797, 231, 150, 116, 82, 75, 52, 63, 196
260408330, 6218, 3201, -13345, -6438, 1729, 1213, -554, 4449, -1215, -797, 231, 150, 116, 82, 75, 52, 63, 196
260409153, 6218, 3201, -13345, -6438, 1729, 1213, -554, 4449, -1215, -797, 231, 150, 116, 82, 75, 52, 63, 196
260414142, 6218, 3201, -13345, -6438, 1729, 1213, -554, 4449, -1215, -797, 231, 150, 116, 82, 75, 52, 63, 196
260414995, 6218, 3201, -13345, -6438, 1729, 1213, -554, 4449, -1215, -797, 231, 150, 116, 82, 75, 52, 63, 196
260415780, 6218, 3201, -13345, -6438, 1729, 1213, -554, 4449, -1215, -797, 231, 150, 116, 82, 75, 52, 63, 196
260416622, 6218, 3201, -13345, -6438, 1729, 1213, -554, 4449, -1215, -797, 231, 150, 116, 82, 75, 52, 63, 196
260421667, 6218, 3201, -13345, -6438, 1729, 1213, -554, 4449, -1215, -797, 231, 150, 116, 82, 75, 52, 63, 196
260422591, 5822, 3570, -13710, -5817, 1709, 1353, -872, 4858, -1150, -931, 231, 150, 116, 82, 75, 52, 63, 196
260423417, 5822, 3570, -13710, -5817, 1709, 1353, -872, 4858, -1150, -931, 213, 156, 124, 74, 77, 52, 59, 169
260424229, 5822, 3570, -13710, -5817, 1709, 1353, -872, 4858, -1150, -931, 213, 156, 124, 74, 77, 52, 59, 169
260429243, 5822, 3570, -13710, -5817, 1709, 1353, -872, 4858, -1150, -931, 213, 156, 124, 74, 77, 52, 59, 169
260430069, 5822, 3570, -13710, -5817, 1709, 1353, -872, 4858, -1150, -931, 213, 156, 124, 74, 77, 52, 59, 169
260430866, 5822, 3570, -13710, -5817, 1709, 1353, -872, 4858, -1150, -931, 213, 156, 124, 74, 77, 52, 59, 169
260431783, 5822, 3570, -13710, -5817, 1709, 1353, -872, 4858, -1150, -931, 213, 156, 124, 74, 77, 52, 59, 169
260436616, 5822, 3570, -13710, -5817, 1709, 1353, -872, 4858, -1150, -931, 213, 156, 124, 74, 77, 52, 59, 169
260437463, 5822, 3570, -13710, -5817, 1709, 1353, -872, 4858, -1150, -931, 213, 156, 124, 74, 77, 52, 59, 169
260438247, 5822, 3570, -13710, -5817, 1709, 1353, -872, 4858, -1150, -931, 213, 156, 124, 74, 77, 52, 59, 169
260439041, 5822, 3570, -13710, -5817, 1709, 1353, -872, 4858, -1150, -931, 213, 156, 124, 74, 77, 52, 59, 169
260444116, 5822, 3570, -13710, -5817, 1709, 1353, -872, 4858, -1150, -931, 213, 156, 124, 74, 77, 52, 59, 169
260445095, 5418, 3955, -14029, -5162, 1681, 1571, -1155, 4984, -1028, -992, 213, 156, 124, 74, 77, 52, 59, 169
260445897, 5418, 3955, -14029, -5162, 1681, 1571, -1155, 4984, -1028, -992, 249, 142, 133, 71, 83, 53, 56, 178
260446764, 5418, 3955, -14029, -5162, 1681, 1571, -1155, 4984, -1028, -992, 249, 142, 133, 71, 83, 53, 56, 178
260451745, 5418, 3955, -14029, -5162, 1681, 1571, -1155, 4984, -1028, -992, 249, 142, 133, 71, 83, 53, 56, 178
260452536, 5418, 3955, -14029, -5162, 1681, 1571, -1155, 4984, -1028, -992, 249, 142, 133, 71, 83, 53, 56, 178
260453354, 5418, 3955, -14029, -5162, 1681, 1571, -1155, 4984, -1028, -992, 249, 142, 133, 71, 83, 53, 56, 178
260454189, 5418, 3955, -14029, -5162, 1681, 1571, -1155, 4984, -1028, -992, 249, 142, 133, 71, 83, 53, 56, 178
260459096, 5418, 3955, -14029, -5162, 1681, 1571, -1155, 4984, -1028, -992, 249, 142, 133, 71, 83, 53, 56, 178
260459914, 5418, 3955, -14029, -5162, 1681, 1571, -1155, 4984, -1028, -992, 249, 142, 133, 71, 83, 53, 56, 178
260460774, 5418, 3955, -14029, -5162, 1681, 1571, -1155, 4984, -1028, -992, 249, 142, 133, 71, 83, 53, 56, 178
260461545, 5418, 3955, -14029, -5162, 1681, 1571, -1155, 4984, -1028, -992, 249, 142, 133, 71, 83, 53, 56, 178
260466639, 5418, 3955, -14029, -5162, 1681, 1571, -1155, 4984, -1028, -992, 249, 142, 133, 71, 83, 53, 56, 178
260467550, 5001, 4367, -14295, -4474, 1674, 1716, -1390, 5130, -910, -1139, 249, 142, 133, 71, 83, 53, 56, 178
260468395, 5001, 4367, -14295, -4474, 1674, 1716, -1390, 5130, -910, -1139, 233, 106, 115, 68, 81, 44, 56, 187
260469192, 5001, 4367, -14295, -4474, 1674, 1716, -1390, 5130, -910, -1139, 233, 106, 115, 68, 81, 44, 56, 187
260474271, 5001, 4367, -14295, -4474, 1674, 1716, -1390, 5130, -910, -1139, 233, 106, 115, 68, 81, 44, 56, 187
260475067, 5001, 4367, -14295, -4474, 1674, 1716, -1390, 5130, -910, -1139, 233, 106, 115, 68, 81, 44, 56, 187
260475908, 5001, 4367, -14295, -4474, 1674, 1716, -1390, 5130, -910, -1139, 233, 106, 115, 68, 81, 44, 56, 187
260476741, 5001, 4367, -14295, -4474, 1674, 1716, -1390, 5130, -910, -1139, 233, 106, 115, 68, 81, 44, 56, 187
260481654, 5001, 4367, -14295, -4474, 1674, 1716, -1390, 5130, -910, -1139, 233, 106, 115, 68, 81, 44, 56, 187
260482491, 5001, 4367, -14295, -4474, 1674, 1716, -1390, 5130, -910, -1139, 233, 106, 115, 68, 81, 44, 56, 187
260483289, 5001, 4367, -14295, -4474, 1674, 1716, -1390, 5130, -910, -1139, 233, 106, 115, 68, 81, 44, 56, 187
260484091, 5001, 4367, -14295, -4474, 1674, 1716, -1390, 5130, -910, -1139, 233, 106, 115, 68, 81, 44, 56, 187
260489168, 5001, 4367, -14295, -4474, 1674, 1716, -1390, 5130, -910, -1139, 233, 106, 115, 68, 81, 44, 56, 187
260490093, 4557, 4822, -14510, -3728, 1645, 1724, -1622, 5469, -813, -1350, 233, 106, 115, 68, 81, 44, 56, 187
260490908, 4557, 4822, -14510, -3728, 1645, 1724, -1622, 5469, -813, -1350, 256, 104, 128, 79, 84, 47, 64, 210
260491738, 4557, 4822, -14510, -3728, 1645, 1724, -1622, 5469, -813, -1350, 233, 106, 115, 68, 81, 44, 56, 187
260496750, 4557, 4822, -14510, -3728, 1645, 1724, -1622, 5469, -813, -1350, 256, 104, 128, 79, 84, 47, 64, 210
260497547, 4557, 4822, -14510, -3728, 1645, 1724, -1622, 5469, -813, -1350, 256, 104, 128, 79, 84, 47, 64, 210
260498369, 4557, 4822, -14510, -3728, 1645, 1724, -1622, 5469, -813, -1350, 256, 104, 128, 79, 84, 47, 64, 210
260499164, 4557, 4822, -14510, -3728, 1645, 1724, -1622, 5469, -813, -1350, 256, 104, 128, 79, 84, 47, 64, 210
260504115, 4557, 4822, -14510, -3728, 1645, 1724, -1622, 5469, -813, -1350, 256, 104, 128, 79, 84, 47, 64, 210
260504954, 4557, 4822, -14510, -3728, 1645, 1724, -1622, 5469, -813, -1350, 256, 104, 128, 79, 84, 47, 64, 210
260505742, 4557, 4822, -14510, -3728, 1645, 1724, -1622, 5469, -813, -1350, 256, 104, 128, 79, 84, 47, 64, 210
260506611, 4557, 4822, -14510, -3728, 1645, 1724, -1622, 5469, -813, -1350, 256, 104, 128, 79, 84, 47, 64, 210
260511643, 4557, 4822, -14510, -3728, 1645, 1724, -1622, 5469, -813, -1350, 256, 104, 128, 79, 84, 47, 64, 210
260512610, 4116, 5252, -14674, -2930, 1637, 1835, -1809, 5652, -679, -1212, 256, 104, 128, 79, 84, 47, 64, 210
260513392, 4116, 5252, -14674, -2930, 1637, 1835, -1809, 5652, -679, -1212, 274, 101, 119, 98, 95, 49, 65, 216
260514222, 4116, 5252, -14674, -2930, 1637, 1835, -1809, 5652, -679, -1212, 274, 101, 119, 98, 95, 49, 65, 216
260519217, 4116, 5252, -14674, -2930, 1637, 1835, -1809, 5652, -679, -1212, 274, 101, 119, 98, 95, 49, 65, 216
260520057, 4116, 5252, -14674, -2930, 1637, 1835, -1809, 5652, -679, -1212, 274, 101, 119, 98, 95, 49, 65, 216
260520842, 4116, 5252, -14674, -2930, 1637, 1835, -1809, 5652, -679, -1212, 274, 101, 119, 98, 95, 49, 65, 216
260521673, 4116, 5252, -14674, -2930, 1637, 1835, -1809, 5652, -679, -1212, 274, 101, 119, 98, 95, 49, 65, 216
260526592, 4116, 5252, -14674, -2930, 1637, 1835, -1809, 5652, -679, -1212, 274, 101, 119, 98, 95, 49, 65, 216
260527464, 4116, 5252, -14674, -2930, 1637, 1835, -1809, 5652, -679, -1212, 274, 101, 119, 98, 95, 49, 65, 216
260528222, 4116, 5252, -14674, -2930, 1637, 1835, -1809, 5652, -679, -1212, 274, 101, 119, 98, 95, 49, 65, 216
260529081, 4116, 5252, -14674, -2930, 1637, 1835, -1809, 5652, -679, -1212, 274, 101, 119, 98, 95, 49, 65, 216
260534166, 4116, 5252, -14674, -2930, 1637, 1835, -1809, 5652, -679, -1212, 274, 101, 119, 98, 95, 49, 65, 216
260535160, 3684, 5620, -14790, -2131, 1547, 1987, -1873, 5556, -632, -947, 274, 101, 119, 98, 95, 49, 65, 216
260535917, 3684, 5620, -14790, -2131, 1547, 1987, -1873, 5556, -632, -947, 302, 97, 117, 105, 95, 52, 81, 224
260536727, 3684, 5620, -14790, -2131, 1547, 1987, -1873, 5556, -632, -947, 302, 97, 117, 105, 95, 52, 81, 224
260541728, 3684, 5620, -14790, -2131, 1547, 1987, -1873, 5556, -632, -947, 302, 97, 117, 105, 95, 52, 81, 224
260542545, 3684, 5620, -14790, -2131, 1547, 1987, -1873, 5556, -632, -947, 302, 97, 117, 105, 95, 52, 81, 224
260543352, 3684, 5620, -14790, -2131, 1547, 1987, -1873, 5556, -632, -947, 302, 97, 117, 105, 95, 52, 81, 224
260544221, 3684, 5620, -14790, -2131, 1547, 1987, -1873, 5556, -632, -947, 302, 97, 117, 105, 95, 52, 81, 224
260549142, 3684, 5620, -14790, -2131, 1547, 1987, -1873, 5556, -632, -947, 302, 97, 117, 105, 95, 52, 81, 224
260549953, 3684, 5620, -14790, -2131, 1547, 1987, -1873, 5556, -632, -947, 302, 97, 117, 105, 95, 52, 81, 224
260550809, 3684, 5620, -14790, -2131, 1547, 1987, -1873, 5556, -632, -947, 302, 97, 117, 105, 95, 52, 81, 224
260551569, 3684, 5620, -14790, -2131, 1547, 1987, -1873, 5556, -632, -947, 302, 97, 117, 105, 95, 52, 81, 224
260556682, 3684, 5620, -14790, -2131, 1547, 1987, -1873, 5556, -632, -947, 302, 97, 117, 105, 95, 52, 81, 224
260557594, 3263, 5934, -14851, -1426, 1514, 2058, -2040, 4981, -727, -879, 302, 97, 117, 105, 95, 52, 81, 224
260558439, 3263, 5934, -14851, -1426, 1514, 2058, -2040, 4981, -727, -879, 353, 95, 121, 140, 109, 71, 90, 238
260559209, 3263, 5934, -14851, -1426, 1514, 2058, -2040, 4981, -727, -879, 353, 95, 121, 140, 109, 71, 90, 238
260564235, 3263, 5934, -14851, -1426, 1514, 2058, -2040, 4981, -727, -879, 353, 95, 121, 140, 109, 71, 90, 238
260565044, 3263, 5934, -14851, -1426, 1514, 2058, -2040, 4981, -727, -879, 353, 95, 121, 140, 109, 71, 90, 238
260565883, 3263, 5934, -14851, -1426, 1514, 2058, -2040, 4981, -727, -879, 353, 95, 121, 140, 109, 71, 90, 238
260566763, 3263, 5934, -14851, -1426, 1514, 2058, -2040, 4981, -727, -879, 353, 95, 121, 140, 109, 71, 90, 238
260571598, 3263, 5934, -14851, -1426, 1514, 2058, -2040, 4981, -727, -879, 353, 95, 121, 140, 109, 71, 90, 238
260572410, 3263, 5934, -14851, -1426, 1514, 2058, -2040, 4981, -727, -879, 353, 95, 121, 140, 109, 71, 90, 238
260573257, 3263, 5934, -14851, -1426, 1514, 2058, -2040, 4981, -727, -879, 353, 95, 121, 140, 109, 71, 90, 238
260574075, 3263, 5934, -14851, -1426, 1514, 2058, -2040, 4981, -727, -879, 353, 95, 121, 140, 109, 71, 90, 238
260579169, 3263, 5934, -14851, -1426, 1514, 2058, -2040, 4981, -727, -879, 353, 95, 121, 140, 109, 71, 90, 238
260580117, 2881, 6220, -14856, -871, 1594, 2082, -2103, 4109, -808, -983, 353, 95, 121, 140, 109, 71, 90, 238
260580857, 2881, 6220, -14856, -871, 1594, 2082, -2103, 4109, -808, -983, 378, 90, 129, 157, 116, 74, 90, 240
260581742, 2881, 6220, -14856, -871, 1594, 2082, -2103, 4109, -808, -983, 353, 95, 121, 140, 109, 71, 90, 238
260586785, 2881, 6220, -14856, -871, 1594, 2082, -2103, 4109, -808, -983, 378, 90, 129, 157, 116, 74, 90, 240
260587537, 2881, 6220, -14856, -871, 1594, 2082, -2103, 4109, -808, -983, 378, 90, 129, 157, 116, 74, 90, 240
260588360, 2881, 6220, -14856, -871, 1594, 2082, -2103, 4109, -808, -983, 378, 90, 129, 157, 116, 74, 90, 240
260589167, 2881, 6220, -14856, -871, 1594, 2082, -2103, 4109, -808, -983, 378, 90, 129, 157, 116, 74, 90, 240
260594118, 2881, 6220, -14856, -871, 1594, 2082, -2103, 4109, -808, -983, 378, 90, 129, 157, 116, 74, 90, 240
260594901, 2881, 6220, -14856, -871, 1594, 2082, -2103, 4109, -808, -983, 378, 90, 129, 157, 116, 74, 90, 240
260595786, 2881, 6220, -14856, -871, 1594, 2082, -2103, 4109, -808, -983, 378, 90, 129, 157, 116, 74, 90, 240
260596578, 2881, 6220, -14856, -871, 1594, 2082, -2103, 4109, -808, -983, 378, 90, 129, 157, 116, 74, 90, 240
260601696, 2881, 6220, -14856, -871, 1594, 2082, -2103, 4109, -808, -983, 378, 90, 129, 157, 116, 74, 90, 240
260602587, 2517, 6512, -14818, -358, 1707, 1920, -2130, 3853, -779, -1142, 378, 90, 129, 157, 116, 74, 90, 240
260603416, 2517, 6512, -14818, -358, 1707, 1920, -2130, 3853, -779, -1142, 470, 93, 136, 188, 147, 78, 86, 287
260604215, 2517, 6512, -14818, -358, 1707, 1920, -2130, 3853, -779, -1142, 470, 93, 136, 188, 147, 78, 86, 287
260609268, 2517, 6512, -14818, -358, 1707, 1920, -2130, 3853, -779, -1142, 470, 93, 136, 188, 147, 78, 86, 287
260610042, 2517, 6512, -14818, -358, 1707, 1920, -2130, 3853, -779, -1142, 470, 93, 136, 188, 147, 78, 86, 287
260610908, 2517, 6512, -14818, -358, 1707, 1920, -2130, 3853, -779, -1142, 470, 93, 136, 188, 147, 78, 86, 287
260611742, 2517, 6512, -14818, -358, 1707, 1920, -2130, 3853, -779, -1142, 470, 93, 136, 188, 147, 78, 86, 287
260616623, 2517, 6512, -14818, -358, 1707, 1920, -2130, 3853, -779, -1142, 470, 93, 136, 188, 147, 78, 86, 287
260617448, 2517, 6512, -14818, -358, 1707, 1920, -2130, 3853, -779, -1142, 470, 93, 136, 188, 147, 78, 86, 287
260618283, 2517, 6512, -14818, -358, 1707, 1920, -2130, 3853, -779, -1142, 470, 93, 136, 188, 147, 78, 86, 287
260619089, 2517, 6512, -14818, -358, 1707, 1920, -2130, 3853, -779, -1142, 470, 93, 136, 188, 147, 78, 86, 287
260624153, 2517, 6512, -14818, -358, 1707, 1920, -2130, 3853, -779, -1142, 470, 93, 136, 188, 147, 78, 86, 287
260625068, 2183, 6787, -14751, 154, 1706, 1687, -2271, 3759, -615, -1109, 470, 93, 136, 188, 147, 78, 86, 287
260625904, 2183, 6787, -14751, 154, 1706, 1687, -2271, 3759, -615, -1109, 506, 96, 137, 189, 163, 89, 97, 316
260626768, 2183, 6787, -14751, 154, 1706, 1687, -2271, 3759, -615, -1109, 506, 96, 137, 189, 163, 89, 97, 316
260631749, 2183, 6787, -14751, 154, 1706, 1687, -2271, 3759, -615, -1109, 506, 96, 137, 189, 163, 89, 97, 316
260632561, 2183, 6787, -14751, 154, 1706, 1687, -2271, 3759, -615, -1109, 506, 96, 137, 189, 163, 89, 97, 316
260633342, 2183, 6787, -14751, 154, 1706, 1687, -2271, 3759, -615, -1109, 506, 96, 137, 189, 163, 89, 97, 316
260634168, 2183, 6787, -14751, 154, 1706, 1687, -2271, 3759, -615, -1109, 506, 96, 137, 189, 163, 89, 97, 316
260639081, 2183, 6787, -14751, 154, 1706, 1687, -2271, 3759, -615, -1109, 506, 96, 137, 189, 163, 89, 97, 316
260639962, 2183, 6787, -14751, 154, 1706, 1687, -2271, 3759, -615, -1109, 506, 96, 137, 189, 163, 89, 97, 316
260640743, 2183, 6787, -14751, 154, 1706, 1687, -2271, 3759, -615, -1109, 506, 96, 137, 189, 163, 89, 97, 316
260641585, 2183, 6787, -14751, 154, 1706, 1687, -2271, 3759, -615, -1109, 506, 96, 137, 189, 163, 89, 97, 316
260646618, 2183, 6787, -14751, 154, 1706, 1687, -2271, 3759, -615, -1109, 506, 96, 137, 189, 163, 89, 97, 316
260647579, 1870, 7037, -14665, 612, 1558, 1699, -2361, 3436, -599, -1058, 506, 96, 137, 189, 163, 89, 97, 316
260648368, 1870, 7037, -14665, 612, 1558, 1699, -2361, 3436, -599, -1058, 549, 116, 153, 224, 226, 93, 88, 342
260649194, 1870, 7037, -14665, 612, 1558, 1699, -2361, 3436, -599, -1058, 549, 116, 153, 224, 226, 93, 88, 342
260654191, 1870, 7037, -14665, 612, 1558, 1699, -2361, 3436, -599, -1058, 549, 116, 153, 224, 226, 93, 88, 342
260655032, 1870, 7037, -14665, 612, 1558, 1699, -2361, 3436, -599, -1058, 549, 116, 153, 224, 226, 93, 88, 342
260655834, 1870, 7037, -14665, 612, 1558, 1699, -2361, 3436, -599, -1058, 549, 116, 153, 224, 226, 93, 88, 342
260656654, 1870, 7037, -14665, 612, 1558, 1699, -2361, 3436, -599, -1058, 549, 116, 153, 224, 226, 93, 88, 342
260661653, 1870, 7037, -14665, 612, 1558, 1699, -2361, 3436, -599, -1058, 549, 116, 153, 224, 226, 93, 88, 342
260662441, 1870, 7037, -14665, 612, 1558, 1699, -2361, 3436, -599, -1058, 549, 116, 153, 224, 226, 93, 88, 342
260663293, 1870, 7037, -14665, 612, 1558, 1699, -2361, 3436, -599, -1058, 549, 116, 153, 224, 226, 93, 88, 342
260664091, 1870, 7037, -14665, 612, 1558, 1699, -2361, 3436, -599, -1058, 549, 116, 153, 224, 226, 93, 88, 342
260669123, 1870, 7037, -14665, 612, 1558, 1699, -2361, 3436, -599, -1058, 549, 116, 153, 224, 226, 93, 88, 342
260670095, 1577, 7269, -14563, 1015, 1589, 1817, -2543, 3138, -620, -1032, 549, 116, 153, 224, 226, 93, 88, 342
260670894, 1577, 7269, -14563, 1015, 1589, 1817, -2543, 3138, -620, -1032, 517, 128, 170, 256, 265, 98, 98, 356
260671751, 1577, 7269, -14563, 1015, 1589, 1817, -2543, 3138, -620, -1032, 517, 128, 170, 256, 265, 98, 98, 356
260676740, 1577, 7269, -14563, 1015, 1589, 1817, -2543, 3138, -620, -1032, 517, 128, 170, 256, 265, 98, 98, 356
260677577, 1577, 7269, -14563, 1015, 1589, 1817, -2543, 3138, -620, -1032, 517, 128, 170, 256, 265, 98, 98, 356
260678342, 1577, 7269, -14563, 1015, 1589, 1817, -2543, 3138, -620, -1032, 517, 128, 170, 256, 265, 98, 98, 356
260679193, 1577, 7269, -14563, 1015, 1589, 1817, -2543, 3138, -620, -1032, 517, 128, 170, 256, 265, 98, 98, 356
260684132, 1577, 7269, -14563, 1015, 1589, 1817, -2543, 3138, -620, -1032, 517, 128, 170, 256, 265, 98, 98, 356
260684969, 1577, 7269, -14563, 1015, 1589, 1817, -2543, 3138, -620, -1032, 517, 128, 170, 256, 265, 98, 98, 356
260685742, 1577, 7269, -14563, 1015, 1589, 1817, -2543, 3138, -620, -1032, 517, 128, 170, 256, 265, 98, 98, 356
260686610, 1577, 7269, -14563, 1015, 1589, 1817, -2543, 3138, -620, -1032, 517, 128, 170, 256, 265, 98, 98, 356
260691616, 1577, 7269, -14563, 1015, 1589, 1817, -2543, 3138, -620, -1032, 517, 128, 170, 256, 265, 98, 98, 356
260692615, 1337, 7475, -14458, 1325, 1483, 1920, -2602, 2563, -563, -966, 517, 128, 170, 256, 265, 98, 98, 356
260693367, 1337, 7475, -14458, 1325, 1483, 1920, -2602, 2563, -563, -966, 531, 128, 169, 255, 282, 101, 100, 357
260694218, 1337, 7475, -14458, 1325, 1483, 1920, -2602, 2563, -563, -966, 517, 128, 170, 256, 265, 98, 98, 356
260699191, 1337, 7475, -14458, 1325, 1483, 1920, -2602, 2563, -563, -966, 531, 128, 169, 255, 282, 101, 100, 357
260700015, 1337, 7475, -14458, 1325, 1483, 1920, -2602, 2563, -563, -966, 531, 128, 169, 255, 282, 101, 100, 357
260700840, 1337, 7475, -14458, 1325, 1483, 1920, -2602, 2563, -563, -966, 531, 128, 169, 255, 282, 101, 100, 357
260701684, 1337, 7475, -14458, 1325, 1483, 1920, -2602, 2563, -563, -966, 531, 128, 169, 255, 282, 101, 100, 357
260706592, 1337, 7475, -14458, 1325, 1483, 1920, -2602, 2563, -563, -966, 531, 128, 169, 255, 282, 101, 100, 357
260707426, 1337, 7475, -14458, 1325, 1483, 1920, -2602, 2563, -563, -966, 531, 128, 169, 255, 282, 101, 100, 357
260708217, 1337, 7475, -14458, 1325, 1483, 1920, -2602, 2563, -563, -966, 531, 128, 169, 255, 282, 101, 100, 357
260709065, 1337, 7475, -14458, 1325, 1483, 1920, -2602, 2563, -563, -966, 531, 128, 169, 255, 282, 101, 100, 357
260714167, 1337, 7475, -14458, 1325, 1483, 1920, -2602, 2563, -563, -966, 531, 128, 169, 255, 282, 101, 100, 357
260715122, 1175, 7644, -14367, 1492, 1418, 2065, -2738, 1661, -519, -843, 531, 128, 169, 255, 282, 101, 100, 357
260715916, 1175, 7644, -14367, 1492, 1418, 2065, -2738, 1661, -519, -843, 538, 138, 180, 297, 356, 116, 117, 385
260716781, 1175, 7644, -14367, 1492, 1418, 2065, -2738, 1661, -519, -843, 538, 138, 180, 297, 356, 116, 117, 385
260721742, 1175, 7644, -14367, 1492, 1418, 2065, -2738, 1661, -519, -843, 538, 138, 180, 297, 356, 116, 117, 385
260722574, 1175, 7644, -14367, 1492, 1418, 2065, -2738, 1661, -519, -843, 538, 138, 180, 297, 356, 116, 117, 385
260723366, 1175, 7644, -14367, 1492, 1418, 2065, -2738, 1661, -519, -843, 538, 138, 180, 297, 356, 116, 117, 385
260724194, 1175, 7644, -14367, 1492, 1418, 2065, -2738, 1661, -519, -843, 538, 138, 180, 297, 356, 116, 117, 385
260729142, 1175, 7644, -14367, 1492, 1418, 2065, -2738, 1661, -519, -843, 538, 138, 180, 297, 356, 116, 117, 385
260729941, 1175, 7644, -14367, 1492, 1418, 2065, -2738, 1661, -519, -843, 538, 138, 180, 297, 356, 116, 117, 385
260730808, 1175, 7644, -14367, 1492, 1418, 2065, -2738, 1661, -519, -843, 538, 138, 180, 297, 356, 116, 117, 385
260731593, 1175, 7644, -14367, 1492, 1418, 2065, -2738, 1661, -519, -843, 538, 138, 180, 297, 356, 116, 117, 385
260736660, 1175, 7644, -14367, 1492, 1418, 2065, -2738, 1661, -519, -843, 538, 138, 180, 297, 356, 116, 117, 385
260737572, 1227, 7792, -14291, 1410, 1399, 2129, -2872, 831, -435, -673, 538, 138, 180, 297, 356, 116, 117, 385
260738391, 1227, 7792, -14291, 1410, 1399, 2129, -2872, 831, -435, -673, 534, 147, 191, 301, 399, 119, 112, 389
260739216, 1227, 7792, -14291, 1410, 1399, 2129, -2872, 831, -435, -673, 534, 147, 191, 301, 399, 119, 112, 389
260744226, 1227, 7792, -14291, 1410, 1399, 2129, -2872, 831, -435, -673, 534, 147, 191, 301, 399, 119, 112, 389
260745057, 1227, 7792, -14291, 1410, 1399, 2129, -2872, 831, -435, -673, 534, 147, 191, 301, 399, 119, 112, 389
260745842, 1227, 7792, -14291, 1410, 1399, 2129, -2872, 831, -435, -673, 534, 147, 191, 301, 399, 119, 112, 389
260746797, 1227, 7792, -14291, 1410, 1399, 2129, -2872, 831, -435, -673, 534, 147, 191, 301, 399, 119, 112, 389
260751632, 1227, 7792, -14291, 1410, 1399, 2129, -2872, 831, -435, -673, 534, 147, 191, 301, 399, 119, 112, 389
260752428, 1227, 7792, -14291, 1410, 1399, 2129, -2872, 831, -435, -673, 534, 147, 191, 301, 399, 119, 112, 389
260753241, 1227, 7792, -14291, 1410, 1399, 2129, -2872, 831, -435, -673, 534, 147, 191, 301, 399, 119, 112, 389
260754084, 1227, 7792, -14291, 1410, 1399, 2129, -2872, 831, -435, -673, 534, 147, 191, 301, 399, 119, 112, 389
260759118, 1227, 7792, -14291, 1410, 1399, 2129, -2872, 831, -435, -673, 534, 147, 191, 301, 399, 119, 112, 389
260760095, 1331, 7913, -14231, 1233, 1299, 2152, -2992, 193, -356, -572, 534, 147, 191, 301, 399, 119, 112, 389
260760867, 1331, 7913, -14231, 1233, 1299, 2152, -2992, 193, -356, -572, 535, 136, 185, 293, 391, 126, 116, 393
260761767, 1331, 7913, -14231, 1233, 1299, 2152, -2992, 193, -356, -572, 535, 136, 185, 293, 391, 126, 116, 393
260766741, 1331, 7913, -14231, 1233, 1299, 2152, -2992, 193, -356, -572, 535, 136, 185, 293, 391, 126, 116, 393
260767549, 1331, 7913, -14231, 1233, 1299, 2152, -2992, 193, -356, -572, 535, 136, 185, 293, 391, 126, 116, 393
260768317, 1331, 7913, -14231, 1233, 1299, 2152, -2992, 193, -356, -572, 535, 136, 185, 293, 391, 126, 116, 393
260769140, 1331, 7913, -14231, 1233, 1299, 2152, -2992, 193, -356, -572, 535, 136, 185, 293, 391, 126, 116, 393
260774089, 1331, 7913, -14231, 1233, 1299, 2152, -2992, 193, -356, -572, 535, 136, 185, 293, 391, 126, 116, 393
260774881, 1331, 7913, -14231, 1233, 1299, 2152, -2992, 193, -356, -572, 535, 136, 185, 293, 391, 126, 116, 393
260775717, 1331, 7913, -14231, 1233, 1299, 2152, -2992, 193, -356, -572, 535, 136, 185, 293, 391, 126, 116, 393
260776519, 1331, 7913, -14231, 1233, 1299, 2152, -2992, 193, -356, -572, 535, 136, 185, 293, 391, 126, 116, 393
260781659, 1331, 7913, -14231, 1233, 1299, 2152, -2992, 193, -356, -572, 535, 136, 185, 293, 391, 126, 116, 393
260782584, 1452, 8017, -14177, 1032, 1273, 2116, -3029, -45, -313, -522, 535, 136, 185, 293, 391, 126, 116, 393
260783390, 1452, 8017, -14177, 1032, 1273, 2116, -3029, -45, -313, -522, 552, 123, 166, 263, 367, 115, 103, 381
260784196, 1452, 8017, -14177, 1032, 1273, 2116, -3029, -45, -313, -522, 552, 123, 166, 263, 367, 115, 103, 381
260789224, 1452, 8017, -14177, 1032, 1273, 2116, -3029, -45, -313, -522, 552, 123, 166, 263, 367, 115, 103, 381
260790032, 1452, 8017, -14177, 1032, 1273, 2116, -3029, -45, -313, -522, 552, 123, 166, 263, 367, 115, 103, 381
260790840, 1452, 8017, -14177, 1032, 1273, 2116, -3029, -45, -313, -522, 552, 123, 166, 263, 367, 115, 103, 381
260791742, 1452, 8017, -14177, 1032, 1273, 2116, -3029, -45, -313, -522, 552, 123, 166, 263, 367, 115, 103, 381
260796631, 1452, 8017, -14177, 1032, 1273, 2116, -3029, -45, -313, -522, 552, 123, 166, 263, 367, 115, 103, 381
260797447, 1452, 8017, -14177, 1032, 1273, 2116, -3029, -45, -313, -522, 552, 123, 166, 263, 367, 115, 103, 381
260798307, 1452, 8017, -14177, 1032, 1273, 2116, -3029, -45, -313, -522, 552, 123, 166, 263, 367, 115, 103, 381
260799068, 1452, 8017, -14177, 1032, 1273, 2116, -3029, -45, -313, -522, 552, 123, 166, 263, 367, 115, 103, 381
260804145, 1452, 8017, -14177, 1032, 1273, 2116, -3029, -45, -313, -522, 552, 123, 166, 263, 367, 115, 103, 381
260805071, 1580, 8112, -14122, 837, 1267, 2104, -3005, -100, -251, -496, 552, 123, 166, 263, 367, 115, 103, 381
260805882, 1580, 8112, -14122, 837, 1267, 2104, -3005, -100, -251, -496, 546, 122, 171, 283, 357, 115, 103, 394
260806717, 1580, 8112, -14122, 837, 1267, 2104, -3005, -100, -251, -496, 546, 122, 171, 283, 357, 115, 103, 394
260811740, 1580, 8112, -14122, 837, 1267, 2104, -3005, -100, -251, -496, 546, 122, 171, 283, 357, 115, 103, 394
260812548, 1580, 8112, -14122, 837, 1267, 2104, -3005, -100, -251, -496, 546, 122, 171, 283, 357, 115, 103, 394
260813342, 1580, 8112, -14122, 837, 1267, 2104, -3005, -100, -251, -496, 546, 122, 171, 283, 357, 115, 103, 394
260814196, 1580, 8112, -14122, 837, 1267, 2104, -3005, -100, -251, -496, 546, 122, 171, 283, 357, 115, 103, 394
260819091, 1580, 8112, -14122, 837, 1267, 2104, -3005, -100, -251, -496, 546, 122, 171, 283, 357, 115, 103, 394
260819958, 1580, 8112, -14122, 837, 1267, 2104, -3005, -100, -251, -496, 546, 122, 171, 283, 357, 115, 103, 394
260820742, 1580, 8112, -14122, 837, 1267, 2104, -3005, -100, -251, -496, 546, 122, 171, 283, 357, 115, 103, 394
260821585, 1580, 8112, -14122, 837, 1267, 2104, -3005, -100, -251, -496, 546, 122, 171, 283, 357, 115, 103, 394
260826616, 1580, 8112, -14122, 837, 1267, 2104, -3005, -100, -251, -496, 546, 122, 171, 283, 357, 115, 103, 394
260827562, 1700, 8199, -14067, 666, 1227, 2153, -3046, 20, -193, -460, 546, 122, 171, 283, 357, 115, 103, 394
260828390, 1700, 8199, -14067, 666, 1227, 2153, -3046, 20, -193, -460, 496, 115, 172, 293, 308, 109, 97, 354
260829197, 1700, 8199, -14067, 666, 1227, 2153, -3046, 20, -193, -460, 496, 115, 172, 293, 308, 109, 97, 354
260834192, 1700, 8199, -14067, 666, 1227, 2153, -3046, 20, -193, -460, 496, 115, 172, 293, 308, 109, 97, 354
260834993, 1700, 8199, -14067, 666, 1227, 2153, -3046, 20, -193, -460, 496, 115, 172, 293, 308, 109, 97, 354
260835843, 1700, 8199, -14067, 666, 1227, 2153, -3046, 20, -193, -460, 496, 115, 172, 293, 308, 109, 97, 354
260836611, 1700, 8199, -14067, 666, 1227, 2153, -3046, 20, -193, -460, 496, 115, 172, 293, 308, 109, 97, 354
260841597, 1700, 8199, -14067, 666, 1227, 2153, -3046, 20, -193, -460, 496, 115, 172, 293, 308, 109, 97, 354
260842398, 1700, 8199, -14067, 666, 1227, 2153, -3046, 20, -193, -460, 496, 115, 172, 293, 308, 109, 97, 354
260843221, 1700, 8199, -14067, 666, 1227, 2153, -3046, 20, -193, -460, 496, 115, 172, 293, 308, 109, 97, 354
260844017, 1700, 8199, -14067, 666, 1227, 2153, -3046, 20, -193, -460, 496, 115, 172, 293, 308, 109, 97, 354
260849165, 1700, 8199, -14067, 666, 1227, 2153, -3046, 20, -193, -460, 496, 115, 172, 293, 308, 109, 97, 354
260850093, 1814, 8273, -14016, 509, 1206, 2252, -3052, 105, -163, -377, 496, 115, 172, 293, 308, 109, 97, 354
260850915, 1814, 8273, -14016, 509, 1206, 2252, -3052, 105, -163, -377, 467, 102, 165, 314, 290, 106, 101, 324
260851742, 1814, 8273, -14016, 509, 1206, 2252, -3052, 105, -163, -377, 496, 115, 172, 293, 308, 109, 97, 354
260856753, 1814, 8273, -14016, 509, 1206, 2252, -3052, 105, -163, -377, 467, 102, 165, 314, 290, 106, 101, 324
260857544, 1814, 8273, -14016, 509, 1206, 2252, -3052, 105, -163, -377, 467, 102, 165, 314, 290, 106, 101, 324
260858383, 1814, 8273, -14016, 509, 1206, 2252, -3052, 105, -163, -377, 467, 102, 165, 314, 290, 106, 101, 324
260859168, 1814, 8273, -14016, 509, 1206, 2252, -3052, 105, -163, -377, 467, 102, 165, 314, 290, 106, 101, 324
260864144, 1814, 8273, -14016, 509, 1206, 2252, -3052, 105, -163, -377, 467, 102, 165, 314, 290, 106, 101, 324
260864942, 1814, 8273, -14016, 509, 1206, 2252, -3052, 105, -163, -377, 467, 102, 165, 314, 290, 106, 101, 324
260865782, 1814, 8273, -14016, 509, 1206, 2252, -3052, 105, -163, -377, 467, 102, 165, 314, 290, 106, 101, 324
260866569, 1814, 8273, -14016, 509, 1206, 2252, -3052, 105, -163, -377, 467, 102, 165, 314, 290, 106, 101, 324
260871658, 1814, 8273, -14016, 509, 1206, 2252, -3052, 105, -163, -377, 467, 102, 165, 314, 290, 106, 101, 324
260872597, 1936, 8335, -13967, 375, 1261, 2281, -3073, 161, -83, -307, 467, 102, 165, 314, 290, 106, 101, 324
260873382, 1936, 8335, -13967, 375, 1261, 2281, -3073, 161, -83, -307, 412, 116, 212, 374, 292, 110, 104, 294
260874219, 1936, 8335, -13967, 375, 1261, 2281, -3073, 161, -83, -307, 412, 116, 212, 374, 292, 110, 104, 294
260879195, 1936, 8335, -13967, 375, 1261, 2281, -3073, 161, -83, -307, 412, 116, 212, 374, 292, 110, 104, 294
260880007, 1936, 8335, -13967, 375, 1261, 2281, -3073, 161, -83, -307, 412, 116, 212, 374, 292, 110, 104, 294
260880816, 1936, 8335, -13967, 375, 1261, 2281, -3073, 161, -83, -307, 412, 116, 212, 374, 292, 110, 104, 294
260881619, 1936, 8335, -13967, 375, 1261, 2281, -3073, 161, -83, -307, 412, 116, 212, 374, 292, 110, 104, 294
260886566, 1936, 8335, -13967, 375, 1261, 2281, -3073, 161, -83, -307, 412, 116, 212, 374, 292, 110, 104, 294
260887391, 1936, 8335, -13967, 375, 1261, 2281, -3073, 161, -83, -307, 412, 116, 212, 374, 292, 110, 104, 294
260888191, 1936, 8335, -13967, 375, 1261, 2281, -3073, 161, -83, -307, 412, 116, 212, 374, 292, 110, 104, 294
260889016, 1936, 8335, -13967, 375, 1261, 2281, -3073, 161, -83, -307, 412, 116, 212, 374, 292, 110, 104, 294
260894107, 1936, 8335, -13967, 375, 1261, 2281, -3073, 161, -83, -307, 412, 116, 212, 374, 292, 110, 104, 294
260895044, 2058, 8386, -13922, 253, 1235, 2289, -3090, 171, -14, -247, 412, 116, 212, 374, 292, 110, 104, 294
260895869, 2058, 8386, -13922, 253, 1235, 2289, -3090, 171, -14, -247, 397, 124, 235, 418, 337, 123, 107, 278
260896744, 2058, 8386, -13922, 253, 1235, 2289, -3090, 171, -14, -247, 397, 124, 235, 418, 337, 123, 107, 278
260901664, 2058, 8386, -13922, 253, 1235, 2289, -3090, 171, -14, -247, 397, 124, 235, 418, 337, 123, 107, 278
260902533, 2058, 8386, -13922, 253, 1235, 2289, -3090, 171, -14, -247, 397, 124, 235, 418, 337, 123, 107, 278
260903339, 2058, 8386, -13922, 253, 1235, 2289, -3090, 171, -14, -247, 397, 124, 235, 418, 337, 123, 107, 278
260904144, 2058, 8386, -13922, 253, 1235, 2289, -3090, 171, -14, -247, 397, 124, 235, 418, 337, 123, 107, 278
260909108, 2058, 8386, -13922, 253, 1235, 2289, -3090, 171, -14, -247, 397, 124, 235, 418, 337, 123, 107, 278
260909943, 2058, 8386, -13922, 253, 1235, 2289, -3090, 171, -14, -247, 397, 124, 235, 418, 337, 123, 107, 278
260910769, 2058, 8386, -13922, 253, 1235, 2289, -3090, 171, -14, -247, 397, 124, 235, 418, 337, 123, 107, 278
260911569, 2058, 8386, -13922, 253, 1235, 2289, -3090, 171, -14, -247, 397, 124, 235, 418, 337, 123, 107, 278
260916655, 2058, 8386, -13922, 253, 1235, 2289, -3090, 171, -14, -247, 397, 124, 235, 418, 337, 123, 107, 278
260917569, 2184, 8420, -13884, 140, 1230, 2253, -3056, 137, 29, -149, 397, 124, 235, 418, 337, 123, 107, 278
260918419, 2184, 8420, -13884, 140, 1230, 2253, -3056, 137, 29, -149, 438, 144, 245, 420, 354, 127, 107, 266
260919217, 2184, 8420, -13884, 140, 1230, 2253, -3056, 137, 29, -149, 438, 144, 245, 420, 354, 127, 107, 266
260924258, 2184, 8420, -13884, 140, 1230, 2253, -3056, 137, 29, -149, 438, 144, 245, 420, 354, 127, 107, 266
260925017, 2184, 8420, -13884, 140, 1230, 2253, -3056, 137, 29, -149, 438, 144, 245, 420, 354, 127, 107, 266
260925869, 2184, 8420, -13884, 140, 1230, 2253, -3056, 137, 29, -149, 438, 144, 245, 420, 354, 127, 107, 266
260926645, 2184, 8420, -13884, 140, 1230, 2253, -3056, 137, 29, -149, 438, 144, 245, 420, 354, 127, 107, 266
260931620, 2184, 8420, -13884, 140, 1230, 2253, -3056, 137, 29, -149, 438, 144, 245, 420, 354, 127, 107, 266
260932406, 2184, 8420, -13884, 140, 1230, 2253, -3056, 137, 29, -149, 438, 144, 245, 420, 354, 127, 107, 266
260933217, 2184, 8420, -13884, 140, 1230, 2253, -3056, 137, 29, -149, 438, 144, 245, 420, 354, 127, 107, 266
260934016, 2184, 8420, -13884, 140, 1230, 2253, -3056, 137, 29, -149, 438, 144, 245, 420, 354, 127, 107, 266
260939120, 2184, 8420, -13884, 140, 1230, 2253, -3056, 137, 29, -149, 438, 144, 245, 420, 354, 127, 107, 266
260940019, 2315, 8438, -13852, 28, 1237, 2243, -3042, 70, 67, -65, 438, 144, 245, 420, 354, 127, 107, 266
260940841, 2315, 8438, -13852, 28, 1237, 2243, -3042, 70, 67, -65, 411, 154, 247, 414, 368, 124, 93, 221
260941743, 2315, 8438, -13852, 28, 1237, 2243, -3042, 70, 67, -65, 411, 154, 247, 414, 368, 124, 93, 221
260946771, 2315, 8438, -13852, 28, 1237, 2243, -3042, 70, 67, -65, 411, 154, 247, 414, 368, 124, 93, 221
260947496, 2315, 8438, -13852, 28, 1237, 2243, -3042, 70, 67, -65, 411, 154, 247, 414, 368, 124, 93, 221
260948357, 2315, 8438, -13852, 28, 1237, 2243, -3042, 70, 67, -65, 411, 154, 247, 414, 368, 124, 93, 221
260949142, 2315, 8438, -13852, 28, 1237, 2243, -3042, 70, 67, -65, 411, 154, 247, 414, 368, 124, 93, 221
260954118, 2315, 8438, -13852, 28, 1237, 2243, -3042, 70, 67, -65, 411, 154, 247, 414, 368, 124, 93, 221
260954897, 2315, 8438, -13852, 28, 1237, 2243, -3042, 70, 67, -65, 411, 154, 247, 414, 368, 124, 93, 221
260955733, 2315, 8438, -13852, 28, 1237, 2243, -3042, 70, 67, -65, 411, 154, 247, 414, 368, 124, 93, 221
260956517, 2315, 8438, -13852, 28, 1237, 2243, -3042, 70, 67, -65, 411, 154, 247, 414, 368, 124, 93, 221
260961638, 2315, 8438, -13852, 28, 1237, 2243, -3042, 70, 67, -65, 411, 154, 247, 414, 368, 124, 93, 221
260962633, 2457, 8439, -13827, -81, 1273, 2198, -3037, -25, 118, 23, 411, 154, 247, 414, 368, 124, 93, 221
260963420, 2457, 8439, -13827, -81, 1273, 2198, -3037, -25, 118, 23, 447, 161, 251, 408, 346, 124, 92, 242
260964244, 2457, 8439, -13827, -81, 1273, 2198, -3037, -25, 118, 23, 447, 161, 251, 408, 346, 124, 92, 242
260969238, 2457, 8439, -13827, -81, 1273, 2198, -3037, -25, 118, 23, 447, 161, 251, 408, 346, 124, 92, 242
260970069, 2457, 8439, -13827, -81, 1273, 2198, -3037, -25, 118, 23, 447, 161, 251, 408, 346, 124, 92, 242
260970866, 2457, 8439, -13827, -81, 1273, 2198, -3037, -25, 118, 23, 447, 161, 251, 408, 346, 124, 92, 242
260971739, 2457, 8439, -13827, -81, 1273, 2198, -3037, -25, 118, 23, 447, 161, 251, 408, 346, 124, 92, 242
260976621, 2457, 8439, -13827, -81, 1273, 2198, -3037, -25, 118, 23, 447, 161, 251, 408, 346, 124, 92, 242
260977465, 2457, 8439, -13827, -81, 1273, 2198, -3037, -25, 118, 23, 447, 161, 251, 408, 346, 124, 92, 242
260978243, 2457, 8439, -13827, -81, 1273, 2198, -3037, -25, 118, 23, 447, 161, 251, 408, 346, 124, 92, 242
260979108, 2457, 8439, -13827, -81, 1273, 2198, -3037, -25, 118, 23, 447, 161, 251, 408, 346, 124, 92, 242
260984143, 2457, 8439, -13827, -81, 1273, 2198, -3037, -25, 118, 23, 447, 161, 251, 408, 346, 124, 92, 242
260985080, 2604, 8430, -13804, -182, 1290, 2149, -3006, -71, 166, 71, 447, 161, 251, 408, 346, 124, 92, 242
260985892, 2604, 8430, -13804, -182, 1290, 2149, -3006, -71, 166, 71, 445, 146, 207, 354, 341, 117, 90, 261
260986766, 2604, 8430, -13804, -182, 1290, 2149, -3006, -71, 166, 71, 445, 146, 207, 354, 341, 117, 90, 261
260991741, 2604, 8430, -13804, -182, 1290, 2149, -3006, -71, 166, 71, 445, 146, 207, 354, 341, 117, 90, 261
260992547, 2604, 8430, -13804, -182, 1290, 2149, -3006, -71, 166, 71, 445, 146, 207, 354, 341, 117, 90, 261
260993342, 2604, 8430, -13804, -182, 1290, 2149, -3006, -71, 166, 71, 445, 146, 207, 354, 341, 117, 90, 261
260994168, 2604, 8430, -13804, -182, 1290, 2149, -3006, -71, 166, 71, 445, 146, 207, 354, 341, 117, 90, 261
260999091, 2604, 8430, -13804, -182, 1290, 2149, -3006, -71, 166, 71, 445, 146, 207, 354, 341, 117, 90, 261
260999946, 2604, 8430, -13804, -182, 1290, 2149, -3006, -71, 166, 71, 445, 146, 207, 354, 341, 117, 90, 261
261000741, 2604, 8430, -13804, -182, 1290, 2149, -3006, -71, 166, 71, 445, 146, 207, 354, 341, 117, 90, 261
261001556, 2604, 8430, -13804, -182, 1290, 2149, -3006, -71, 166, 71, 445, 146, 207, 354, 341, 117, 90, 261
261006669, 2604, 8430, -13804, -182, 1290, 2149, -3006, -71, 166, 71, 445, 146, 207, 354, 341, 117, 90, 261
261007573, 2744, 8415, -13785, -275, 1279, 2087, -2972, -91, 175, 103, 445, 146, 207, 354, 341, 117, 90, 261
261008378, 2744, 8415, -13785, -275, 1279, 2087, -2972, -91, 175, 103, 437, 138, 175, 298, 314, 103, 81, 255
261009167, 2744, 8415, -13785, -275, 1279, 2087, -2972, -91, 175, 103, 437, 138, 175, 298, 314, 103, 81, 255
261014221, 2744, 8415, -13785, -275, 1279, 2087, -2972, -91, 175, 103, 437, 138, 175, 298, 314, 103, 81, 255
261015013, 2744, 8415, -13785, -275, 1279, 2087, -2972, -91, 175, 103, 437, 138, 175, 298, 314, 103, 81, 255
261015828, 2744, 8415, -13785, -275, 1279, 2087, -2972, -91, 175, 103, 437, 138, 175, 298, 314, 103, 81, 255
261016622, 2744, 8415, -13785, -275, 1279, 2087, -2972, -91, 175, 103, 437, 138, 175, 298, 314, 103, 81, 255
261021608, 2744, 8415, -13785, -275, 1279, 2087, -2972, -91, 175, 103, 437, 138, 175, 298, 314, 103, 81, 255
261022392, 2744, 8415, -13785, -275, 1279, 2087, -2972, -91, 175, 103, 437, 138, 175, 298, 314, 103, 81, 255
261023235, 2744, 8415, -13785, -275, 1279, 2087, -2972, -91, 175, 103, 437, 138, 175, 298, 314, 103, 81, 255
261024016, 2744, 8415, -13785, -275, 1279, 2087, -2972, -91, 175, 103, 437, 138, 175, 298, 314, 103, 81, 255
261029164, 2744, 8415, -13785, -275, 1279, 2087, -2972, -91, 175, 103, 437, 138, 175, 298, 314, 103, 81, 255
261030094, 2880, 8396, -13767, -359, 1296, 2066, -2960, -77, 187, 130, 437, 138, 175, 298, 314, 103, 81, 255
261030884, 2880, 8396, -13767, -359, 1296, 2066, -2960, -77, 187, 130, 360, 121, 174, 283, 303, 99, 80, 244
261031717, 2880, 8396, -13767, -359, 1296, 2066, -2960, -77, 187, 130, 360, 121, 174, 283, 303, 99, 80, 244
261036717, 2880, 8396, -13767, -359, 1296, 2066, -2960, -77, 187, 130, 360, 121, 174, 283, 303, 99, 80, 244
261037588, 2880, 8396, -13767, -359, 1296, 2066, -2960, -77, 187, 130, 360, 121, 174, 283, 303, 99, 80, 244
261038331, 2880, 8396, -13767, -359, 1296, 2066, -2960, -77, 187, 130, 360, 121, 174, 283, 303, 99, 80, 244
261039165, 2880, 8396, -13767, -359, 1296, 2066, -2960, -77, 187, 130, 360, 121, 174, 283, 303, 99, 80, 244
