Timestamp, Orientation x, Orientation y, Orientation z, Orientation w, Acceleration x, Acceleration y, Acceleration z, Rotation x, Rotation y, Rotation z, EMG 0, EMG 1, EMG 2, EMG 3, EMG 4, EMG 5, EMG 6, EMG 7
241727418, 1421, 13549, -2242, 8820, 3789, 908, -2651, 274, 825, 444, 0, 0, 0, 0, 0, 0, 0, 0
241728205, 1429, 13508, -2229, 8885, 3815, 856, -2602, 232, 936, 435, 0, 0, 0, 0, 0, 0, 0, 0
241749242, 1435, 13458, -2215, 8963, 3854, 877, -2587, 249, 1030, 458, 0, 0, 0, 0, 0, 0, 0, 0
241771813, 1436, 13406, -2205, 9043, 4012, 1026, -2702, 294, 1102, 583, 0, 0, 0, 0, 0, 0, 0, 0
241786811, 1334, 13274, -2243, 9242, 4084, 1081, -2790, 431, 1220, 685, 0, 0, 0, 0, 0, 0, 0, 0
241794867, 1334, 13274, -2243, 9242, 4084, 1081, -2790, 431, 1220, 685, 22, 26, 71, 138, 73, 80, 62, 30
241795688, 1334, 13274, -2243, 9242, 4084, 1081, -2790, 431, 1220, 685, 22, 26, 71, 138, 73, 80, 62, 30
241810561, 1208, 13135, -2257, 9452, 3957, 1093, -2740, 630, 1289, 661, 22, 26, 71, 138, 73, 80, 62, 30
241811378, 1208, 13135, -2257, 9452, 3957, 1093, -2740, 630, 1289, 661, 22, 27, 54, 107, 74, 74, 59, 27
241812168, 1208, 13135, -2257, 9452, 3957, 1093, -2740, 630, 1289, 661, 22, 27, 54, 107, 74, 74, 59, 27
241833096, 1180, 13093, -2195, 9528, 3850, 1146, -2711, 637, 1251, 582, 22, 27, 54, 107, 74, 74, 59, 27
241833873, 1180, 13093, -2195, 9528, 3850, 1146, -2711, 637, 1251, 582, 22, 25, 54, 107, 77, 64, 62, 29
241834667, 1180, 13093, -2195, 9528, 3850, 1146, -2711, 637, 1251, 582, 22, 25, 54, 107, 77, 64, 62, 29
241846736, 1094, 12960, -2208, 9715, 3933, 1111, -2821, 426, 1198, 511, 22, 25, 54, 107, 77, 64, 62, 29
241854867, 1094, 12960, -2208, 9715, 3933, 1111, -2821, 426, 1198, 511, 26, 26, 55, 94, 61, 67, 70, 25
241855721, 1094, 12960, -2208, 9715, 3933, 1111, -2821, 426, 1198, 511, 26, 26, 55, 94, 61, 67, 70, 25
241870569, 1031, 12826, -2238, 9891, 3991, 1084, -2932, 261, 1162, 508, 26, 26, 55, 94, 61, 67, 70, 25
241871400, 1031, 12826, -2238, 9891, 3991, 1084, -2932, 261, 1162, 508, 28, 23, 50, 84, 63, 71, 78, 35
241872239, 1031, 12826, -2238, 9891, 3991, 1084, -2932, 261, 1162, 508, 28, 23, 50, 84, 63, 71, 78, 35
241893095, 962, 12697, -2261, 10058, 3917, 1083, -2815, 308, 1105, 494, 28, 23, 50, 84, 63, 71, 78, 35
241893881, 962, 12697, -2261, 10058, 3917, 1083, -2815, 308, 1105, 494, 28, 23, 45, 64, 65, 69, 76, 37
241894669, 962, 12697, -2261, 10058, 3917, 1083, -2815, 308, 1105, 494, 28, 23, 45, 64, 65, 69, 76, 37
241906720, 908, 12577, -2283, 10207, 3824, 1110, -2769, 234, 1012, 419, 28, 23, 45, 64, 65, 69, 76, 37
241914900, 908, 12577, -2283, 10207, 3824, 1110, -2769, 234, 1012, 419, 29, 23, 28, 39, 60, 69, 85, 39
241915713, 908, 12577, -2283, 10207, 3824, 1110, -2769, 234, 1012, 419, 29, 23, 28, 39, 60, 69, 85, 39
241930600, 914, 12477, -2334, 10317, 3709, 1296, -2772, -149, 809, 311, 29, 23, 28, 39, 60, 69, 85, 39
241931391, 914, 12477, -2334, 10317, 3709, 1296, -2772, -149, 809, 311, 30, 25, 26, 30, 53, 62, 94, 39
241932217, 914, 12477, -2334, 10317, 3709, 1296, -2772, -149, 809, 311, 30, 25, 26, 30, 53, 62, 94, 39
241953116, 969, 12394, -2451, 10386, 3789, 1319, -3124, -618, 595, 393, 30, 25, 26, 30, 53, 62, 94, 39
241953893, 969, 12394, -2451, 10386, 3789, 1319, -3124, -618, 595, 393, 29, 22, 23, 27, 53, 59, 104, 41
241954720, 969, 12394, -2451, 10386, 3789, 1319, -3124, -618, 595, 393, 29, 22, 23, 27, 53, 59, 104, 41
241966719, 1121, 12347, -2676, 10371, 3711, 1427, -3365, -1472, 154, 448, 29, 22, 23, 27, 53, 59, 104, 41
241974882, 1121, 12347, -2676, 10371, 3711, 1427, -3365, -1472, 154, 448, 27, 22, 22, 24, 48, 55, 99, 33
241975644, 1121, 12347, -2676, 10371, 3711, 1427, -3365, -1472, 154, 448, 27, 22, 22, 24, 48, 55, 99, 33
241990569, 1271, 12343, -2842, 10314, 3815, 1142, -3421, -1274, -150, 147, 27, 22, 22, 24, 48, 55, 99, 33
241991342, 1271, 12343, -2842, 10314, 3815, 1142, -3421, -1274, -150, 147, 27, 25, 23, 23, 37, 55, 101, 33
241992207, 1271, 12343, -2842, 10314, 3815, 1142, -3421, -1274, -150, 147, 27, 25, 23, 23, 37, 55, 101, 33
242013115, 1317, 12379, -2896, 10250, 3629, 1333, -3716, -430, -378, 5, 27, 25, 23, 23, 37, 55, 101, 33
242013885, 1317, 12379, -2896, 10250, 3629, 1333, -3716, -430, -378, 5, 26, 25, 24, 22, 33, 57, 101, 41
242014714, 1317, 12379, -2896, 10250, 3629, 1333, -3716, -430, -378, 5, 26, 25, 24, 22, 33, 57, 101, 41
242026744, 1361, 12467, -2915, 10131, 3778, 1173, -3478, -332, -776, -213, 26, 25, 24, 22, 33, 57, 101, 41
242034845, 1361, 12467, -2915, 10131, 3778, 1173, -3478, -332, -776, -213, 39, 30, 24, 24, 47, 77, 124, 119
242035652, 1361, 12467, -2915, 10131, 3778, 1173, -3478, -332, -776, -213, 39, 30, 24, 24, 47, 77, 124, 119
242050561, 1371, 12584, -2907, 9987, 3670, 1353, -3532, -107, -1005, -258, 39, 30, 24, 24, 47, 77, 124, 119
242051366, 1371, 12584, -2907, 9987, 3670, 1353, -3532, -107, -1005, -258, 43, 36, 27, 24, 44, 91, 122, 130
242052217, 1371, 12584, -2907, 9987, 3670, 1353, -3532, -107, -1005, -258, 43, 36, 27, 24, 44, 91, 122, 130
242073125, 1356, 12747, -2838, 9801, 3676, 1467, -3532, 194, -1339, -492, 43, 36, 27, 24, 44, 91, 122, 130
242073897, 1356, 12747, -2838, 9801, 3676, 1467, -3532, 194, -1339, -492, 44, 36, 27, 26, 43, 92, 144, 139
242074757, 1356, 12747, -2838, 9801, 3676, 1467, -3532, 194, -1339, -492, 44, 36, 27, 26, 43, 92, 144, 139
242086745, 1319, 12941, -2696, 9588, 3860, 1417, -3716, 518, -1549, -783, 44, 36, 27, 26, 43, 92, 144, 139
242094853, 1319, 12941, -2696, 9588, 3860, 1417, -3716, 518, -1549, -783, 47, 35, 29, 26, 46, 97, 153, 145
242095668, 1319, 12941, -2696, 9588, 3860, 1417, -3716, 518, -1549, -783, 47, 35, 29, 26, 46, 97, 153, 145
242110574, 1258, 13166, -2515, 9336, 3966, 1543, -3784, 729, -1821, -918, 47, 35, 29, 26, 46, 97, 153, 145
242111409, 1258, 13166, -2515, 9336, 3966, 1543, -3784, 729, -1821, -918, 47, 34, 34, 26, 50, 100, 162, 153
242112223, 1258, 13166, -2515, 9336, 3966, 1543, -3784, 729, -1821, -918, 47, 34, 34, 26, 50, 100, 162, 153
242133095, 1195, 13413, -2334, 9035, 4013, 1699, -3702, 709, -2119, -958, 47, 34, 34, 26, 50, 100, 162, 153
242133795, 1195, 13413, -2334, 9035, 4013, 1699, -3702, 709, -2119, -958, 42, 40, 66, 31, 37, 90, 148, 121
242134666, 1195, 13413, -2334, 9035, 4013, 1699, -3702, 709, -2119, -958, 42, 40, 66, 31, 37, 90, 148, 121
242146705, 1169, 13674, -2153, 8686, 4159, 1764, -3770, 508, -2354, -1098, 42, 40, 66, 31, 37, 90, 148, 121
242154867, 1169, 13674, -2153, 8686, 4159, 1764, -3770, 508, -2354, -1098, 40, 42, 76, 36, 38, 78, 140, 112
242155679, 1169, 13674, -2153, 8686, 4159, 1764, -3770, 508, -2354, -1098, 40, 42, 76, 36, 38, 78, 140, 112
242170570, 1180, 13939, -1963, 8298, 4208, 1732, -3743, 328, -2517, -1271, 40, 42, 76, 36, 38, 78, 140, 112
242171421, 1180, 13939, -1963, 8298, 4208, 1732, -3743, 328, -2517, -1271, 41, 42, 84, 38, 36, 76, 136, 120
242172214, 1180, 13939, -1963, 8298, 4208, 1732, -3743, 328, -2517, -1271, 41, 42, 84, 38, 36, 76, 136, 120
242193100, 1227, 14207, -1751, 7875, 4187, 1698, -3617, 202, -2657, -1494, 41, 42, 84, 38, 36, 76, 136, 120
242193848, 1227, 14207, -1751, 7875, 4187, 1698, -3617, 202, -2657, -1494, 45, 45, 91, 38, 39, 75, 160, 147
242194674, 1227, 14207, -1751, 7875, 4187, 1698, -3617, 202, -2657, -1494, 45, 45, 91, 38, 39, 75, 160, 147
242206717, 1273, 14469, -1486, 7432, 4248, 1477, -3502, 338, -2715, -1754, 45, 45, 91, 38, 39, 75, 160, 147
242214897, 1273, 14469, -1486, 7432, 4248, 1477, -3502, 338, -2715, -1754, 44, 45, 90, 37, 35, 72, 164, 150
242215693, 1273, 14469, -1486, 7432, 4248, 1477, -3502, 338, -2715, -1754, 44, 45, 90, 37, 35, 72, 164, 150
242230605, 1295, 14715, -1181, 6986, 4165, 1406, -3502, 545, -2691, -1881, 44, 45, 90, 37, 35, 72, 164, 150
242231392, 1295, 14715, -1181, 6986, 4165, 1406, -3502, 545, -2691, -1881, 46, 44, 72, 34, 35, 81, 183, 172
242232247, 1295, 14715, -1181, 6986, 4165, 1406, -3502, 545, -2691, -1881, 46, 44, 72, 34, 35, 81, 183, 172
242253096, 1281, 14944, -864, 6535, 4022, 1474, -3363, 748, -2681, -1856, 46, 44, 72, 34, 35, 81, 183, 172
242253913, 1281, 14944, -864, 6535, 4022, 1474, -3363, 748, -2681, -1856, 44, 40, 78, 40, 39, 80, 188, 185
242254692, 1281, 14944, -864, 6535, 4022, 1474, -3363, 748, -2681, -1856, 44, 40, 78, 40, 39, 80, 188, 185
242266718, 1228, 15149, -532, 6094, 3892, 1504, -3328, 967, -2581, -1829, 44, 40, 78, 40, 39, 80, 188, 185
242274843, 1228, 15149, -532, 6094, 3892, 1504, -3328, 967, -2581, -1829, 44, 40, 70, 44, 49, 82, 184, 201
242275641, 1228, 15149, -532, 6094, 3892, 1504, -3328, 967, -2581, -1829, 44, 40, 70, 44, 49, 82, 184, 201
242290585, 1162, 15326, -202, 5669, 3762, 1468, -3334, 1026, -2442, -1784, 44, 40, 70, 44, 49, 82, 184, 201
242291363, 1162, 15326, -202, 5669, 3762, 1468, -3334, 1026, -2442, -1784, 61, 46, 94, 58, 124, 136, 264, 271
242292194, 1162, 15326, -202, 5669, 3762, 1468, -3334, 1026, -2442, -1784, 61, 46, 94, 58, 124, 136, 264, 271
242313123, 1093, 15466, 144, 5291, 3676, 1290, -3131, 1142, -2255, -1796, 61, 46, 94, 58, 124, 136, 264, 271
242313872, 1093, 15466, 144, 5291, 3676, 1290, -3131, 1142, -2255, -1796, 72, 58, 115, 87, 137, 183, 317, 294
242314732, 1093, 15466, 144, 5291, 3676, 1290, -3131, 1142, -2255, -1796, 72, 58, 115, 87, 137, 183, 317, 294
242326754, 963, 15582, 506, 4944, 3522, 1117, -2994, 1469, -2057, -1780, 72, 58, 115, 87, 137, 183, 317, 294
242334843, 963, 15582, 506, 4944, 3522, 1117, -2994, 1469, -2057, -1780, 77, 69, 134, 99, 162, 194, 368, 301
242335683, 963, 15582, 506, 4944, 3522, 1117, -2994, 1469, -2057, -1780, 77, 69, 134, 99, 162, 194, 368, 301
242350539, 768, 15668, 852, 4650, 3276, 914, -3128, 1747, -1707, -1581, 77, 69, 134, 99, 162, 194, 368, 301
242351364, 768, 15668, 852, 4650, 3276, 914, -3128, 1747, -1707, -1581, 85, 83, 145, 109, 232, 288, 566, 422
242352165, 768, 15668, 852, 4650, 3276, 914, -3128, 1747, -1707, -1581, 85, 83, 145, 109, 232, 288, 566, 422
242373114, 456, 15744, 1177, 4352, 3040, 901, -3103, 2360, -1684, -1282, 85, 83, 145, 109, 232, 288, 566, 422
242373889, 456, 15744, 1177, 4352, 3040, 901, -3103, 2360, -1684, -1282, 91, 90, 185, 113, 252, 299, 588, 422
242374701, 456, 15744, 1177, 4352, 3040, 901, -3103, 2360, -1684, -1282, 91, 90, 185, 113, 252, 299, 588, 422
242386790, 130, 15803, 1447, 4070, 2944, 1446, -2995, 2420, -1591, -916, 91, 90, 185, 113, 252, 299, 588, 422
242394855, 130, 15803, 1447, 4070, 2944, 1446, -2995, 2420, -1591, -916, 81, 87, 259, 119, 286, 376, 579, 402
242395666, 130, 15803, 1447, 4070, 2944, 1446, -2995, 2420, -1591, -916, 81, 87, 259, 119, 286, 376, 579, 402
242410547, -85, 15842, 1618, 3851, 2679, 1692, -3205, 1699, -1256, -524, 81, 87, 259, 119, 286, 376, 579, 402
242411373, -85, 15842, 1618, 3851, 2679, 1692, -3205, 1699, -1256, -524, 86, 94, 326, 116, 310, 410, 589, 397
242412221, -85, 15842, 1618, 3851, 2679, 1692, -3205, 1699, -1256, -524, 86, 94, 326, 116, 310, 410, 589, 397
242433044, -29, 15867, 1691, 3715, 2674, 1213, -3292, 395, -1340, -212, 86, 94, 326, 116, 310, 410, 589, 397
242433851, -29, 15867, 1691, 3715, 2674, 1213, -3292, 395, -1340, -212, 96, 100, 350, 112, 332, 449, 630, 405
242434663, -29, 15867, 1691, 3715, 2674, 1213, -3292, 395, -1340, -212, 96, 100, 350, 112, 332, 449, 630, 405
242446700, 62, 15879, 1729, 3642, 2885, 711, -2941, -137, -1218, -228, 96, 100, 350, 112, 332, 449, 630, 405
242454871, 62, 15879, 1729, 3642, 2885, 711, -2941, -137, -1218, -228, 96, 92, 349, 102, 292, 480, 479, 314
242455669, 62, 15879, 1729, 3642, 2885, 711, -2941, -137, -1218, -228, 96, 92, 349, 102, 292, 480, 479, 314
242470568, 87, 15886, 1752, 3600, 2639, 358, -2971, 6, -881, -148, 96, 92, 349, 102, 292, 480, 479, 314
242471396, 87, 15886, 1752, 3600, 2639, 358, -2971, 6, -881, -148, 94, 98, 339, 101, 284, 526, 470, 325
242472214, 87, 15886, 1752, 3600, 2639, 358, -2971, 6, -881, -148, 94, 98, 339, 101, 284, 526, 470, 325
242493122, 77, 15892, 1760, 3573, 2660, 166, -2889, 73, -816, -77, 94, 98, 339, 101, 284, 526, 470, 325
242493846, 77, 15892, 1760, 3573, 2660, 166, -2889, 73, -816, -77, 97, 101, 280, 88, 225, 495, 450, 312
242494708, 77, 15892, 1760, 3573, 2660, 166, -2889, 73, -816, -77, 97, 101, 280, 88, 225, 495, 450, 312
242506708, 103, 15887, 1796, 3574, 2618, 458, -3075, 30, -610, -204, 97, 101, 280, 88, 225, 495, 450, 312
242514874, 103, 15887, 1796, 3574, 2618, 458, -3075, 30, -610, -204, 90, 95, 196, 69, 194, 523, 413, 301
242515731, 103, 15887, 1796, 3574, 2618, 458, -3075, 30, -610, -204, 90, 95, 196, 69, 194, 523, 413, 301
242530519, 175, 15878, 1841, 3591, 2534, 653, -3175, -144, -472, -284, 90, 95, 196, 69, 194, 523, 413, 301
242531368, 175, 15878, 1841, 3591, 2534, 653, -3175, -144, -472, -284, 78, 80, 160, 64, 165, 565, 362, 299
242532140, 175, 15878, 1841, 3591, 2534, 653, -3175, -144, -472, -284, 78, 80, 160, 64, 165, 565, 362, 299
242553104, 227, 15866, 1888, 3617, 2487, 521, -3409, -126, -326, -305, 78, 80, 160, 64, 165, 565, 362, 299
242553872, 227, 15866, 1888, 3617, 2487, 521, -3409, -126, -326, -305, 80, 79, 158, 62, 164, 536, 360, 265
242554707, 227, 15866, 1888, 3617, 2487, 521, -3409, -126, -326, -305, 80, 79, 158, 62, 164, 536, 360, 265
242566719, 249, 15854, 1929, 3644, 2338, 597, -3580, 51, -181, -223, 80, 79, 158, 62, 164, 536, 360, 265
242574822, 249, 15854, 1929, 3644, 2338, 597, -3580, 51, -181, -223, 80, 83, 139, 55, 158, 522, 347, 248
242575627, 249, 15854, 1929, 3644, 2338, 597, -3580, 51, -181, -223, 80, 83, 139, 55, 158, 522, 347, 248
242590549, 246, 15842, 1969, 3674, 2328, 667, -3704, 210, -100, -163, 80, 83, 139, 55, 158, 522, 347, 248
242591345, 246, 15842, 1969, 3674, 2328, 667, -3704, 210, -100, -163, 82, 82, 147, 60, 157, 548, 333, 220
242592214, 246, 15842, 1969, 3674, 2328, 667, -3704, 210, -100, -163, 82, 82, 147, 60, 157, 548, 333, 220
242613132, 237, 15829, 2011, 3707, 2261, 802, -3784, 303, -15, -132, 82, 82, 147, 60, 157, 548, 333, 220
242613883, 237, 15829, 2011, 3707, 2261, 802, -3784, 303, -15, -132, 79, 80, 153, 61, 207, 539, 349, 221
242614706, 237, 15829, 2011, 3707, 2261, 802, -3784, 303, -15, -132, 79, 80, 153, 61, 207, 539, 349, 221
242626748, 257, 15816, 2044, 3744, 2236, 1009, -3846, 230, 24, -72, 79, 80, 153, 61, 207, 539, 349, 221
242634847, 257, 15816, 2044, 3744, 2236, 1009, -3846, 230, 24, -72, 75, 96, 236, 60, 201, 480, 294, 183
242635642, 257, 15816, 2044, 3744, 2236, 1009, -3846, 230, 24, -72, 75, 96, 236, 60, 201, 480, 294, 183
242650556, 285, 15803, 2063, 3788, 2233, 918, -3857, 105, 66, -33, 75, 96, 236, 60, 201, 480, 294, 183
242651380, 285, 15803, 2063, 3788, 2233, 918, -3857, 105, 66, -33, 71, 96, 255, 56, 207, 449, 288, 199
242652168, 285, 15803, 2063, 3788, 2233, 918, -3857, 105, 66, -33, 71, 96, 255, 56, 207, 449, 288, 199
242673106, 304, 15792, 2073, 3828, 2211, 858, -3891, 101, 85, 15, 71, 96, 255, 56, 207, 449, 288, 199
242673874, 304, 15792, 2073, 3828, 2211, 858, -3891, 101, 85, 15, 75, 86, 256, 57, 200, 508, 314, 199
242674689, 304, 15792, 2073, 3828, 2211, 858, -3891, 101, 85, 15, 75, 86, 256, 57, 200, 508, 314, 199
242686666, 317, 15781, 2076, 3868, 2226, 881, -3939, 135, 104, 64, 75, 86, 256, 57, 200, 508, 314, 199
242694848, 317, 15781, 2076, 3868, 2226, 881, -3939, 135, 104, 64, 65, 87, 260, 54, 200, 459, 313, 213
242695686, 317, 15781, 2076, 3868, 2226, 881, -3939, 135, 104, 64, 65, 87, 260, 54, 200, 459, 313, 213
242709219, 339, 15772, 2074, 3906, 2226, 949, -3948, 101, 98, 98, 65, 87, 260, 54, 200, 459, 313, 213
242717345, 339, 15772, 2074, 3906, 2226, 949, -3948, 101, 98, 98, 74, 86, 259, 49, 192, 412, 325, 213
242718143, 339, 15772, 2074, 3906, 2226, 949, -3948, 101, 98, 98, 74, 86, 259, 49, 192, 412, 325, 213
242731742, 364, 15763, 2071, 3938, 2231, 925, -3989, 67, 83, 90, 74, 86, 259, 49, 192, 412, 325, 213
242739858, 364, 15763, 2071, 3938, 2231, 925, -3989, 67, 83, 90, 78, 71, 175, 56, 182, 440, 320, 207
242740671, 364, 15763, 2071, 3938, 2231, 925, -3989, 67, 83, 90, 78, 71, 175, 56, 182, 440, 320, 207
242746793, 400, 15755, 2064, 3971, 2230, 889, -3947, -24, 75, 81, 78, 71, 175, 56, 182, 440, 320, 207
242754814, 400, 15755, 2064, 3971, 2230, 889, -3947, -24, 75, 81, 77, 69, 137, 61, 171, 436, 309, 198
242755640, 400, 15755, 2064, 3971, 2230, 889, -3947, -24, 75, 81, 77, 69, 137, 61, 171, 436, 309, 198
242769223, 426, 15749, 2058, 3997, 2246, 841, -3965, 5, 49, 71, 77, 69, 137, 61, 171, 436, 309, 198
242777316, 426, 15749, 2058, 3997, 2246, 841, -3965, 5, 49, 71, 70, 72, 157, 63, 179, 402, 275, 199
242778168, 426, 15749, 2058, 3997, 2246, 841, -3965, 5, 49, 71, 70, 72, 157, 63, 179, 402, 275, 199
242791747, 443, 15742, 2055, 4023, 2290, 810, -3981, 31, 47, 62, 70, 72, 157, 63, 179, 402, 275, 199
242799818, 443, 15742, 2055, 4023, 2290, 810, -3981, 31, 47, 62, 71, 73, 165, 59, 186, 452, 297, 199
242800628, 443, 15742, 2055, 4023, 2290, 810, -3981, 31, 47, 62, 71, 73, 165, 59, 186, 452, 297, 199
242806768, 462, 15736, 2062, 4040, 2259, 875, -3990, 64, 17, 14, 71, 73, 165, 59, 186, 452, 297, 199
242814845, 462, 15736, 2062, 4040, 2259, 875, -3990, 64, 17, 14, 63, 72, 153, 61, 170, 476, 239, 198
242815718, 462, 15736, 2062, 4040, 2259, 875, -3990, 64, 17, 14, 63, 72, 153, 61, 170, 476, 239, 198
242829227, 488, 15731, 2071, 4053, 2243, 933, -3969, 59, -2, 7, 63, 72, 153, 61, 170, 476, 239, 198
242837295, 488, 15731, 2071, 4053, 2243, 933, -3969, 59, -2, 7, 56, 67, 159, 50, 159, 446, 241, 208
242838110, 488, 15731, 2071, 4053, 2243, 933, -3969, 59, -2, 7, 56, 67, 159, 50, 159, 446, 241, 208
242851694, 530, 15725, 2074, 4068, 2240, 1002, -3914, -13, -14, 34, 56, 67, 159, 50, 159, 446, 241, 208
242859793, 530, 15725, 2074, 4068, 2240, 1002, -3914, -13, -14, 34, 51, 77, 193, 54, 157, 445, 246, 199
242860657, 530, 15725, 2074, 4068, 2240, 1002, -3914, -13, -14, 34, 51, 77, 193, 54, 157, 445, 246, 199
242866820, 558, 15719, 2074, 4089, 2245, 866, -3951, -29, 43, 24, 51, 77, 193, 54, 157, 445, 246, 199
242874829, 558, 15719, 2074, 4089, 2245, 866, -3951, -29, 43, 24, 48, 68, 178, 50, 146, 388, 245, 191
242875616, 558, 15719, 2074, 4089, 2245, 866, -3951, -29, 43, 24, 48, 68, 178, 50, 146, 388, 245, 191
242889209, 585, 15716, 2075, 4097, 2225, 903, -3971, 4, -13, 33, 48, 68, 178, 50, 146, 388, 245, 191
242897291, 585, 15716, 2075, 4097, 2225, 903, -3971, 4, -13, 33, 51, 66, 158, 50, 137, 381, 227, 204
242898163, 585, 15716, 2075, 4097, 2225, 903, -3971, 4, -13, 33, 51, 66, 158, 50, 137, 381, 227, 204
242911698, 617, 15711, 2080, 4107, 2261, 1001, -3906, 16, -32, 19, 51, 66, 158, 50, 137, 381, 227, 204
242919857, 617, 15711, 2080, 4107, 2261, 1001, -3906, 16, -32, 19, 51, 70, 185, 49, 136, 406, 233, 210
242920674, 617, 15711, 2080, 4107, 2261, 1001, -3906, 16, -32, 19, 51, 70, 185, 49, 136, 406, 233, 210
242926843, 658, 15705, 2085, 4120, 2222, 968, -3904, -56, -4, -2, 51, 70, 185, 49, 136, 406, 233, 210
242934792, 658, 15705, 2085, 4120, 2222, 968, -3904, -56, -4, -2, 50, 74, 188, 50, 139, 410, 237, 224
242935646, 658, 15705, 2085, 4120, 2222, 968, -3904, -56, -4, -2, 50, 74, 188, 50, 139, 410, 237, 224
242949195, 698, 15701, 2088, 4128, 2225, 906, -3899, -95, -32, -17, 50, 74, 188, 50, 139, 410, 237, 224
242957366, 698, 15701, 2088, 4128, 2225, 906, -3899, -95, -32, -17, 59, 72, 169, 46, 150, 414, 236, 215
242958180, 698, 15701, 2088, 4128, 2225, 906, -3899, -95, -32, -17, 59, 72, 169, 46, 150, 414, 236, 215
242971698, 747, 15696, 2085, 4141, 2220, 944, -3893, -148, -11, 6, 59, 72, 169, 46, 150, 414, 236, 215
242979849, 747, 15696, 2085, 4141, 2220, 944, -3893, -148, -11, 6, 60, 71, 184, 48, 153, 417, 248, 223
242980667, 747, 15696, 2085, 4141, 2220, 944, -3893, -148, -11, 6, 60, 71, 184, 48, 153, 417, 248, 223
242986808, 775, 15691, 2084, 4154, 2235, 841, -3937, -95, 12, -6, 60, 71, 184, 48, 153, 417, 248, 223
242994848, 775, 15691, 2084, 4154, 2235, 841, -3937, -95, 12, -6, 57, 71, 210, 53, 149, 394, 250, 200
242995704, 775, 15691, 2084, 4154, 2235, 841, -3937, -95, 12, -6, 57, 71, 210, 53, 149, 394, 250, 200
243009170, 786, 15688, 2090, 4162, 2256, 872, -3970, 18, 3, -10, 57, 71, 210, 53, 149, 394, 250, 200
243017355, 786, 15688, 2090, 4162, 2256, 872, -3970, 18, 3, -10, 54, 70, 187, 52, 164, 337, 256, 188
243018187, 786, 15688, 2090, 4162, 2256, 872, -3970, 18, 3, -10, 54, 70, 187, 52, 164, 337, 256, 188
243031677, 781, 15684, 2101, 4170, 2259, 912, -3935, 135, 3, -9, 54, 70, 187, 52, 164, 337, 256, 188
243039871, 781, 15684, 2101, 4170, 2259, 912, -3935, 135, 3, -9, 55, 69, 181, 55, 162, 319, 235, 165
243040641, 781, 15684, 2101, 4170, 2259, 912, -3935, 135, 3, -9, 55, 69, 181, 55, 162, 319, 235, 165
243046799, 777, 15680, 2116, 4179, 2255, 951, -3957, 147, 19, -21, 55, 69, 181, 55, 162, 319, 235, 165
243054864, 777, 15680, 2116, 4179, 2255, 951, -3957, 147, 19, -21, 47, 61, 169, 52, 168, 309, 235, 206
243055679, 777, 15680, 2116, 4179, 2255, 951, -3957, 147, 19, -21, 47, 61, 169, 52, 168, 309, 235, 206
243069192, 777, 15677, 2132, 4184, 2249, 947, -3989, 130, 11, -31, 47, 61, 169, 52, 168, 309, 235, 206
243077342, 777, 15677, 2132, 4184, 2249, 947, -3989, 130, 11, -31, 50, 59, 147, 52, 167, 282, 230, 198
243078171, 777, 15677, 2132, 4184, 2249, 947, -3989, 130, 11, -31, 50, 59, 147, 52, 167, 282, 230, 198
243091720, 792, 15672, 2145, 4192, 2236, 959, -3924, 48, 9, -35, 50, 59, 147, 52, 167, 282, 230, 198
243099852, 792, 15672, 2145, 4192, 2236, 959, -3924, 48, 9, -35, 49, 57, 141, 53, 170, 296, 248, 194
243100642, 792, 15672, 2145, 4192, 2236, 959, -3924, 48, 9, -35, 49, 57, 141, 53, 170, 296, 248, 194
243106807, 801, 15667, 2157, 4203, 2222, 904, -3942, 42, 43, -36, 49, 57, 141, 53, 170, 296, 248, 194
243114860, 801, 15667, 2157, 4203, 2222, 904, -3942, 42, 43, -36, 49, 55, 143, 56, 125, 326, 261, 203
243115669, 801, 15667, 2157, 4203, 2222, 904, -3942, 42, 43, -36, 49, 55, 143, 56, 125, 326, 261, 203
243129240, 804, 15664, 2155, 4213, 2213, 836, -3953, 17, 43, 31, 49, 55, 143, 56, 125, 326, 261, 203
243137339, 804, 15664, 2155, 4213, 2213, 836, -3953, 17, 43, 31, 49, 53, 127, 55, 138, 314, 343, 262
243138142, 804, 15664, 2155, 4213, 2213, 836, -3953, 17, 43, 31, 49, 53, 127, 55, 138, 314, 343, 262
243151765, 798, 15663, 2155, 4221, 2255, 903, -3976, 106, 26, 50, 49, 53, 127, 55, 138, 314, 343, 262
243159824, 798, 15663, 2155, 4221, 2255, 903, -3976, 106, 26, 50, 58, 59, 129, 51, 120, 333, 342, 255
243160658, 798, 15663, 2155, 4221, 2255, 903, -3976, 106, 26, 50, 58, 59, 129, 51, 120, 333, 342, 255
243166774, 785, 15661, 2156, 4229, 2221, 871, -3927, 134, 39, 49, 58, 59, 129, 51, 120, 333, 342, 255
243174846, 785, 15661, 2156, 4229, 2221, 871, -3927, 134, 39, 49, 59, 66, 150, 52, 119, 380, 365, 250
243175642, 785, 15661, 2156, 4229, 2221, 871, -3927, 134, 39, 49, 59, 66, 150, 52, 119, 380, 365, 250
243189247, 775, 15660, 2153, 4235, 2237, 798, -3944, 81, 25, 47, 59, 66, 150, 52, 119, 380, 365, 250
243197316, 775, 15660, 2153, 4235, 2237, 798, -3944, 81, 25, 47, 65, 68, 118, 45, 116, 367, 361, 285
243198158, 775, 15660, 2153, 4235, 2237, 798, -3944, 81, 25, 47, 65, 68, 118, 45, 116, 367, 361, 285
243211736, 764, 15659, 2157, 4240, 2242, 842, -3950, 116, 21, 29, 65, 68, 118, 45, 116, 367, 361, 285
243219821, 764, 15659, 2157, 4240, 2242, 842, -3950, 116, 21, 29, 68, 67, 154, 47, 96, 329, 365, 294
243220617, 764, 15659, 2157, 4240, 2242, 842, -3950, 116, 21, 29, 68, 67, 154, 47, 96, 329, 365, 294
243226809, 755, 15656, 2155, 4253, 2242, 861, -3906, 112, 58, 63, 68, 67, 154, 47, 96, 329, 365, 294
243234817, 755, 15656, 2155, 4253, 2242, 861, -3906, 112, 58, 63, 67, 66, 157, 52, 76, 337, 295, 246
243235646, 755, 15656, 2155, 4253, 2242, 861, -3906, 112, 58, 63, 67, 66, 157, 52, 76, 337, 295, 246
243249196, 724, 15654, 2157, 4264, 2288, 802, -3953, 208, 54, 55, 67, 66, 157, 52, 76, 337, 295, 246
243257292, 724, 15654, 2157, 4264, 2288, 802, -3953, 208, 54, 55, 58, 60, 162, 52, 130, 323, 283, 218
243258121, 724, 15654, 2157, 4264, 2288, 802, -3953, 208, 54, 55, 58, 60, 162, 52, 130, 323, 283, 218
243271729, 689, 15651, 2169, 4275, 2288, 871, -3968, 282, 70, 32, 58, 60, 162, 52, 130, 323, 283, 218
243279837, 689, 15651, 2169, 4275, 2288, 871, -3968, 282, 70, 32, 68, 91, 201, 72, 134, 275, 251, 224
243280619, 689, 15651, 2169, 4275, 2288, 871, -3968, 282, 70, 32, 68, 91, 201, 72, 134, 275, 251, 224
243286782, 661, 15643, 2174, 4306, 2298, 926, -3985, 252, 192, 85, 68, 91, 201, 72, 134, 275, 251, 224
243294142, 661, 15643, 2174, 4306, 2298, 926, -3985, 252, 192, 85, 74, 154, 301, 136, 145, 326, 269, 172
243301681, 661, 15643, 2174, 4306, 2298, 926, -3985, 252, 192, 85, 74, 154, 301, 136, 145, 326, 269, 172
243309274, 547, 15629, 2168, 4377, 2252, 672, -3878, 575, 488, 220, 74, 154, 301, 136, 145, 326, 269, 172
243317328, 547, 15629, 2168, 4377, 2252, 672, -3878, 575, 488, 220, 74, 209, 529, 219, 225, 468, 357, 160
243318154, 547, 15629, 2168, 4377, 2252, 672, -3878, 575, 488, 220, 74, 209, 529, 219, 225, 468, 357, 160
243331694, 191, 15599, 2163, 4513, 2224, -188, -3641, 1718, 1038, 521, 74, 209, 529, 219, 225, 468, 357, 160
243339792, 191, 15599, 2163, 4513, 2224, -188, -3641, 1718, 1038, 521, 83, 391, 667, 310, 305, 626, 424, 165
243340615, 191, 15599, 2163, 4513, 2224, -188, -3641, 1718, 1038, 521, 83, 391, 667, 310, 305, 626, 424, 165
243346781, -528, 15568, 2268, 4543, 2676, -346, -4561, 3970, 744, 530, 83, 391, 667, 310, 305, 626, 424, 165
243362335, -528, 15568, 2268, 4543, 2676, -346, -4561, 3970, 744, 530, 123, 551, 966, 430, 390, 761, 476, 169
243363141, -528, 15568, 2268, 4543, 2676, -346, -4561, 3970, 744, 530, 123, 551, 966, 430, 390, 761, 476, 169
243369275, -1421, 15477, 2466, 4557, 2511, 740, -4629, 5071, 873, 257, 123, 551, 966, 430, 390, 761, 476, 169
243377319, -1421, 15477, 2466, 4557, 2511, 740, -4629, 5071, 873, 257, 128, 702, 1043, 488, 401, 898, 482, 156
243378110, -1421, 15477, 2466, 4557, 2511, 740, -4629, 5071, 873, 257, 128, 702, 1043, 488, 401, 898, 482, 156
243391723, -2235, 15338, 2667, 4589, 2410, 741, -4388, 4661, 975, 74, 128, 702, 1043, 488, 401, 898, 482, 156
243399792, -2235, 15338, 2667, 4589, 2410, 741, -4388, 4661, 975, 74, 126, 725, 1083, 493, 403, 955, 469, 175
243400629, -2235, 15338, 2667, 4589, 2410, 741, -4388, 4661, 975, 74, 126, 725, 1083, 493, 403, 955, 469, 175
243406777, -2990, 15172, 2823, 4616, 2412, 597, -3861, 4494, 1018, 320, 126, 725, 1083, 493, 403, 955, 469, 175
243422334, -2990, 15172, 2823, 4616, 2412, 597, -3861, 4494, 1018, 320, 132, 736, 1102, 472, 370, 982, 412, 181
243423121, -2990, 15172, 2823, 4616, 2412, 597, -3861, 4494, 1018, 320, 132, 736, 1102, 472, 370, 982, 412, 181
243429319, -3535, 15030, 2899, 4650, 2141, 831, -3644, 3290, 925, 446, 132, 736, 1102, 472, 370, 982, 412, 181
243437319, -3535, 15030, 2899, 4650, 2141, 831, -3644, 3290, 925, 446, 146, 782, 1095, 436, 314, 964, 349, 176
243438117, -3535, 15030, 2899, 4650, 2141, 831, -3644, 3290, 925, 446, 146, 782, 1095, 436, 314, 964, 349, 176
243451717, -3810, 14948, 2896, 4697, 2447, 229, -3593, 1643, 696, 439, 146, 782, 1095, 436, 314, 964, 349, 176
243459813, -3810, 14948, 2896, 4697, 2447, 229, -3593, 1643, 696, 439, 136, 753, 949, 389, 192, 956, 300, 197
243460592, -3810, 14948, 2896, 4697, 2447, 229, -3593, 1643, 696, 439, 136, 753, 949, 389, 192, 956, 300, 197
243466752, -3873, 14916, 2895, 4750, 2608, -318, -3718, 871, 607, 381, 136, 753, 949, 389, 192, 956, 300, 197
243482349, -3873, 14916, 2895, 4750, 2608, -318, -3718, 871, 607, 381, 133, 628, 951, 325, 216, 886, 309, 204
243483141, -3873, 14916, 2895, 4750, 2608, -318, -3718, 871, 607, 381, 133, 628, 951, 325, 216, 886, 309, 204
243498141, -3950, 14884, 2896, 4784, 2654, -519, -3757, 902, 538, 362, 133, 628, 951, 325, 216, 886, 309, 204
243498922, -3950, 14884, 2896, 4784, 2654, -519, -3757, 902, 538, 362, 184, 655, 1064, 374, 230, 836, 327, 193
243499769, -3950, 14884, 2896, 4784, 2654, -519, -3757, 902, 538, 362, 184, 655, 1064, 374, 230, 836, 327, 193
243511712, -3993, 14865, 2912, 4798, 2525, -354, -3796, 842, 432, 310, 184, 655, 1064, 374, 230, 836, 327, 193
243519850, -3993, 14865, 2912, 4798, 2525, -354, -3796, 842, 432, 310, 185, 671, 1027, 394, 231, 833, 323, 173
243520679, -3993, 14865, 2912, 4798, 2525, -354, -3796, 842, 432, 310, 185, 671, 1027, 394, 231, 833, 323, 173
243526795, -4007, 14855, 2924, 4811, 2668, -545, -3794, 602, 344, 259, 185, 671, 1027, 394, 231, 833, 323, 173
243542343, -4007, 14855, 2924, 4811, 2668, -545, -3794, 602, 344, 259, 190, 588, 997, 400, 251, 792, 386, 181
243543141, -4007, 14855, 2924, 4811, 2668, -545, -3794, 602, 344, 259, 190, 588, 997, 400, 251, 792, 386, 181
243549319, -4006, 14848, 2953, 4815, 2639, -522, -3815, 570, 271, 158, 190, 588, 997, 400, 251, 792, 386, 181
243557357, -4006, 14848, 2953, 4815, 2639, -522, -3815, 570, 271, 158, 194, 522, 974, 342, 238, 791, 384, 183
243558141, -4006, 14848, 2953, 4815, 2639, -522, -3815, 570, 271, 158, 194, 522, 974, 342, 238, 791, 384, 183
243571695, -3968, 14854, 2998, 4799, 2580, -492, -3897, 423, 141, 49, 194, 522, 974, 342, 238, 791, 384, 183
243579815, -3968, 14854, 2998, 4799, 2580, -492, -3897, 423, 141, 49, 208, 599, 1034, 391, 205, 739, 366, 186
243580668, -3968, 14854, 2998, 4799, 2580, -492, -3897, 423, 141, 49, 208, 599, 1034, 391, 205, 739, 366, 186
243586798, -3923, 14866, 3026, 4783, 2680, -815, -3882, 208, 86, 30, 208, 599, 1034, 391, 205, 739, 366, 186
243602360, -3923, 14866, 3026, 4783, 2680, -815, -3882, 208, 86, 30, 166, 639, 967, 342, 205, 753, 350, 179
243603144, -3923, 14866, 3026, 4783, 2680, -815, -3882, 208, 86, 30, 166, 639, 967, 342, 205, 753, 350, 179
243609304, -3909, 14869, 3069, 4758, 2662, -562, -3825, 496, 53, 89, 166, 639, 967, 342, 205, 753, 350, 179
243617344, -3909, 14869, 3069, 4758, 2662, -562, -3825, 496, 53, 89, 172, 633, 956, 328, 206, 750, 344, 174
243618155, -3909, 14869, 3069, 4758, 2662, -562, -3825, 496, 53, 89, 172, 633, 956, 328, 206, 750, 344, 174
243631674, -3865, 14879, 3114, 4733, 2595, -402, -3812, 387, 12, 74, 172, 633, 956, 328, 206, 750, 344, 174
243639818, -3865, 14879, 3114, 4733, 2595, -402, -3812, 387, 12, 74, 158, 655, 1081, 342, 205, 745, 340, 178
243640617, -3865, 14879, 3114, 4733, 2595, -402, -3812, 387, 12, 74, 158, 655, 1081, 342, 205, 745, 340, 178
243646796, -3789, 14898, 3142, 4715, 2666, -469, -3771, 121, -32, 85, 158, 655, 1081, 342, 205, 745, 340, 178
243662292, -3789, 14898, 3142, 4715, 2666, -469, -3771, 121, -32, 85, 142, 663, 1129, 362, 227, 661, 364, 157
243663145, -3789, 14898, 3142, 4715, 2666, -469, -3771, 121, -32, 85, 142, 663, 1129, 362, 227, 661, 364, 157
243669265, -3704, 14922, 3161, 4696, 2619, -473, -3760, 32, -40, 103, 142, 663, 1129, 362, 227, 661, 364, 157
243677335, -3704, 14922, 3161, 4696, 2619, -473, -3760, 32, -40, 103, 113, 616, 1116, 301, 222, 742, 383, 154
243678174, -3704, 14922, 3161, 4696, 2619, -473, -3760, 32, -40, 103, 113, 616, 1116, 301, 222, 742, 383, 154
243691694, -3636, 14939, 3171, 4687, 2664, -666, -3696, -5, -3, 84, 113, 616, 1116, 301, 222, 742, 383, 154
243699819, -3636, 14939, 3171, 4687, 2664, -666, -3696, -5, -3, 84, 117, 541, 1107, 281, 205, 702, 375, 164
243700616, -3636, 14939, 3171, 4687, 2664, -666, -3696, -5, -3, 84, 117, 541, 1107, 281, 205, 702, 375, 164
243706799, -3585, 14951, 3196, 4671, 2613, -581, -3681, 140, -19, 48, 117, 541, 1107, 281, 205, 702, 375, 164
243722309, -3585, 14951, 3196, 4671, 2613, -581, -3681, 140, -19, 48, 109, 532, 1157, 278, 218, 613, 383, 182
243723118, -3585, 14951, 3196, 4671, 2613, -581, -3681, 140, -19, 48, 109, 532, 1157, 278, 218, 613, 383, 182
243729275, -3512, 14966, 3228, 4655, 2637, -426, -3727, 86, -67, 32, 109, 532, 1157, 278, 218, 613, 383, 182
243737293, -3512, 14966, 3228, 4655, 2637, -426, -3727, 86, -67, 32, 119, 618, 1145, 254, 196, 620, 304, 182
243738157, -3512, 14966, 3228, 4655, 2637, -426, -3727, 86, -67, 32, 119, 618, 1145, 254, 196, 620, 304, 182
243751694, -3444, 14981, 3256, 4640, 2621, -503, -3685, 49, -72, 14, 119, 618, 1145, 254, 196, 620, 304, 182
243759814, -3444, 14981, 3256, 4640, 2621, -503, -3685, 49, -72, 14, 114, 601, 1107, 211, 214, 591, 268, 183
243760613, -3444, 14981, 3256, 4640, 2621, -503, -3685, 49, -72, 14, 114, 601, 1107, 211, 214, 591, 268, 183
243766792, -3372, 14994, 3294, 4623, 2603, -461, -3671, 44, -98, -40, 114, 601, 1107, 211, 214, 591, 268, 183
243782300, -3372, 14994, 3294, 4623, 2603, -461, -3671, 44, -98, -40, 115, 575, 1005, 211, 222, 572, 324, 182
243783134, -3372, 14994, 3294, 4623, 2603, -461, -3671, 44, -98, -40, 115, 575, 1005, 211, 222, 572, 324, 182
243789244, -3276, 15014, 3326, 4603, 2570, -467, -3763, -108, -120, -62, 115, 575, 1005, 211, 222, 572, 324, 182
243797333, -3276, 15014, 3326, 4603, 2570, -467, -3763, -108, -120, -62, 111, 559, 932, 238, 235, 636, 381, 191
243798153, -3276, 15014, 3326, 4603, 2570, -467, -3763, -108, -120, -62, 111, 559, 932, 238, 235, 636, 381, 191
