Timestamp, Orientation x, Orientation y, Orientation z, Orientation w, Acceleration x, Acceleration y, Acceleration z, Rotation x, Rotation y, Rotation z, EMG 0, EMG 1, EMG 2, EMG 3, EMG 4, EMG 5, EMG 6, EMG 7
18863969, 4716, 12854, -5774, 6900, 4074, 735, -2373, -73, -65, 17, 0, 0, 0, 0, 0, 0, 0, 0
18871496, 4745, 12872, -5780, 6841, 4104, 789, -2450, -238, -181, -160, 0, 0, 0, 0, 0, 0, 0, 0
18886472, 4827, 12893, -5773, 6750, 4003, 944, -2514, -475, -165, -344, 0, 0, 0, 0, 0, 0, 0, 0
18908955, 4929, 12909, -5786, 6633, 3930, 891, -2463, -701, -275, -395, 0, 0, 0, 0, 0, 0, 0, 0
18923947, 5061, 12931, -5809, 6468, 3974, 988, -2536, -943, -464, -518, 0, 0, 0, 0, 0, 0, 0, 0
18939595, 5061, 12931, -5809, 6468, 3974, 988, -2536, -943, -464, -518, 88, 66, 106, 65, 55, 130, 384, 354
18940392, 5061, 12931, -5809, 6468, 3974, 988, -2536, -943, -464, -518, 88, 66, 106, 65, 55, 130, 384, 354
18946558, 5145, 12985, -5806, 6296, 4013, 806, -2677, -721, -602, -739, 88, 66, 106, 65, 55, 130, 384, 354
18954567, 5145, 12985, -5806, 6296, 4013, 806, -2677, -721, -602, -739, 89, 70, 125, 68, 52, 136, 441, 367
18955433, 5145, 12985, -5806, 6296, 4013, 806, -2677, -721, -602, -739, 89, 70, 125, 68, 52, 136, 441, 367
18968970, 5175, 13074, -5764, 6122, 4065, 697, -2847, -410, -709, -967, 89, 70, 125, 68, 52, 136, 441, 367
18977097, 5175, 13074, -5764, 6122, 4065, 697, -2847, -410, -709, -967, 87, 73, 142, 72, 52, 141, 464, 344
18977870, 5175, 13074, -5764, 6122, 4065, 697, -2847, -410, -709, -967, 87, 73, 142, 72, 52, 141, 464, 344
18994249, 5165, 13206, -5676, 5926, 3905, 1026, -2778, -16, -948, -1084, 87, 73, 142, 72, 52, 141, 464, 344
18995092, 5165, 13206, -5676, 5926, 3905, 1026, -2778, -16, -948, -1084, 97, 82, 155, 68, 61, 158, 654, 375
18995874, 5165, 13206, -5676, 5926, 3905, 1026, -2778, -16, -948, -1084, 97, 82, 155, 68, 61, 158, 654, 375
18996689, 5165, 13206, -5676, 5926, 3905, 1026, -2778, -16, -948, -1084, 97, 82, 155, 68, 61, 158, 654, 375
19001552, 5165, 13206, -5676, 5926, 3905, 1026, -2778, -16, -948, -1084, 97, 82, 155, 68, 61, 158, 654, 375
19002388, 5165, 13206, -5676, 5926, 3905, 1026, -2778, -16, -948, -1084, 97, 82, 155, 68, 61, 158, 654, 375
19003203, 5165, 13206, -5676, 5926, 3905, 1026, -2778, -16, -948, -1084, 97, 82, 155, 68, 61, 158, 654, 375
19003997, 5165, 13206, -5676, 5926, 3905, 1026, -2778, -16, -948, -1084, 97, 82, 155, 68, 61, 158, 654, 375
19007131, 5165, 13206, -5676, 5926, 3905, 1026, -2778, -16, -948, -1084, 97, 82, 155, 68, 61, 158, 654, 375
19008093, 5181, 13355, -5540, 5702, 3917, 1362, -2731, 24, -1070, -1350, 97, 82, 155, 68, 61, 158, 654, 375
19016701, 5181, 13355, -5540, 5702, 3917, 1362, -2731, 24, -1070, -1350, 90, 85, 187, 69, 54, 150, 663, 325
19017502, 5181, 13355, -5540, 5702, 3917, 1362, -2731, 24, -1070, -1350, 90, 85, 187, 69, 54, 150, 663, 325
19018318, 5181, 13355, -5540, 5702, 3917, 1362, -2731, 24, -1070, -1350, 90, 85, 187, 69, 54, 150, 663, 325
19019156, 5181, 13355, -5540, 5702, 3917, 1362, -2731, 24, -1070, -1350, 90, 85, 187, 69, 54, 150, 663, 325
19023454, 5181, 13355, -5540, 5702, 3917, 1362, -2731, 24, -1070, -1350, 90, 85, 187, 69, 54, 150, 663, 325
19024254, 5181, 13355, -5540, 5702, 3917, 1362, -2731, 24, -1070, -1350, 90, 85, 187, 69, 54, 150, 663, 325
19025134, 5181, 13355, -5540, 5702, 3917, 1362, -2731, 24, -1070, -1350, 90, 85, 187, 69, 54, 150, 663, 325
19025870, 5181, 13355, -5540, 5702, 3917, 1362, -2731, 24, -1070, -1350, 90, 85, 187, 69, 54, 150, 663, 325
19029025, 5191, 13528, -5357, 5457, 3941, 1405, -2791, 151, -1132, -1637, 90, 85, 187, 69, 54, 150, 663, 325
19037096, 5191, 13528, -5357, 5457, 3941, 1405, -2791, 151, -1132, -1637, 75, 100, 211, 68, 53, 163, 727, 298
19037888, 5191, 13528, -5357, 5457, 3941, 1405, -2791, 151, -1132, -1637, 75, 100, 211, 68, 53, 163, 727, 298
19044102, 5179, 13719, -5129, 5203, 3826, 1463, -2773, 348, -1185, -1857, 75, 100, 211, 68, 53, 163, 727, 298
19052092, 5179, 13719, -5129, 5203, 3826, 1463, -2773, 348, -1185, -1857, 89, 114, 233, 65, 56, 167, 795, 290
19052935, 5179, 13719, -5129, 5203, 3826, 1463, -2773, 348, -1185, -1857, 89, 114, 233, 65, 56, 167, 795, 290
19066515, 5144, 13918, -4891, 4931, 3690, 1512, -2779, 458, -1317, -1920, 89, 114, 233, 65, 56, 167, 795, 290
19074596, 5144, 13918, -4891, 4931, 3690, 1512, -2779, 458, -1317, -1920, 86, 115, 240, 63, 134, 183, 808, 277
19075413, 5144, 13918, -4891, 4931, 3690, 1512, -2779, 458, -1317, -1920, 86, 115, 240, 63, 134, 183, 808, 277
19088997, 5088, 14122, -4633, 4651, 3659, 1604, -2836, 583, -1379, -2006, 86, 115, 240, 63, 134, 183, 808, 277
19097091, 5088, 14122, -4633, 4651, 3659, 1604, -2836, 583, -1379, -2006, 74, 112, 235, 73, 139, 173, 698, 207
19097881, 5088, 14122, -4633, 4651, 3659, 1604, -2836, 583, -1379, -2006, 74, 112, 235, 73, 139, 173, 698, 207
19104042, 5012, 14327, -4359, 4364, 3619, 1813, -2888, 710, -1442, -2064, 74, 112, 235, 73, 139, 173, 698, 207
19112118, 5012, 14327, -4359, 4364, 3619, 1813, -2888, 710, -1442, -2064, 87, 103, 208, 67, 159, 177, 648, 230
19112917, 5012, 14327, -4359, 4364, 3619, 1813, -2888, 710, -1442, -2064, 87, 103, 208, 67, 159, 177, 648, 230
19126491, 4939, 14521, -4066, 4080, 3539, 1961, -2958, 721, -1383, -2145, 87, 103, 208, 67, 159, 177, 648, 230
19134567, 4939, 14521, -4066, 4080, 3539, 1961, -2958, 721, -1383, -2145, 85, 80, 176, 71, 187, 183, 613, 225
19135381, 4939, 14521, -4066, 4080, 3539, 1961, -2958, 721, -1383, -2145, 85, 80, 176, 71, 187, 183, 613, 225
19148960, 4873, 14697, -3779, 3792, 3464, 1849, -2927, 634, -1398, -2125, 85, 80, 176, 71, 187, 183, 613, 225
19157091, 4873, 14697, -3779, 3792, 3464, 1849, -2927, 634, -1398, -2125, 71, 53, 140, 73, 280, 224, 525, 232
19157873, 4873, 14697, -3779, 3792, 3464, 1849, -2927, 634, -1398, -2125, 71, 53, 140, 73, 280, 224, 525, 232
19164020, 4785, 14858, -3507, 3529, 3385, 1646, -2920, 715, -1325, -1983, 71, 53, 140, 73, 280, 224, 525, 232
19172096, 4785, 14858, -3507, 3529, 3385, 1646, -2920, 715, -1325, -1983, 74, 48, 112, 72, 269, 213, 487, 241
19172880, 4785, 14858, -3507, 3529, 3385, 1646, -2920, 715, -1325, -1983, 74, 48, 112, 72, 269, 213, 487, 241
19186447, 4674, 15001, -3260, 3303, 3297, 1561, -2896, 808, -1200, -1761, 74, 48, 112, 72, 269, 213, 487, 241
19194569, 4674, 15001, -3260, 3303, 3297, 1561, -2896, 808, -1200, -1761, 83, 46, 86, 63, 288, 237, 461, 329
19195367, 4674, 15001, -3260, 3303, 3297, 1561, -2896, 808, -1200, -1761, 83, 46, 86, 63, 288, 237, 461, 329
19208968, 4536, 15103, -3061, 3220, 3265, 1603, -2929, 966, -1018, -1503, 83, 46, 86, 63, 288, 237, 461, 329
19217168, 4536, 15103, -3061, 3220, 3265, 1603, -2929, 966, -1018, -1503, 66, 47, 76, 75, 373, 262, 482, 308
19217915, 4536, 15103, -3061, 3220, 3265, 1603, -2929, 966, -1018, -1503, 66, 47, 76, 75, 373, 262, 482, 308
19224039, 4405, 15181, -2892, 3194, 3201, 1684, -2873, 995, -768, -1197, 66, 47, 76, 75, 373, 262, 482, 308
19232102, 4405, 15181, -2892, 3194, 3201, 1684, -2873, 995, -768, -1197, 61, 49, 79, 134, 523, 284, 422, 311
19232871, 4405, 15181, -2892, 3194, 3201, 1684, -2873, 995, -768, -1197, 61, 49, 79, 134, 523, 284, 422, 311
19246471, 4257, 15240, -2779, 3210, 3119, 1623, -2982, 1012, -581, -788, 61, 49, 79, 134, 523, 284, 422, 311
19254551, 4257, 15240, -2779, 3210, 3119, 1623, -2982, 1012, -581, -788, 85, 63, 85, 282, 612, 339, 336, 315
19255373, 4257, 15240, -2779, 3210, 3119, 1623, -2982, 1012, -581, -788, 85, 63, 85, 282, 612, 339, 336, 315
19268972, 4090, 15276, -2714, 3310, 3358, 1497, -3091, 1061, -289, -424, 85, 63, 85, 282, 612, 339, 336, 315
19277092, 4090, 15276, -2714, 3310, 3358, 1497, -3091, 1061, -289, -424, 95, 64, 90, 311, 671, 374, 318, 314
19277946, 4090, 15276, -2714, 3310, 3358, 1497, -3091, 1061, -289, -424, 95, 64, 90, 311, 671, 374, 318, 314
19284093, 3942, 15321, -2666, 3322, 3767, 1532, -3138, 897, -57, -109, 95, 64, 90, 311, 671, 374, 318, 314
19292113, 3942, 15321, -2666, 3322, 3767, 1532, -3138, 897, -57, -109, 94, 88, 111, 467, 804, 393, 299, 225
19292894, 3942, 15321, -2666, 3322, 3767, 1532, -3138, 897, -57, -109, 94, 88, 111, 467, 804, 393, 299, 225
19306428, 3860, 15346, -2633, 3330, 3975, 1311, -3041, 510, -14, -89, 94, 88, 111, 467, 804, 393, 299, 225
19314636, 3860, 15346, -2633, 3330, 3975, 1311, -3041, 510, -14, -89, 187, 112, 158, 673, 838, 475, 297, 277
19315417, 3860, 15346, -2633, 3330, 3975, 1311, -3041, 510, -14, -89, 187, 112, 158, 673, 838, 475, 297, 277
19328915, 3778, 15373, -2589, 3335, 3777, 1056, -2884, 518, -23, -159, 187, 112, 158, 673, 838, 475, 297, 277
19337111, 3778, 15373, -2589, 3335, 3777, 1056, -2884, 518, -23, -159, 207, 133, 183, 747, 777, 485, 300, 277
19337896, 3778, 15373, -2589, 3335, 3777, 1056, -2884, 518, -23, -159, 207, 133, 183, 747, 777, 485, 300, 277
19344098, 3699, 15403, -2548, 3314, 3939, 921, -2814, 483, -161, -177, 207, 133, 183, 747, 777, 485, 300, 277
19352121, 3699, 15403, -2548, 3314, 3939, 921, -2814, 483, -161, -177, 209, 148, 193, 736, 688, 441, 300, 263
19352921, 3699, 15403, -2548, 3314, 3939, 921, -2814, 483, -161, -177, 209, 148, 193, 736, 688, 441, 300, 263
19366451, 3744, 15422, -2502, 3211, 4087, 651, -2473, -254, -466, -441, 209, 148, 193, 736, 688, 441, 300, 263
19374601, 3744, 15422, -2502, 3211, 4087, 651, -2473, -254, -466, -441, 214, 186, 218, 766, 630, 417, 306, 242
19375382, 3744, 15422, -2502, 3211, 4087, 651, -2473, -254, -466, -441, 214, 186, 218, 766, 630, 417, 306, 242
19388935, 3832, 15450, -2387, 3057, 4023, 1043, -2849, -431, -624, -921, 214, 186, 218, 766, 630, 417, 306, 242
19397096, 3832, 15450, -2387, 3057, 4023, 1043, -2849, -431, -624, -921, 223, 183, 216, 698, 450, 390, 290, 244
19397889, 3832, 15450, -2387, 3057, 4023, 1043, -2849, -431, -624, -921, 223, 183, 216, 698, 450, 390, 290, 244
19404095, 3873, 15522, -2139, 2814, 3692, 1317, -3292, -63, -998, -1731, 223, 183, 216, 698, 450, 390, 290, 244
19419569, 3873, 15522, -2139, 2814, 3692, 1317, -3292, -63, -998, -1731, 158, 177, 184, 507, 291, 269, 223, 169
19420366, 3873, 15522, -2139, 2814, 3692, 1317, -3292, -63, -998, -1731, 158, 177, 184, 507, 291, 269, 223, 169
19426547, 3937, 15598, -1830, 2502, 3779, 1927, -3331, -167, -1273, -2170, 158, 177, 184, 507, 291, 269, 223, 169
19434575, 3937, 15598, -1830, 2502, 3779, 1927, -3331, -167, -1273, -2170, 143, 176, 162, 432, 228, 230, 250, 184
19435392, 3937, 15598, -1830, 2502, 3779, 1927, -3331, -167, -1273, -2170, 143, 176, 162, 432, 228, 230, 250, 184
19448976, 4035, 15663, -1456, 2167, 3384, 2215, -3618, -331, -1274, -2568, 143, 176, 162, 432, 228, 230, 250, 184
19457091, 4035, 15663, -1456, 2167, 3384, 2215, -3618, -331, -1274, -2568, 135, 166, 139, 396, 205, 207, 249, 176
19457898, 4035, 15663, -1456, 2167, 3384, 2215, -3618, -331, -1274, -2568, 135, 166, 139, 396, 205, 207, 249, 176
19464094, 4137, 15718, -1038, 1782, 2789, 2039, -3772, -353, -1478, -2871, 135, 166, 139, 396, 205, 207, 249, 176
19472107, 4137, 15718, -1038, 1782, 2789, 2039, -3772, -353, -1478, -2871, 133, 130, 106, 323, 197, 207, 234, 174
19472896, 4137, 15718, -1038, 1782, 2789, 2039, -3772, -353, -1478, -2871, 133, 130, 106, 323, 197, 207, 234, 174
19486424, 4209, 15764, -590, 1357, 2531, 2106, -3751, -196, -1651, -3068, 133, 130, 106, 323, 197, 207, 234, 174
19494588, 4209, 15764, -590, 1357, 2531, 2106, -3751, -196, -1651, -3068, 124, 165, 107, 365, 167, 236, 252, 161
19495413, 4209, 15764, -590, 1357, 2531, 2106, -3751, -196, -1651, -3068, 124, 165, 107, 365, 167, 236, 252, 161
19508933, 4241, 15798, -120, 919, 2225, 2145, -3911, 7, -1695, -3185, 124, 165, 107, 365, 167, 236, 252, 161
19517094, 4241, 15798, -120, 919, 2225, 2145, -3911, 7, -1695, -3185, 132, 175, 110, 386, 174, 252, 257, 150
19517877, 4241, 15798, -120, 919, 2225, 2145, -3911, 7, -1695, -3185, 132, 175, 110, 386, 174, 252, 257, 150
19524018, 4228, 15817, 338, 493, 1905, 2343, -3906, 226, -1839, -3204, 132, 175, 110, 386, 174, 252, 257, 150
19531431, 4228, 15817, 338, 493, 1905, 2343, -3906, 226, -1839, -3204, 148, 178, 115, 357, 152, 255, 236, 118
19538897, 4228, 15817, 338, 493, 1905, 2343, -3906, 226, -1839, -3204, 148, 178, 115, 357, 152, 255, 236, 118
19546585, 4163, 15825, 806, 39, 1697, 2300, -3895, 505, -1987, -3293, 148, 178, 115, 357, 152, 255, 236, 118
19554567, 4163, 15825, 806, 39, 1697, 2300, -3895, 505, -1987, -3293, 157, 238, 120, 370, 146, 261, 250, 108
19555398, 4163, 15825, 806, 39, 1697, 2300, -3895, 505, -1987, -3293, 157, 238, 120, 370, 146, 261, 250, 108
19568902, 4041, 15819, 1283, -434, 1518, 2062, -3813, 783, -2073, -3380, 157, 238, 120, 370, 146, 261, 250, 108
19577091, 4041, 15819, 1283, -434, 1518, 2062, -3813, 783, -2073, -3380, 146, 248, 107, 358, 137, 258, 251, 121
19577897, 4041, 15819, 1283, -434, 1518, 2062, -3813, 783, -2073, -3380, 146, 248, 107, 358, 137, 258, 251, 121
19584094, 3837, 15805, 1744, -926, 1323, 2066, -3841, 1244, -2179, -3337, 146, 248, 107, 358, 137, 258, 251, 121
19591441, 3837, 15805, 1744, -926, 1323, 2066, -3841, 1244, -2179, -3337, 181, 248, 137, 304, 140, 271, 268, 129
19598942, 3837, 15805, 1744, -926, 1323, 2066, -3841, 1244, -2179, -3337, 181, 248, 137, 304, 140, 271, 268, 129
19606570, 3566, 15770, 2215, -1454, 1214, 2112, -3807, 1627, -2348, -3479, 181, 248, 137, 304, 140, 271, 268, 129
19614624, 3566, 15770, 2215, -1454, 1214, 2112, -3807, 1627, -2348, -3479, 174, 243, 143, 335, 185, 238, 265, 130
19615386, 3566, 15770, 2215, -1454, 1214, 2112, -3807, 1627, -2348, -3479, 174, 243, 143, 335, 185, 238, 265, 130
19628942, 3283, 15700, 2679, -1992, 1077, 2074, -3798, 1683, -2444, -3490, 174, 243, 143, 335, 185, 238, 265, 130
19637102, 3283, 15700, 2679, -1992, 1077, 2074, -3798, 1683, -2444, -3490, 158, 249, 151, 298, 185, 231, 284, 131
19637923, 3283, 15700, 2679, -1992, 1077, 2074, -3798, 1683, -2444, -3490, 158, 249, 151, 298, 185, 231, 284, 131
19644107, 2990, 15595, 3132, -2544, 864, 1944, -3664, 1731, -2543, -3483, 158, 249, 151, 298, 185, 231, 284, 131
19659596, 2990, 15595, 3132, -2544, 864, 1944, -3664, 1731, -2543, -3483, 159, 215, 185, 320, 189, 223, 369, 134
19660392, 2990, 15595, 3132, -2544, 864, 1944, -3664, 1731, -2543, -3483, 159, 215, 185, 320, 189, 223, 369, 134
19666547, 2689, 15451, 3564, -3125, 855, 1852, -3676, 1808, -2781, -3450, 159, 215, 185, 320, 189, 223, 369, 134
19674583, 2689, 15451, 3564, -3125, 855, 1852, -3676, 1808, -2781, -3450, 167, 207, 190, 324, 195, 215, 441, 123
19675403, 2689, 15451, 3564, -3125, 855, 1852, -3676, 1808, -2781, -3450, 167, 207, 190, 324, 195, 215, 441, 123
19688894, 2349, 15259, 4011, -3738, 870, 1761, -3580, 2007, -2960, -3663, 167, 207, 190, 324, 195, 215, 441, 123
19697133, 2349, 15259, 4011, -3738, 870, 1761, -3580, 2007, -2960, -3663, 149, 265, 203, 378, 204, 169, 453, 116
19697876, 2349, 15259, 4011, -3738, 870, 1761, -3580, 2007, -2960, -3663, 149, 265, 203, 378, 204, 169, 453, 116
19704106, 2003, 15031, 4443, -4328, 720, 1502, -3504, 2000, -2895, -3608, 149, 265, 203, 378, 204, 169, 453, 116
19719589, 2003, 15031, 4443, -4328, 720, 1502, -3504, 2000, -2895, -3608, 162, 269, 204, 337, 211, 198, 452, 118
19720394, 2003, 15031, 4443, -4328, 720, 1502, -3504, 2000, -2895, -3608, 162, 269, 204, 337, 211, 198, 452, 118
19726520, 1652, 14780, 4831, -4890, 858, 1438, -3358, 2053, -2832, -3403, 162, 269, 204, 337, 211, 198, 452, 118
19734594, 1652, 14780, 4831, -4890, 858, 1438, -3358, 2053, -2832, -3403, 167, 264, 215, 341, 217, 209, 457, 114
19735392, 1652, 14780, 4831, -4890, 858, 1438, -3358, 2053, -2832, -3403, 167, 264, 215, 341, 217, 209, 457, 114
19748906, 1319, 14503, 5216, -5398, 945, 1356, -3111, 1882, -2628, -3357, 167, 264, 215, 341, 217, 209, 457, 114
19757091, 1319, 14503, 5216, -5398, 945, 1356, -3111, 1882, -2628, -3357, 171, 274, 210, 367, 261, 251, 618, 106
19757882, 1319, 14503, 5216, -5398, 945, 1356, -3111, 1882, -2628, -3357, 171, 274, 210, 367, 261, 251, 618, 106
19764032, 998, 14215, 5593, -5837, 1062, 1169, -2943, 1708, -2339, -3259, 171, 274, 210, 367, 261, 251, 618, 106
19779550, 998, 14215, 5593, -5837, 1062, 1169, -2943, 1708, -2339, -3259, 178, 281, 227, 415, 267, 297, 942, 121
19780367, 998, 14215, 5593, -5837, 1062, 1169, -2943, 1708, -2339, -3259, 178, 281, 227, 415, 267, 297, 942, 121
19786561, 695, 13926, 5936, -6227, 1092, 744, -2923, 1571, -2153, -3003, 178, 281, 227, 415, 267, 297, 942, 121
19794298, 695, 13926, 5936, -6227, 1092, 744, -2923, 1571, -2153, -3003, 166, 207, 193, 367, 276, 325, 1147, 206
19801395, 695, 13926, 5936, -6227, 1092, 744, -2923, 1571, -2153, -3003, 166, 207, 193, 367, 276, 325, 1147, 206
19809029, 420, 13644, 6258, -6551, 1303, 597, -2617, 1351, -1870, -2777, 166, 207, 193, 367, 276, 325, 1147, 206
19817112, 420, 13644, 6258, -6551, 1303, 597, -2617, 1351, -1870, -2777, 167, 197, 212, 448, 274, 362, 1332, 255
19817870, 420, 13644, 6258, -6551, 1303, 597, -2617, 1351, -1870, -2777, 167, 197, 212, 448, 274, 362, 1332, 255
19824096, 157, 13399, 6534, -6795, 1297, 379, -2624, 1234, -1447, -2418, 167, 197, 212, 448, 274, 362, 1332, 255
19839577, 157, 13399, 6534, -6795, 1297, 379, -2624, 1234, -1447, -2418, 175, 186, 197, 474, 271, 374, 1361, 273
19840393, 157, 13399, 6534, -6795, 1297, 379, -2624, 1234, -1447, -2418, 175, 186, 197, 474, 271, 374, 1361, 273
19846510, -59, 13218, 6737, -6952, 1411, 314, -2566, 997, -1006, -1805, 175, 186, 197, 474, 271, 374, 1361, 273
19862106, -59, 13218, 6737, -6952, 1411, 314, -2566, 997, -1006, -1805, 170, 157, 182, 441, 232, 352, 1274, 276
19862891, -59, 13218, 6737, -6952, 1411, 314, -2566, 997, -1006, -1805, 170, 157, 182, 441, 232, 352, 1274, 276
19869045, -266, 13175, 6935, -6833, 1329, 130, -2573, 746, -486, -1270, 170, 157, 182, 441, 232, 352, 1274, 276
19877098, -266, 13175, 6935, -6833, 1329, 130, -2573, 746, -486, -1270, 210, 147, 160, 419, 232, 350, 1025, 282
19877893, -266, 13175, 6935, -6833, 1329, 130, -2573, 746, -486, -1270, 210, 147, 160, 419, 232, 350, 1025, 282
19884022, -462, 13170, 7092, -6669, 1258, 39, -2490, 662, -138, -942, 210, 147, 160, 419, 232, 350, 1025, 282
19899577, -462, 13170, 7092, -6669, 1258, 39, -2490, 662, -138, -942, 230, 159, 191, 450, 206, 329, 769, 235
19900406, -462, 13170, 7092, -6669, 1258, 39, -2490, 662, -138, -942, 230, 159, 191, 450, 206, 329, 769, 235
19906525, -639, 13215, 7203, -6441, 1111, 32, -2560, 562, 285, -603, 230, 159, 191, 450, 206, 329, 769, 235
19922161, -639, 13215, 7203, -6441, 1111, 32, -2560, 562, 285, -603, 239, 176, 183, 462, 185, 326, 344, 200
19922816, -639, 13215, 7203, -6441, 1111, 32, -2560, 562, 285, -603, 239, 176, 183, 462, 185, 326, 344, 200
19928994, -786, 13276, 7293, -6194, 843, 60, -2591, 443, 453, -469, 239, 176, 183, 462, 185, 326, 344, 200
19937122, -786, 13276, 7293, -6194, 843, 60, -2591, 443, 453, -469, 278, 212, 227, 461, 186, 326, 126, 173
19937870, -786, 13276, 7293, -6194, 843, 60, -2591, 443, 453, -469, 278, 212, 227, 461, 186, 326, 126, 173
19944061, -902, 13353, 7360, -5927, 704, -39, -2645, 286, 576, -269, 278, 212, 227, 461, 186, 326, 126, 173
19959542, -902, 13353, 7360, -5927, 704, -39, -2645, 286, 576, -269, 281, 209, 228, 459, 190, 332, 59, 170
19960373, -902, 13353, 7360, -5927, 704, -39, -2645, 286, 576, -269, 281, 209, 228, 459, 190, 332, 59, 170
19966524, -984, 13433, 7411, -5666, 517, -75, -2720, 166, 563, -144, 281, 209, 228, 459, 190, 332, 59, 170
19982016, -984, 13433, 7411, -5666, 517, -75, -2720, 166, 563, -144, 263, 207, 233, 459, 177, 303, 40, 158
19982868, -984, 13433, 7411, -5666, 517, -75, -2720, 166, 563, -144, 263, 207, 233, 459, 177, 303, 40, 158
19988994, -1047, 13504, 7457, -5418, 436, -136, -2793, 114, 487, -108, 263, 207, 233, 459, 177, 303, 40, 158
19997090, -1047, 13504, 7457, -5418, 436, -136, -2793, 114, 487, -108, 248, 207, 211, 470, 207, 325, 28, 183
19997856, -1047, 13504, 7457, -5418, 436, -136, -2793, 114, 487, -108, 248, 207, 211, 470, 207, 325, 28, 183
20004006, -1091, 13567, 7502, -5184, 470, -119, -2824, 75, 365, -84, 248, 207, 211, 470, 207, 325, 28, 183
20019522, -1091, 13567, 7502, -5184, 470, -119, -2824, 75, 365, -84, 239, 198, 202, 385, 185, 311, 51, 167
20020359, -1091, 13567, 7502, -5184, 470, -119, -2824, 75, 365, -84, 239, 198, 202, 385, 185, 311, 51, 167
20026495, -1108, 13613, 7538, -5005, 171, -285, -2934, 51, 141, -35, 239, 198, 202, 385, 185, 311, 51, 167
20042042, -1108, 13613, 7538, -5005, 171, -285, -2934, 51, 141, -35, 189, 175, 165, 357, 169, 289, 254, 188
20042842, -1108, 13613, 7538, -5005, 171, -285, -2934, 51, 141, -35, 189, 175, 165, 357, 169, 289, 254, 188
20049008, -1095, 13663, 7551, -4850, 274, -325, -2920, -30, -56, 167, 189, 175, 165, 357, 169, 289, 254, 188
20056366, -1095, 13663, 7551, -4850, 274, -325, -2920, -30, -56, 167, 169, 169, 176, 336, 163, 294, 278, 186
20064601, -1095, 13663, 7551, -4850, 274, -325, -2920, -30, -56, 167, 169, 169, 176, 336, 163, 294, 278, 186
20065544, -1074, 13713, 7565, -4689, 311, -102, -2962, 8, -48, 126, 169, 169, 176, 336, 163, 294, 278, 186
20079518, -1074, 13713, 7565, -4689, 311, -102, -2962, 8, -48, 126, 138, 159, 181, 424, 163, 319, 294, 180
20080383, -1074, 13713, 7565, -4689, 311, -102, -2962, 8, -48, 126, 138, 159, 181, 424, 163, 319, 294, 180
20086494, -1066, 13743, 7597, -4550, 220, -260, -3014, 34, -118, -10, 138, 159, 181, 424, 163, 319, 294, 180
20102738, -1066, 13743, 7597, -4550, 220, -260, -3014, 34, -118, -10, 123, 145, 182, 397, 131, 286, 299, 176
20103556, -1066, 13743, 7597, -4550, 220, -260, -3014, 34, -118, -10, 123, 145, 182, 397, 131, 286, 299, 176
20104493, -1064, 13764, 7638, -4415, 265, -217, -3047, 78, -138, -80, 123, 145, 182, 397, 131, 286, 299, 176
20125287, -1064, 13764, 7638, -4415, 265, -217, -3047, 78, -138, -80, 106, 135, 179, 430, 141, 238, 301, 171
20126132, -1064, 13764, 7638, -4415, 265, -217, -3047, 78, -138, -80, 106, 135, 179, 430, 141, 238, 301, 171
20127107, -1074, 13784, 7680, -4276, 329, -247, -3065, 96, -106, -96, 106, 135, 179, 430, 141, 238, 301, 171
20139516, -1074, 13784, 7680, -4276, 329, -247, -3065, 96, -106, -96, 88, 116, 164, 431, 143, 282, 229, 157
20140365, -1074, 13784, 7680, -4276, 329, -247, -3065, 96, -106, -96, 88, 116, 164, 431, 143, 282, 229, 157
20146498, -1071, 13805, 7711, -4152, 258, -238, -3032, 75, -140, -37, 88, 116, 164, 431, 143, 282, 229, 157
20162741, -1071, 13805, 7711, -4152, 258, -238, -3032, 75, -140, -37, 94, 117, 152, 446, 134, 271, 212, 157
20163544, -1071, 13805, 7711, -4152, 258, -238, -3032, 75, -140, -37, 94, 117, 152, 446, 134, 271, 212, 157
20164493, -1062, 13833, 7732, -4019, 357, -152, -2981, 60, -117, 38, 94, 117, 152, 446, 134, 271, 212, 157
20185251, -1062, 13833, 7732, -4019, 357, -152, -2981, 60, -117, 38, 94, 118, 141, 399, 140, 238, 206, 155
20186093, -1062, 13833, 7732, -4019, 357, -152, -2981, 60, -117, 38, 94, 118, 141, 399, 140, 238, 206, 155
20186999, -1055, 13861, 7755, -3877, 337, -143, -2976, 31, -45, 12, 94, 118, 141, 399, 140, 238, 206, 155
20199542, -1055, 13861, 7755, -3877, 337, -143, -2976, 31, -45, 12, 81, 103, 137, 373, 131, 240, 265, 111
20200382, -1055, 13861, 7755, -3877, 337, -143, -2976, 31, -45, 12, 81, 103, 137, 373, 131, 240, 265, 111
20206523, -1049, 13886, 7780, -3738, 314, -182, -2985, 8, -26, -6, 81, 103, 137, 373, 131, 240, 265, 111
20222456, -1049, 13886, 7780, -3738, 314, -182, -2985, 8, -26, -6, 86, 108, 142, 362, 135, 251, 283, 127
20223289, -1049, 13886, 7780, -3738, 314, -182, -2985, 8, -26, -6, 86, 108, 142, 362, 135, 251, 283, 127
20229480, -1047, 13907, 7805, -3605, 315, -173, -2993, 36, -33, -24, 86, 108, 142, 362, 135, 251, 283, 127
20245243, -1047, 13907, 7805, -3605, 315, -173, -2993, 36, -33, -24, 81, 104, 144, 359, 134, 209, 254, 117
20246132, -1047, 13907, 7805, -3605, 315, -173, -2993, 36, -33, -24, 81, 104, 144, 359, 134, 209, 254, 117
20246997, -1051, 13925, 7829, -3480, 272, -225, -2994, 55, -22, -33, 81, 104, 144, 359, 134, 209, 254, 117
20259544, -1051, 13925, 7829, -3480, 272, -225, -2994, 55, -22, -33, 75, 92, 125, 344, 132, 217, 370, 119
20260317, -1051, 13925, 7829, -3480, 272, -225, -2994, 55, -22, -33, 75, 92, 125, 344, 132, 217, 370, 119
20266510, -1059, 13942, 7852, -3359, 306, -210, -2993, 86, -20, -31, 75, 92, 125, 344, 132, 217, 370, 119
20282716, -1059, 13942, 7852, -3359, 306, -210, -2993, 86, -20, -31, 86, 92, 137, 316, 118, 298, 367, 126
20283583, -1059, 13942, 7852, -3359, 306, -210, -2993, 86, -20, -31, 86, 92, 137, 316, 118, 298, 367, 126
20284469, -1064, 13960, 7869, -3237, 346, -177, -3004, 82, -25, 0, 86, 92, 137, 316, 118, 298, 367, 126
20305258, -1064, 13960, 7869, -3237, 346, -177, -3004, 82, -25, 0, 92, 89, 139, 336, 124, 299, 333, 121
20306082, -1064, 13960, 7869, -3237, 346, -177, -3004, 82, -25, 0, 92, 89, 139, 336, 124, 299, 333, 121
20306978, -1063, 13977, 7885, -3125, 311, -189, -2974, 54, -49, 6, 92, 89, 139, 336, 124, 299, 333, 121
20319536, -1063, 13977, 7885, -3125, 311, -189, -2974, 54, -49, 6, 86, 86, 147, 296, 122, 296, 344, 97
20320351, -1063, 13977, 7885, -3125, 311, -189, -2974, 54, -49, 6, 86, 86, 147, 296, 122, 296, 344, 97
20326495, -1067, 13991, 7900, -3019, 337, -202, -2956, 83, -62, 7, 86, 86, 147, 296, 122, 296, 344, 97
20342762, -1067, 13991, 7900, -3019, 337, -202, -2956, 83, -62, 7, 91, 87, 144, 310, 118, 281, 357, 92
20343549, -1067, 13991, 7900, -3019, 337, -202, -2956, 83, -62, 7, 91, 87, 144, 310, 118, 281, 357, 92
20344495, -1064, 14004, 7916, -2917, 287, -168, -2924, 62, -50, -11, 91, 87, 144, 310, 118, 281, 357, 92
20365233, -1064, 14004, 7916, -2917, 287, -168, -2924, 62, -50, -11, 97, 87, 155, 349, 122, 295, 268, 97
20366109, -1064, 14004, 7916, -2917, 287, -168, -2924, 62, -50, -11, 97, 87, 155, 349, 122, 295, 268, 97
20366947, -1063, 14014, 7936, -2814, 301, -189, -2928, 44, -41, -34, 97, 87, 155, 349, 122, 295, 268, 97
20379545, -1063, 14014, 7936, -2814, 301, -189, -2928, 44, -41, -34, 86, 78, 149, 426, 136, 221, 296, 95
20380368, -1063, 14014, 7936, -2814, 301, -189, -2928, 44, -41, -34, 86, 78, 149, 426, 136, 221, 296, 95
20386505, -1064, 14024, 7954, -2709, 325, -181, -2949, 49, -22, -27, 86, 78, 149, 426, 136, 221, 296, 95
