Timestamp, Orientation x, Orientation y, Orientation z, Orientation w, Acceleration x, Acceleration y, Acceleration z, Rotation x, Rotation y, Rotation z, EMG 0, EMG 1, EMG 2, EMG 3, EMG 4, EMG 5, EMG 6, EMG 7
210438449, -1238, 10265, -6817, 10726, 4003, 762, -2275, 105, 5, -48, 0, 0, 0, 0, 0, 0, 0, 0
210439242, -1248, 10264, -6798, 10738, 4010, 773, -2266, 135, 10, -31, 0, 0, 0, 0, 0, 0, 0, 0
210452800, -1261, 10261, -6782, 10749, 4025, 789, -2280, 129, 13, -7, 0, 0, 0, 0, 0, 0, 0, 0
210475287, -1272, 10259, -6769, 10758, 4018, 780, -2285, 106, 10, -3, 0, 0, 0, 0, 0, 0, 0, 0
210497765, -1261, 10275, -6765, 10747, 4046, 917, -2389, -54, -72, -90, 0, 0, 0, 0, 0, 0, 0, 0
210505909, -1261, 10275, -6765, 10747, 4046, 917, -2389, -54, -72, -90, 27, 27, 29, 29, 39, 56, 174, 110
210506681, -1261, 10275, -6765, 10747, 4046, 917, -2389, -54, -72, -90, 27, 27, 29, 29, 39, 56, 174, 110
210512860, -1168, 10333, -6793, 10684, 4101, 1224, -2500, -606, -209, -350, 27, 27, 29, 29, 39, 56, 174, 110
210528383, -1168, 10333, -6793, 10684, 4101, 1224, -2500, -606, -209, -350, 51, 42, 30, 33, 41, 65, 209, 165
210529192, -1168, 10333, -6793, 10684, 4101, 1224, -2500, -606, -209, -350, 51, 42, 30, 33, 41, 65, 209, 165
210535341, -1005, 10409, -6864, 10581, 4126, 1148, -2678, -1102, -235, -482, 51, 42, 30, 33, 41, 65, 209, 165
210550864, -1005, 10409, -6864, 10581, 4126, 1148, -2678, -1102, -235, -482, 82, 62, 35, 40, 43, 66, 218, 192
210551696, -1005, 10409, -6864, 10581, 4126, 1148, -2678, -1102, -235, -482, 82, 62, 35, 40, 43, 66, 218, 192
210557818, -847, 10518, -6910, 10457, 3966, 994, -2687, -1056, -448, -621, 82, 62, 35, 40, 43, 66, 218, 192
210565889, -847, 10518, -6910, 10457, 3966, 994, -2687, -1056, -448, -621, 94, 79, 59, 41, 50, 66, 241, 204
210566691, -847, 10518, -6910, 10457, 3966, 994, -2687, -1056, -448, -621, 94, 79, 59, 41, 50, 66, 241, 204
210572847, -699, 10651, -6913, 10329, 3935, 954, -3165, -884, -585, -793, 94, 79, 59, 41, 50, 66, 241, 204
210588386, -699, 10651, -6913, 10329, 3935, 954, -3165, -884, -585, -793, 209, 160, 79, 49, 45, 69, 294, 254
210589191, -699, 10651, -6913, 10329, 3935, 954, -3165, -884, -585, -793, 209, 160, 79, 49, 45, 69, 294, 254
210595370, -603, 10837, -6819, 10204, 3879, 1092, -3397, -354, -906, -1089, 209, 160, 79, 49, 45, 69, 294, 254
210610868, -603, 10837, -6819, 10204, 3879, 1092, -3397, -354, -906, -1089, 238, 192, 88, 49, 47, 68, 265, 269
210611653, -603, 10837, -6819, 10204, 3879, 1092, -3397, -354, -906, -1089, 238, 192, 88, 49, 47, 68, 265, 269
210617840, -549, 11076, -6610, 10087, 3670, 1466, -3508, 204, -1188, -1496, 238, 192, 88, 49, 47, 68, 265, 269
210625860, -549, 11076, -6610, 10087, 3670, 1466, -3508, 204, -1188, -1496, 235, 191, 104, 53, 51, 74, 248, 245
210626668, -549, 11076, -6610, 10087, 3670, 1466, -3508, 204, -1188, -1496, 235, 191, 104, 53, 51, 74, 248, 245
210632845, -495, 11386, -6314, 9934, 3662, 2035, -3475, 411, -1581, -1975, 235, 191, 104, 53, 51, 74, 248, 245
210648342, -495, 11386, -6314, 9934, 3662, 2035, -3475, 411, -1581, -1975, 231, 188, 109, 59, 64, 79, 246, 242
210649208, -495, 11386, -6314, 9934, 3662, 2035, -3475, 411, -1581, -1975, 231, 188, 109, 59, 64, 79, 246, 242
210655363, -400, 11749, -5966, 9727, 3593, 2483, -3364, 303, -1890, -2430, 231, 188, 109, 59, 64, 79, 246, 242
210670843, -400, 11749, -5966, 9727, 3593, 2483, -3364, 303, -1890, -2430, 229, 188, 103, 57, 59, 73, 241, 283
210671694, -400, 11749, -5966, 9727, 3593, 2483, -3364, 303, -1890, -2430, 229, 188, 103, 57, 59, 73, 241, 283
210677895, -242, 12152, -5580, 9463, 3615, 2645, -3352, 56, -2131, -2864, 229, 188, 103, 57, 59, 73, 241, 283
210685845, -242, 12152, -5580, 9463, 3615, 2645, -3352, 56, -2131, -2864, 146, 127, 95, 54, 62, 80, 192, 269
210686677, -242, 12152, -5580, 9463, 3615, 2645, -3352, 56, -2131, -2864, 146, 127, 95, 54, 62, 80, 192, 269
210692820, -45, 12576, -5141, 9156, 3613, 2672, -3343, -19, -2311, -3240, 146, 127, 95, 54, 62, 80, 192, 269
210708357, -45, 12576, -5141, 9156, 3613, 2672, -3343, -19, -2311, -3240, 92, 80, 88, 59, 63, 77, 188, 240
210709196, -45, 12576, -5141, 9156, 3613, 2672, -3343, -19, -2311, -3240, 92, 80, 88, 59, 63, 77, 188, 240
210715342, 173, 13005, -4641, 8815, 3501, 2774, -3215, 19, -2435, -3582, 92, 80, 88, 59, 63, 77, 188, 240
210730904, 173, 13005, -4641, 8815, 3501, 2774, -3215, 19, -2435, -3582, 91, 76, 68, 54, 61, 70, 202, 246
210731717, 173, 13005, -4641, 8815, 3501, 2774, -3215, 19, -2435, -3582, 91, 76, 68, 54, 61, 70, 202, 246
210737909, 405, 13426, -4084, 8445, 3420, 2924, -3163, 84, -2509, -3866, 91, 76, 68, 54, 61, 70, 202, 246
210745845, 405, 13426, -4084, 8445, 3420, 2924, -3163, 84, -2509, -3866, 84, 72, 59, 43, 46, 90, 203, 304
210746658, 405, 13426, -4084, 8445, 3420, 2924, -3163, 84, -2509, -3866, 84, 72, 59, 43, 46, 90, 203, 304
210752794, 653, 13822, -3514, 8036, 3372, 3126, -3127, -8, -2600, -3944, 84, 72, 59, 43, 46, 90, 203, 304
210768391, 653, 13822, -3514, 8036, 3372, 3126, -3127, -8, -2600, -3944, 84, 55, 50, 45, 48, 94, 209, 286
210769225, 653, 13822, -3514, 8036, 3372, 3126, -3127, -8, -2600, -3944, 84, 55, 50, 45, 48, 94, 209, 286
210775362, 940, 14182, -2948, 7597, 3536, 3145, -3033, -249, -2591, -3996, 84, 55, 50, 45, 48, 94, 209, 286
210790887, 940, 14182, -2948, 7597, 3536, 3145, -3033, -249, -2591, -3996, 58, 55, 38, 54, 113, 104, 221, 299
210791687, 940, 14182, -2948, 7597, 3536, 3145, -3033, -249, -2591, -3996, 58, 55, 38, 54, 113, 104, 221, 299
210797847, 1225, 14493, -2364, 7161, 3619, 2857, -2909, -203, -2452, -4025, 58, 55, 38, 54, 113, 104, 221, 299
210805909, 1225, 14493, -2364, 7161, 3619, 2857, -2909, -203, -2452, -4025, 57, 40, 34, 49, 149, 208, 238, 313
210806716, 1225, 14493, -2364, 7161, 3619, 2857, -2909, -203, -2452, -4025, 57, 40, 34, 49, 149, 208, 238, 313
210812909, 1480, 14753, -1751, 6746, 3562, 2580, -2935, 9, -2229, -4052, 57, 40, 34, 49, 149, 208, 238, 313
210828399, 1480, 14753, -1751, 6746, 3562, 2580, -2935, 9, -2229, -4052, 55, 40, 34, 51, 172, 215, 254, 306
210829214, 1480, 14753, -1751, 6746, 3562, 2580, -2935, 9, -2229, -4052, 55, 40, 34, 51, 172, 215, 254, 306
210835373, 1683, 14968, -1133, 6344, 3344, 2462, -2984, 273, -2089, -3918, 55, 40, 34, 51, 172, 215, 254, 306
210850887, 1683, 14968, -1133, 6344, 3344, 2462, -2984, 273, -2089, -3918, 51, 38, 36, 57, 198, 253, 323, 277
210851693, 1683, 14968, -1133, 6344, 3344, 2462, -2984, 273, -2089, -3918, 51, 38, 36, 57, 198, 253, 323, 277
210857861, 1859, 15137, -551, 5959, 3198, 2426, -3050, 307, -1935, -3648, 51, 38, 36, 57, 198, 253, 323, 277
210865914, 1859, 15137, -551, 5959, 3198, 2426, -3050, 307, -1935, -3648, 52, 40, 37, 64, 246, 272, 356, 260
210866720, 1859, 15137, -551, 5959, 3198, 2426, -3050, 307, -1935, -3648, 52, 40, 37, 64, 246, 272, 356, 260
210872844, 2038, 15256, -5, 5613, 3024, 2330, -2982, 329, -1703, -3321, 52, 40, 37, 64, 246, 272, 356, 260
210888390, 2038, 15256, -5, 5613, 3024, 2330, -2982, 329, -1703, -3321, 62, 36, 35, 58, 262, 282, 412, 221
210889233, 2038, 15256, -5, 5613, 3024, 2330, -2982, 329, -1703, -3321, 62, 36, 35, 58, 262, 282, 412, 221
210895368, 2149, 15341, 494, 5310, 2858, 2133, -2919, 553, -1456, -2955, 62, 36, 35, 58, 262, 282, 412, 221
210910884, 2149, 15341, 494, 5310, 2858, 2133, -2919, 553, -1456, -2955, 64, 36, 34, 62, 270, 253, 422, 227
210911679, 2149, 15341, 494, 5310, 2858, 2133, -2919, 553, -1456, -2955, 64, 36, 34, 62, 270, 253, 422, 227
210917819, 2196, 15407, 934, 5034, 2607, 2047, -2898, 748, -1304, -2529, 64, 36, 34, 62, 270, 253, 422, 227
210925896, 2196, 15407, 934, 5034, 2607, 2047, -2898, 748, -1304, -2529, 64, 37, 33, 67, 281, 254, 411, 243
210926693, 2196, 15407, 934, 5034, 2607, 2047, -2898, 748, -1304, -2529, 64, 37, 33, 67, 281, 254, 411, 243
210932885, 2204, 15456, 1276, 4800, 2469, 1985, -2901, 747, -1126, -1928, 64, 37, 33, 67, 281, 254, 411, 243
210948367, 2204, 15456, 1276, 4800, 2469, 1985, -2901, 747, -1126, -1928, 67, 43, 30, 62, 279, 212, 369, 195
210949233, 2204, 15456, 1276, 4800, 2469, 1985, -2901, 747, -1126, -1928, 67, 43, 30, 62, 279, 212, 369, 195
210955348, 2193, 15483, 1524, 4642, 2342, 1758, -2883, 849, -921, -1298, 67, 43, 30, 62, 279, 212, 369, 195
210970850, 2193, 15483, 1524, 4642, 2342, 1758, -2883, 849, -921, -1298, 59, 40, 28, 57, 251, 198, 341, 186
210971666, 2193, 15483, 1524, 4642, 2342, 1758, -2883, 849, -921, -1298, 59, 40, 28, 57, 251, 198, 341, 186
210977848, 2168, 15507, 1649, 4530, 2263, 1754, -2727, 734, -801, -590, 59, 40, 28, 57, 251, 198, 341, 186
210985873, 2168, 15507, 1649, 4530, 2263, 1754, -2727, 734, -801, -590, 71, 46, 36, 72, 360, 235, 330, 197
210986733, 2168, 15507, 1649, 4530, 2263, 1754, -2727, 734, -801, -590, 71, 46, 36, 72, 360, 235, 330, 197
210992844, 2137, 15528, 1645, 4476, 2358, 1728, -2693, 544, -645, 119, 71, 46, 36, 72, 360, 235, 330, 197
211008326, 2137, 15528, 1645, 4476, 2358, 1728, -2693, 544, -645, 119, 90, 55, 44, 93, 365, 266, 388, 218
211009192, 2137, 15528, 1645, 4476, 2358, 1728, -2693, 544, -645, 119, 90, 55, 44, 93, 365, 266, 388, 218
211015361, 2040, 15555, 1554, 4457, 2627, 1361, -2846, 575, -577, 582, 90, 55, 44, 93, 365, 266, 388, 218
211030870, 2040, 15555, 1554, 4457, 2627, 1361, -2846, 575, -577, 582, 102, 53, 48, 115, 403, 322, 398, 205
211031666, 2040, 15555, 1554, 4457, 2627, 1361, -2846, 575, -577, 582, 102, 53, 48, 115, 403, 322, 398, 205
211037859, 1937, 15569, 1413, 4502, 2856, 1221, -2742, 467, -367, 847, 102, 53, 48, 115, 403, 322, 398, 205
211054092, 1937, 15569, 1413, 4502, 2856, 1221, -2742, 467, -367, 847, 105, 60, 83, 175, 584, 526, 403, 204
211054912, 1937, 15569, 1413, 4502, 2856, 1221, -2742, 467, -367, 847, 105, 60, 83, 175, 584, 526, 403, 204
211055819, 1899, 15566, 1258, 4576, 2711, 1152, -2868, 36, -109, 857, 105, 60, 83, 175, 584, 526, 403, 204
211068319, 1899, 15566, 1258, 4576, 2711, 1152, -2868, 36, -109, 857, 116, 73, 106, 330, 714, 740, 434, 215
211069171, 1899, 15566, 1258, 4576, 2711, 1152, -2868, 36, -109, 857, 116, 73, 106, 330, 714, 740, 434, 215
211075344, 1941, 15547, 1072, 4666, 2544, 781, -2743, -613, 20, 835, 116, 73, 106, 330, 714, 740, 434, 215
211090911, 1941, 15547, 1072, 4666, 2544, 781, -2743, -613, 20, 835, 110, 82, 125, 525, 829, 851, 424, 247
211091692, 1941, 15547, 1072, 4666, 2544, 781, -2743, -613, 20, 835, 110, 82, 125, 525, 829, 851, 424, 247
211097879, 2014, 15519, 842, 4775, 2630, 583, -2753, -953, 94, 955, 110, 82, 125, 525, 829, 851, 424, 247
211105173, 2014, 15519, 842, 4775, 2630, 583, -2753, -953, 94, 955, 111, 93, 152, 644, 1003, 1030, 419, 307
211113393, 2014, 15519, 842, 4775, 2630, 583, -2753, -953, 94, 955, 111, 93, 152, 644, 1003, 1030, 419, 307
211114346, 2021, 15498, 644, 4872, 2559, 122, -2947, -775, 178, 772, 111, 93, 152, 644, 1003, 1030, 419, 307
211128366, 2021, 15498, 644, 4872, 2559, 122, -2947, -775, 178, 772, 157, 123, 200, 836, 1099, 1062, 484, 374
211129221, 2021, 15498, 644, 4872, 2559, 122, -2947, -775, 178, 772, 157, 123, 200, 836, 1099, 1062, 484, 374
211135344, 2028, 15473, 607, 4950, 2686, 616, -3002, -291, 184, 40, 157, 123, 200, 836, 1099, 1062, 484, 374
211150908, 2028, 15473, 607, 4950, 2686, 616, -3002, -291, 184, 40, 211, 152, 224, 968, 1092, 1089, 536, 428
211151692, 2028, 15473, 607, 4950, 2686, 616, -3002, -291, 184, 40, 211, 152, 224, 968, 1092, 1089, 536, 428
211157885, 2085, 15456, 744, 4961, 2442, 1078, -3124, -76, 74, -846, 211, 152, 224, 968, 1092, 1089, 536, 428
211174016, 2085, 15456, 744, 4961, 2442, 1078, -3124, -76, 74, -846, 212, 147, 219, 937, 1019, 978, 560, 455
211174883, 2085, 15456, 744, 4961, 2442, 1078, -3124, -76, 74, -846, 212, 147, 219, 937, 1019, 978, 560, 455
211175769, 2275, 15399, 924, 5026, 2666, 1267, -2811, -678, 244, -1280, 212, 147, 219, 937, 1019, 978, 560, 455
211188382, 2275, 15399, 924, 5026, 2666, 1267, -2811, -678, 244, -1280, 231, 152, 214, 851, 919, 909, 533, 457
211189167, 2275, 15399, 924, 5026, 2666, 1267, -2811, -678, 244, -1280, 231, 152, 214, 851, 919, 909, 533, 457
211195331, 2444, 15336, 1158, 5090, 2395, 1368, -2737, -472, 408, -1496, 231, 152, 214, 851, 919, 909, 533, 457
211210865, 2444, 15336, 1158, 5090, 2395, 1368, -2737, -472, 408, -1496, 301, 192, 208, 797, 743, 786, 517, 534
211211674, 2444, 15336, 1158, 5090, 2395, 1368, -2737, -472, 408, -1496, 301, 192, 208, 797, 743, 786, 517, 534
211217795, 2602, 15286, 1430, 5093, 2350, 1621, -2603, -357, 218, -1708, 301, 192, 208, 797, 743, 786, 517, 534
211234099, 2602, 15286, 1430, 5093, 2350, 1621, -2603, -357, 218, -1708, 295, 182, 192, 715, 575, 788, 493, 571
211234885, 2602, 15286, 1430, 5093, 2350, 1621, -2603, -357, 218, -1708, 295, 182, 192, 715, 575, 788, 493, 571
211235793, 2853, 15216, 1687, 5088, 2423, 1824, -2733, -880, 158, -1812, 295, 182, 192, 715, 575, 788, 493, 571
211248407, 2853, 15216, 1687, 5088, 2423, 1824, -2733, -880, 158, -1812, 289, 185, 181, 571, 525, 724, 449, 606
211249192, 2853, 15216, 1687, 5088, 2423, 1824, -2733, -880, 158, -1812, 289, 185, 181, 571, 525, 724, 449, 606
211255385, 3148, 15131, 1945, 5076, 2202, 1899, -3002, -1150, 162, -1908, 289, 185, 181, 571, 525, 724, 449, 606
211270870, 3148, 15131, 1945, 5076, 2202, 1899, -3002, -1150, 162, -1908, 311, 212, 182, 591, 529, 770, 528, 647
211271694, 3148, 15131, 1945, 5076, 2202, 1899, -3002, -1150, 162, -1908, 311, 212, 182, 591, 529, 770, 528, 647
211277845, 3420, 15043, 2219, 5049, 1800, 1761, -3026, -1026, 155, -1966, 311, 212, 182, 591, 529, 770, 528, 647
211294016, 3420, 15043, 2219, 5049, 1800, 1761, -3026, -1026, 155, -1966, 311, 245, 180, 595, 507, 776, 568, 716
211294866, 3420, 15043, 2219, 5049, 1800, 1761, -3026, -1026, 155, -1966, 311, 245, 180, 595, 507, 776, 568, 716
211295769, 3608, 14968, 2493, 5013, 1803, 2008, -2809, -545, 139, -1820, 311, 245, 180, 595, 507, 776, 568, 716
211308368, 3608, 14968, 2493, 5013, 1803, 2008, -2809, -545, 139, -1820, 269, 226, 170, 646, 493, 745, 581, 703
211309166, 3608, 14968, 2493, 5013, 1803, 2008, -2809, -545, 139, -1820, 269, 226, 170, 646, 493, 745, 581, 703
211315357, 3765, 14900, 2757, 4964, 1809, 2278, -2793, -371, 58, -1718, 269, 226, 170, 646, 493, 745, 581, 703
211330881, 3765, 14900, 2757, 4964, 1809, 2278, -2793, -371, 58, -1718, 274, 263, 143, 523, 509, 709, 607, 639
211331655, 3765, 14900, 2757, 4964, 1809, 2278, -2793, -371, 58, -1718, 274, 263, 143, 523, 509, 709, 607, 639
211337802, 3948, 14829, 2984, 4900, 1589, 2274, -2985, -586, 48, -1525, 274, 263, 143, 523, 509, 709, 607, 639
211354112, 3948, 14829, 2984, 4900, 1589, 2274, -2985, -586, 48, -1525, 253, 256, 106, 476, 418, 635, 614, 606
211354879, 3948, 14829, 2984, 4900, 1589, 2274, -2985, -586, 48, -1525, 253, 256, 106, 476, 418, 635, 614, 606
211355786, 4122, 14763, 3193, 4825, 1247, 2249, -3150, -666, 111, -1371, 253, 256, 106, 476, 418, 635, 614, 606
211368329, 4122, 14763, 3193, 4825, 1247, 2249, -3150, -666, 111, -1371, 228, 233, 114, 449, 398, 588, 561, 565
211369156, 4122, 14763, 3193, 4825, 1247, 2249, -3150, -666, 111, -1371, 228, 233, 114, 449, 398, 588, 561, 565
211375363, 4231, 14714, 3382, 4751, 1032, 2034, -3096, -438, 178, -1156, 228, 233, 114, 449, 398, 588, 561, 565
211390874, 4231, 14714, 3382, 4751, 1032, 2034, -3096, -438, 178, -1156, 227, 217, 121, 439, 350, 560, 554, 500
211391701, 4231, 14714, 3382, 4751, 1032, 2034, -3096, -438, 178, -1156, 227, 217, 121, 439, 350, 560, 554, 500
211397856, 4297, 14678, 3535, 4690, 1048, 2141, -2953, -210, 148, -876, 227, 217, 121, 439, 350, 560, 554, 500
211413445, 4297, 14678, 3535, 4690, 1048, 2141, -2953, -210, 148, -876, 293, 321, 140, 306, 317, 495, 543, 424
211414176, 4297, 14678, 3535, 4690, 1048, 2141, -2953, -210, 148, -876, 293, 321, 140, 306, 317, 495, 543, 424
211420348, 4367, 14647, 3653, 4631, 1046, 2261, -2931, -242, 69, -691, 293, 321, 140, 306, 317, 495, 543, 424
211436518, 4367, 14647, 3653, 4631, 1046, 2261, -2931, -242, 69, -691, 361, 416, 149, 279, 251, 458, 504, 469
211437358, 4367, 14647, 3653, 4631, 1046, 2261, -2931, -242, 69, -691, 361, 416, 149, 279, 251, 458, 504, 469
211438269, 4462, 14613, 3730, 4589, 1049, 2323, -3009, -480, 64, -516, 361, 416, 149, 279, 251, 458, 504, 469
211450966, 4462, 14613, 3730, 4589, 1049, 2323, -3009, -480, 64, -516, 388, 462, 162, 276, 195, 464, 481, 443
211451668, 4462, 14613, 3730, 4589, 1049, 2323, -3009, -480, 64, -516, 388, 462, 162, 276, 195, 464, 481, 443
211457806, 4546, 14583, 3781, 4558, 970, 2194, -2910, -508, 91, -356, 388, 462, 162, 276, 195, 464, 481, 443
211474097, 4546, 14583, 3781, 4558, 970, 2194, -2910, -508, 91, -356, 421, 578, 183, 256, 192, 460, 416, 425
211474897, 4546, 14583, 3781, 4558, 970, 2194, -2910, -508, 91, -356, 421, 578, 183, 256, 192, 460, 416, 425
211475793, 4569, 14580, 3816, 4514, 948, 1923, -2945, -296, 37, -230, 421, 578, 183, 256, 192, 460, 416, 425
211496544, 4569, 14580, 3816, 4514, 948, 1923, -2945, -296, 37, -230, 504, 681, 205, 262, 227, 508, 371, 468
211497341, 4569, 14580, 3816, 4514, 948, 1923, -2945, -296, 37, -230, 504, 681, 205, 262, 227, 508, 371, 468
211498311, 4546, 14591, 3875, 4452, 786, 1918, -2961, 24, 73, -236, 504, 681, 205, 262, 227, 508, 371, 468
211510836, 4546, 14591, 3875, 4452, 786, 1918, -2961, 24, 73, -236, 523, 697, 206, 257, 232, 477, 381, 451
211511656, 4546, 14591, 3875, 4452, 786, 1918, -2961, 24, 73, -236, 523, 697, 206, 257, 232, 477, 381, 451
211517829, 4591, 14590, 3903, 4387, 516, 2325, -3022, -247, 42, -44, 523, 697, 206, 257, 232, 477, 381, 451
211534099, 4591, 14590, 3903, 4387, 516, 2325, -3022, -247, 42, -44, 486, 641, 202, 254, 231, 466, 332, 431
211534870, 4591, 14590, 3903, 4387, 516, 2325, -3022, -247, 42, -44, 486, 641, 202, 254, 231, 466, 332, 431
211535835, 4617, 14596, 3928, 4315, 812, 2000, -2866, -210, -150, -183, 486, 641, 202, 254, 231, 466, 332, 431
211556517, 4617, 14596, 3928, 4315, 812, 2000, -2866, -210, -150, -183, 497, 615, 197, 220, 223, 427, 328, 485
211557369, 4617, 14596, 3928, 4315, 812, 2000, -2866, -210, -150, -183, 497, 615, 197, 220, 223, 427, 328, 485
211558293, 4606, 14605, 3932, 4292, 1106, 1875, -2957, -191, 8, -72, 497, 615, 197, 220, 223, 427, 328, 485
211570865, 4606, 14605, 3932, 4292, 1106, 1875, -2957, -191, 8, -72, 641, 561, 230, 236, 206, 390, 325, 540
211571677, 4606, 14605, 3932, 4292, 1106, 1875, -2957, -191, 8, -72, 641, 561, 230, 236, 206, 390, 325, 540
211577818, 4609, 14617, 3901, 4277, 756, 2005, -2950, -266, 104, 249, 641, 561, 230, 236, 206, 390, 325, 540
211594053, 4609, 14617, 3901, 4277, 756, 2005, -2950, -266, 104, 249, 770, 592, 236, 215, 145, 243, 328, 492
211594822, 4609, 14617, 3901, 4277, 756, 2005, -2950, -266, 104, 249, 770, 592, 236, 215, 145, 243, 328, 492
211595789, 4639, 14613, 3818, 4333, 1258, 2151, -2885, -529, 173, 421, 770, 592, 236, 215, 145, 243, 328, 492
211616617, 4639, 14613, 3818, 4333, 1258, 2151, -2885, -529, 173, 421, 846, 646, 245, 208, 138, 281, 314, 498
211617354, 4639, 14613, 3818, 4333, 1258, 2151, -2885, -529, 173, 421, 846, 646, 245, 208, 138, 281, 314, 498
211618293, 4687, 14578, 3766, 4442, 1517, 2046, -2689, -681, 386, 179, 846, 646, 245, 208, 138, 281, 314, 498
211630163, 4687, 14578, 3766, 4442, 1517, 2046, -2689, -681, 386, 179, 920, 745, 290, 208, 140, 329, 337, 535
211638399, 4687, 14578, 3766, 4442, 1517, 2046, -2689, -681, 386, 179, 920, 745, 290, 208, 140, 329, 337, 535
211639319, 4723, 14542, 3791, 4501, 874, 1940, -2619, -466, 530, -57, 920, 745, 290, 208, 140, 329, 337, 535
211654026, 4723, 14542, 3791, 4501, 874, 1940, -2619, -466, 530, -57, 933, 843, 301, 224, 158, 318, 351, 499
211654843, 4723, 14542, 3791, 4501, 874, 1940, -2619, -466, 530, -57, 933, 843, 301, 224, 158, 318, 351, 499
211655771, 4732, 14522, 3804, 4543, 879, 2071, -2760, -318, 467, 60, 933, 843, 301, 224, 158, 318, 351, 499
211676541, 4732, 14522, 3804, 4543, 879, 2071, -2760, -318, 467, 60, 897, 1101, 306, 236, 156, 341, 368, 506
211677393, 4732, 14522, 3804, 4543, 879, 2071, -2760, -318, 467, 60, 897, 1101, 306, 236, 156, 341, 368, 506
211678293, 4749, 14513, 3782, 4575, 413, 1739, -3039, -609, 567, 323, 897, 1101, 306, 236, 156, 341, 368, 506
211699043, 4749, 14513, 3782, 4575, 413, 1739, -3039, -609, 567, 323, 980, 1254, 328, 275, 157, 352, 380, 491
211699841, 4749, 14513, 3782, 4575, 413, 1739, -3039, -609, 567, 323, 980, 1254, 328, 275, 157, 352, 380, 491
211700781, 4751, 14534, 3746, 4535, 204, 1584, -3136, -500, 260, 381, 980, 1254, 328, 275, 157, 352, 380, 491
211714048, 4751, 14534, 3746, 4535, 204, 1584, -3136, -500, 260, 381, 1035, 1327, 317, 318, 156, 439, 384, 478
211714817, 4751, 14534, 3746, 4535, 204, 1584, -3136, -500, 260, 381, 1035, 1327, 317, 318, 156, 439, 384, 478
211715810, 4758, 14569, 3705, 4449, 127, 1695, -3182, -425, 18, 385, 1035, 1327, 317, 318, 156, 439, 384, 478
211736541, 4758, 14569, 3705, 4449, 127, 1695, -3182, -425, 18, 385, 1063, 1352, 321, 423, 170, 433, 446, 582
211737381, 4758, 14569, 3705, 4449, 127, 1695, -3182, -425, 18, 385, 1063, 1352, 321, 423, 170, 433, 446, 582
211738294, 4741, 14625, 3636, 4337, 153, 1714, -3225, -274, -175, 528, 1063, 1352, 321, 423, 170, 433, 446, 582
211759040, 4741, 14625, 3636, 4337, 153, 1714, -3225, -274, -175, 528, 1234, 1302, 369, 525, 167, 449, 459, 591
211759816, 4741, 14625, 3636, 4337, 153, 1714, -3225, -274, -175, 528, 1234, 1302, 369, 525, 167, 449, 459, 591
211760795, 4734, 14682, 3549, 4225, 259, 1758, -3253, -321, -269, 571, 1234, 1302, 369, 525, 167, 449, 459, 591
211773991, 4734, 14682, 3549, 4225, 259, 1758, -3253, -321, -269, 571, 1239, 1067, 393, 617, 172, 448, 465, 578
211774843, 4734, 14682, 3549, 4225, 259, 1758, -3253, -321, -269, 571, 1239, 1067, 393, 617, 172, 448, 465, 578
211775744, 4737, 14733, 3469, 4106, 515, 1903, -3057, -229, -443, 431, 1239, 1067, 393, 617, 172, 448, 465, 578
211796542, 4737, 14733, 3469, 4106, 515, 1903, -3057, -229, -443, 431, 1058, 777, 360, 610, 169, 445, 450, 593
211797371, 4737, 14733, 3469, 4106, 515, 1903, -3057, -229, -443, 431, 1058, 777, 360, 610, 169, 445, 450, 593
211798294, 4739, 14774, 3426, 3993, 744, 2069, -2935, -70, -474, 188, 1058, 777, 360, 610, 169, 445, 450, 593
211819010, 4739, 14774, 3426, 3993, 744, 2069, -2935, -70, -474, 188, 957, 512, 363, 581, 148, 329, 440, 608
211819805, 4739, 14774, 3426, 3993, 744, 2069, -2935, -70, -474, 188, 957, 512, 363, 581, 148, 329, 440, 608
211820719, 4734, 14805, 3421, 3887, 853, 2117, -2824, 66, -437, -35, 957, 512, 363, 581, 148, 329, 440, 608
211833993, 4734, 14805, 3421, 3887, 853, 2117, -2824, 66, -437, -35, 855, 206, 327, 512, 133, 316, 381, 458
211834843, 4734, 14805, 3421, 3887, 853, 2117, -2824, 66, -437, -35, 855, 206, 327, 512, 133, 316, 381, 458
211835744, 4724, 14827, 3440, 3799, 939, 2099, -2775, 105, -348, -178, 855, 206, 327, 512, 133, 316, 381, 458
211856528, 4724, 14827, 3440, 3799, 939, 2099, -2775, 105, -348, -178, 556, 89, 257, 397, 119, 341, 365, 426
211857340, 4724, 14827, 3440, 3799, 939, 2099, -2775, 105, -348, -178, 556, 89, 257, 397, 119, 341, 365, 426
211858272, 4708, 14841, 3474, 3731, 1049, 2059, -2745, 119, -275, -273, 556, 89, 257, 397, 119, 341, 365, 426
211879015, 4708, 14841, 3474, 3731, 1049, 2059, -2745, 119, -275, -273, 441, 364, 146, 193, 123, 317, 321, 346
211879838, 4708, 14841, 3474, 3731, 1049, 2059, -2745, 119, -275, -273, 441, 364, 146, 193, 123, 317, 321, 346
211880786, 4684, 14852, 3515, 3677, 1095, 2010, -2747, 137, -208, -307, 441, 364, 146, 193, 123, 317, 321, 346
211893339, 4684, 14852, 3515, 3677, 1095, 2010, -2747, 137, -208, -307, 454, 570, 144, 160, 132, 324, 310, 298
211894154, 4684, 14852, 3515, 3677, 1095, 2010, -2747, 137, -208, -307, 454, 570, 144, 160, 132, 324, 310, 298
211900299, 4655, 14864, 3549, 3635, 1151, 1980, -2728, 144, -189, -276, 454, 570, 144, 160, 132, 324, 310, 298
211916558, 4655, 14864, 3549, 3635, 1151, 1980, -2728, 144, -189, -276, 397, 582, 130, 156, 140, 331, 257, 234
211917342, 4655, 14864, 3549, 3635, 1151, 1980, -2728, 144, -189, -276, 397, 582, 130, 156, 140, 331, 257, 234
211918335, 4625, 14877, 3571, 3599, 1190, 1975, -2732, 138, -202, -217, 397, 582, 130, 156, 140, 331, 257, 234
211939007, 4625, 14877, 3571, 3599, 1190, 1975, -2732, 138, -202, -217, 373, 593, 112, 136, 128, 312, 242, 204
211939816, 4625, 14877, 3571, 3599, 1190, 1975, -2732, 138, -202, -217, 373, 593, 112, 136, 128, 312, 242, 204
211940791, 4596, 14890, 3580, 3573, 1210, 1977, -2747, 109, -183, -142, 373, 593, 112, 136, 128, 312, 242, 204
211953341, 4596, 14890, 3580, 3573, 1210, 1977, -2747, 109, -183, -142, 328, 604, 110, 119, 123, 266, 216, 167
211954182, 4596, 14890, 3580, 3573, 1210, 1977, -2747, 109, -183, -142, 328, 604, 110, 119, 123, 266, 216, 167
211960294, 4565, 14904, 3584, 3548, 1160, 1927, -2771, 90, -170, -105, 328, 604, 110, 119, 123, 266, 216, 167
211976564, 4565, 14904, 3584, 3548, 1160, 1927, -2771, 90, -170, -105, 286, 493, 105, 97, 110, 242, 200, 154
211977367, 4565, 14904, 3584, 3548, 1160, 1927, -2771, 90, -170, -105, 286, 493, 105, 97, 110, 242, 200, 154
211978335, 4528, 14921, 3583, 3525, 1144, 1897, -2769, 114, -155, -60, 286, 493, 105, 97, 110, 242, 200, 154
211999016, 4528, 14921, 3583, 3525, 1144, 1897, -2769, 114, -155, -60, 255, 267, 92, 71, 93, 233, 214, 124
211999858, 4528, 14921, 3583, 3525, 1144, 1897, -2769, 114, -155, -60, 255, 267, 92, 71, 93, 233, 214, 124
212000797, 4486, 14940, 3570, 3514, 1155, 1886, -2783, 116, -114, 26, 255, 267, 92, 71, 93, 233, 214, 124
212013376, 4486, 14940, 3570, 3514, 1155, 1886, -2783, 116, -114, 26, 160, 257, 90, 59, 99, 207, 231, 110
212014210, 4486, 14940, 3570, 3514, 1155, 1886, -2783, 116, -114, 26, 160, 257, 90, 59, 99, 207, 231, 110
212020343, 4433, 14962, 3540, 3515, 1197, 1835, -2774, 143, -86, 131, 160, 257, 90, 59, 99, 207, 231, 110
212036515, 4433, 14962, 3540, 3515, 1197, 1835, -2774, 143, -86, 131, 169, 249, 90, 56, 98, 190, 206, 98
212037317, 4433, 14962, 3540, 3515, 1197, 1835, -2774, 143, -86, 131, 169, 249, 90, 56, 98, 190, 206, 98
212038272, 4372, 14985, 3490, 3546, 1285, 1886, -2700, 174, 5, 287, 169, 249, 90, 56, 98, 190, 206, 98
212059018, 4372, 14985, 3490, 3546, 1285, 1886, -2700, 174, 5, 287, 177, 243, 89, 61, 88, 183, 199, 89
212059870, 4372, 14985, 3490, 3546, 1285, 1886, -2700, 174, 5, 287, 177, 243, 89, 61, 88, 183, 199, 89
212060768, 4307, 15006, 3423, 3601, 1329, 1873, -2686, 162, 102, 409, 177, 243, 89, 61, 88, 183, 199, 89
