Timestamp, Orientation x, Orientation y, Orientation z, Orientation w, Acceleration x, Acceleration y, Acceleration z, Rotation x, Rotation y, Rotation z, EMG 0, EMG 1, EMG 2, EMG 3, EMG 4, EMG 5, EMG 6, EMG 7
123568729, -1712, 11018, -5366, 10738, 4018, 739, -2273, 157, 75, -43, 0, 0, 0, 0, 0, 0, 0, 0
123569524, -1721, 11008, -5352, 10753, 3976, 708, -2235, 118, 70, -13, 0, 0, 0, 0, 0, 0, 0, 0
123590592, -1737, 10998, -5342, 10766, 3993, 709, -2245, 126, 51, 31, 0, 0, 0, 0, 0, 0, 0, 0
123605575, -1760, 10987, -5329, 10780, 3965, 731, -2257, 165, 40, 47, 0, 0, 0, 0, 0, 0, 0, 0
123628039, -1780, 10979, -5317, 10791, 3960, 753, -2276, 141, 29, 39, 0, 0, 0, 0, 0, 0, 0, 0
123636207, -1780, 10979, -5317, 10791, 3960, 753, -2276, 141, 29, 39, 23, 21, 22, 29, 66, 67, 137, 30
123636995, -1780, 10979, -5317, 10791, 3960, 753, -2276, 141, 29, 39, 23, 21, 22, 29, 66, 67, 137, 30
123650593, -1796, 10974, -5309, 10797, 3983, 796, -2285, 104, 5, 34, 23, 21, 22, 29, 66, 67, 137, 30
123658666, -1796, 10974, -5309, 10797, 3983, 796, -2285, 104, 5, 34, 24, 21, 22, 28, 67, 74, 154, 30
123659532, -1796, 10974, -5309, 10797, 3983, 796, -2285, 104, 5, 34, 24, 21, 22, 28, 67, 74, 154, 30
123665667, -1809, 10972, -5304, 10799, 4008, 826, -2304, 74, -9, 31, 24, 21, 22, 28, 67, 74, 154, 30
123681190, -1809, 10972, -5304, 10799, 4008, 826, -2304, 74, -9, 31, 21, 25, 22, 29, 70, 79, 180, 37
123681970, -1809, 10972, -5304, 10799, 4008, 826, -2304, 74, -9, 31, 21, 25, 22, 29, 70, 79, 180, 37
123688174, -1807, 10978, -5299, 10796, 4040, 863, -2409, 4, -36, -36, 21, 25, 22, 29, 70, 79, 180, 37
123696167, -1807, 10978, -5299, 10796, 4040, 863, -2409, 4, -36, -36, 24, 27, 21, 30, 70, 81, 179, 44
123697034, -1807, 10978, -5299, 10796, 4040, 863, -2409, 4, -36, -36, 24, 27, 21, 30, 70, 81, 179, 44
123710552, -1778, 10998, -5293, 10783, 4031, 972, -2615, -126, -72, -156, 24, 27, 21, 30, 70, 81, 179, 44
123718698, -1778, 10998, -5293, 10783, 4031, 972, -2615, -126, -72, -156, 55, 29, 23, 27, 67, 99, 196, 125
123719487, -1778, 10998, -5293, 10783, 4031, 972, -2615, -126, -72, -156, 55, 29, 23, 27, 67, 99, 196, 125
123725652, -1717, 11042, -5284, 10753, 3926, 1016, -2719, -276, -170, -326, 55, 29, 23, 27, 67, 99, 196, 125
123741174, -1717, 11042, -5284, 10753, 3926, 1016, -2719, -276, -170, -326, 59, 30, 24, 36, 68, 124, 202, 143
123741970, -1717, 11042, -5284, 10753, 3926, 1016, -2719, -276, -170, -326, 59, 30, 24, 36, 68, 124, 202, 143
123748110, -1657, 11110, -5276, 10696, 3850, 1165, -2789, -340, -364, -338, 59, 30, 24, 36, 68, 124, 202, 143
123756174, -1657, 11110, -5276, 10696, 3850, 1165, -2789, -340, -364, -338, 62, 32, 24, 38, 70, 126, 222, 154
123756995, -1657, 11110, -5276, 10696, 3850, 1165, -2789, -340, -364, -338, 62, 32, 24, 38, 70, 126, 222, 154
123770554, -1584, 11222, -5262, 10597, 3831, 1314, -3009, -468, -660, -467, 62, 32, 24, 38, 70, 126, 222, 154
123778671, -1584, 11222, -5262, 10597, 3831, 1314, -3009, -468, -660, -467, 68, 34, 34, 47, 78, 136, 205, 164
123779464, -1584, 11222, -5262, 10597, 3831, 1314, -3009, -468, -660, -467, 68, 34, 34, 47, 78, 136, 205, 164
123785645, -1512, 11374, -5213, 10469, 3924, 1411, -3409, -412, -942, -649, 68, 34, 34, 47, 78, 136, 205, 164
123801141, -1512, 11374, -5213, 10469, 3924, 1411, -3409, -412, -942, -649, 71, 49, 64, 48, 83, 143, 219, 165
123801993, -1512, 11374, -5213, 10469, 3924, 1411, -3409, -412, -942, -649, 71, 49, 64, 48, 83, 143, 219, 165
123808171, -1450, 11587, -5104, 10295, 3795, 1645, -3531, -273, -1381, -938, 71, 49, 64, 48, 83, 143, 219, 165
123816203, -1450, 11587, -5104, 10295, 3795, 1645, -3531, -273, -1381, -938, 52, 64, 114, 58, 84, 152, 183, 120
123816981, -1450, 11587, -5104, 10295, 3795, 1645, -3531, -273, -1381, -938, 52, 64, 114, 58, 84, 152, 183, 120
123830548, -1342, 11854, -4945, 10082, 3778, 1763, -3739, -373, -1677, -1367, 52, 64, 114, 58, 84, 152, 183, 120
123838641, -1342, 11854, -4945, 10082, 3778, 1763, -3739, -373, -1677, -1367, 51, 77, 128, 54, 77, 137, 198, 99
123839495, -1342, 11854, -4945, 10082, 3778, 1763, -3739, -373, -1677, -1367, 51, 77, 128, 54, 77, 137, 198, 99
123845654, -1198, 12176, -4729, 9816, 3858, 1825, -3838, -433, -2039, -1797, 51, 77, 128, 54, 77, 137, 198, 99
123861202, -1198, 12176, -4729, 9816, 3858, 1825, -3838, -433, -2039, -1797, 49, 80, 134, 62, 78, 137, 215, 90
123862118, -1198, 12176, -4729, 9816, 3858, 1825, -3838, -433, -2039, -1797, 49, 80, 134, 62, 78, 137, 215, 90
123868167, -1045, 12545, -4413, 9512, 3926, 1948, -3743, -222, -2386, -2302, 49, 80, 134, 62, 78, 137, 215, 90
123876140, -1045, 12545, -4413, 9512, 3926, 1948, -3743, -222, -2386, -2302, 43, 81, 138, 62, 68, 137, 221, 69
123877010, -1045, 12545, -4413, 9512, 3926, 1948, -3743, -222, -2386, -2302, 43, 81, 138, 62, 68, 137, 221, 69
123890546, -888, 12938, -4008, 9175, 4063, 2119, -3675, -5, -2631, -2720, 43, 81, 138, 62, 68, 137, 221, 69
123898693, -888, 12938, -4008, 9175, 4063, 2119, -3675, -5, -2631, -2720, 41, 73, 135, 63, 68, 137, 227, 67
123899519, -888, 12938, -4008, 9175, 4063, 2119, -3675, -5, -2631, -2720, 41, 73, 135, 63, 68, 137, 227, 67
123905670, -723, 13344, -3515, 8801, 4171, 2497, -3514, 181, -2852, -3137, 41, 73, 135, 63, 68, 137, 227, 67
123921234, -723, 13344, -3515, 8801, 4171, 2497, -3514, 181, -2852, -3137, 43, 59, 99, 61, 58, 121, 237, 65
123922018, -723, 13344, -3515, 8801, 4171, 2497, -3514, 181, -2852, -3137, 43, 59, 99, 61, 58, 121, 237, 65
123928166, -524, 13741, -2967, 8398, 4230, 2732, -3396, 156, -2928, -3479, 43, 59, 99, 61, 58, 121, 237, 65
123936194, -524, 13741, -2967, 8398, 4230, 2732, -3396, 156, -2928, -3479, 41, 41, 81, 60, 55, 139, 244, 71
123937116, -524, 13741, -2967, 8398, 4230, 2732, -3396, 156, -2928, -3479, 41, 41, 81, 60, 55, 139, 244, 71
123950532, -294, 14118, -2372, 7962, 4217, 2706, -3312, 120, -3006, -3766, 41, 41, 81, 60, 55, 139, 244, 71
123958691, -294, 14118, -2372, 7962, 4217, 2706, -3312, 120, -3006, -3766, 41, 37, 73, 54, 73, 168, 316, 70
123959520, -294, 14118, -2372, 7962, 4217, 2706, -3312, 120, -3006, -3766, 41, 37, 73, 54, 73, 168, 316, 70
123965644, -48, 14457, -1730, 7510, 4050, 2621, -3261, 161, -2971, -3995, 41, 37, 73, 54, 73, 168, 316, 70
123981194, -48, 14457, -1730, 7510, 4050, 2621, -3261, 161, -2971, -3995, 40, 33, 64, 53, 78, 235, 454, 85
123981995, -48, 14457, -1730, 7510, 4050, 2621, -3261, 161, -2971, -3995, 40, 33, 64, 53, 78, 235, 454, 85
123988162, 184, 14752, -1072, 7043, 3872, 2750, -3146, 259, -2945, -4018, 40, 33, 64, 53, 78, 235, 454, 85
123996191, 184, 14752, -1072, 7043, 3872, 2750, -3146, 259, -2945, -4018, 38, 35, 45, 56, 83, 309, 503, 89
123997034, 184, 14752, -1072, 7043, 3872, 2750, -3146, 259, -2945, -4018, 38, 35, 45, 56, 83, 309, 503, 89
124010525, 422, 15003, -412, 6555, 3745, 2787, -2986, 229, -2934, -4029, 38, 35, 45, 56, 83, 309, 503, 89
124018704, 422, 15003, -412, 6555, 3745, 2787, -2986, 229, -2934, -4029, 35, 40, 51, 70, 182, 329, 666, 90
124019532, 422, 15003, -412, 6555, 3745, 2787, -2986, 229, -2934, -4029, 35, 40, 51, 70, 182, 329, 666, 90
124025653, 657, 15208, 240, 6054, 3493, 2669, -2974, 210, -2903, -3971, 35, 40, 51, 70, 182, 329, 666, 90
124041192, 657, 15208, 240, 6054, 3493, 2669, -2974, 210, -2903, -3971, 43, 44, 108, 167, 261, 375, 764, 104
124042009, 657, 15208, 240, 6054, 3493, 2669, -2974, 210, -2903, -3971, 43, 44, 108, 167, 261, 375, 764, 104
124048143, 897, 15362, 844, 5560, 3414, 2407, -2991, 81, -2776, -3737, 43, 44, 108, 167, 261, 375, 764, 104
124056194, 897, 15362, 844, 5560, 3414, 2407, -2991, 81, -2776, -3737, 53, 53, 136, 180, 333, 420, 850, 130
124056995, 897, 15362, 844, 5560, 3414, 2407, -2991, 81, -2776, -3737, 53, 53, 136, 180, 333, 420, 850, 130
124070530, 1122, 15472, 1359, 5092, 3236, 2168, -3095, -35, -2573, -3247, 53, 53, 136, 180, 333, 420, 850, 130
124078667, 1122, 15472, 1359, 5092, 3236, 2168, -3095, -35, -2573, -3247, 56, 59, 165, 190, 370, 413, 893, 130
124079519, 1122, 15472, 1359, 5092, 3236, 2168, -3095, -35, -2573, -3247, 56, 59, 165, 190, 370, 413, 893, 130
124085644, 1368, 15537, 1709, 4714, 2900, 2040, -2985, -358, -2208, -2329, 56, 59, 165, 190, 370, 413, 893, 130
124101182, 1368, 15537, 1709, 4714, 2900, 2040, -2985, -358, -2208, -2329, 56, 66, 177, 209, 375, 372, 911, 130
124101982, 1368, 15537, 1709, 4714, 2900, 2040, -2985, -358, -2208, -2329, 56, 66, 177, 209, 375, 372, 911, 130
124108109, 1574, 15588, 1848, 4419, 2790, 1422, -2771, -603, -1834, -1172, 56, 66, 177, 209, 375, 372, 911, 130
124116199, 1574, 15588, 1848, 4419, 2790, 1422, -2771, -603, -1834, -1172, 83, 78, 180, 215, 349, 377, 834, 178
124117026, 1574, 15588, 1848, 4419, 2790, 1422, -2771, -603, -1834, -1172, 83, 78, 180, 215, 349, 377, 834, 178
124130570, 1677, 15603, 1838, 4332, 3326, 402, -2579, -684, -1434, -503, 83, 78, 180, 215, 349, 377, 834, 178
124138707, 1677, 15603, 1838, 4332, 3326, 402, -2579, -684, -1434, -503, 89, 90, 160, 167, 368, 388, 807, 186
124139488, 1677, 15603, 1838, 4332, 3326, 402, -2579, -684, -1434, -503, 89, 90, 160, 167, 368, 388, 807, 186
124145647, 1680, 15602, 1835, 4335, 3541, 168, -2436, -290, -997, -452, 89, 90, 160, 167, 368, 388, 807, 186
124161143, 1680, 15602, 1835, 4335, 3541, 168, -2436, -290, -997, -452, 94, 94, 168, 170, 349, 351, 798, 174
124162011, 1680, 15602, 1835, 4335, 3541, 168, -2436, -290, -997, -452, 94, 94, 168, 170, 349, 351, 798, 174
124168119, 1723, 15585, 1898, 4354, 3080, 553, -2525, -273, -628, -699, 94, 94, 168, 170, 349, 351, 798, 174
124176194, 1723, 15585, 1898, 4354, 3080, 553, -2525, -273, -628, -699, 95, 93, 154, 162, 324, 323, 692, 180
124176992, 1723, 15585, 1898, 4354, 3080, 553, -2525, -273, -628, -699, 95, 93, 154, 162, 324, 323, 692, 180
124190576, 1743, 15563, 1979, 4388, 2732, 534, -2502, -153, -349, -720, 95, 93, 154, 162, 324, 323, 692, 180
124198642, 1743, 15563, 1979, 4388, 2732, 534, -2502, -153, -349, -720, 99, 97, 143, 142, 326, 375, 652, 191
124199472, 1743, 15563, 1979, 4388, 2732, 534, -2502, -153, -349, -720, 99, 97, 143, 142, 326, 375, 652, 191
124205626, 1664, 15557, 2052, 4405, 2335, 675, -2625, 448, -186, -424, 99, 97, 143, 142, 326, 375, 652, 191
124221142, 1664, 15557, 2052, 4405, 2335, 675, -2625, 448, -186, -424, 100, 95, 147, 129, 320, 367, 655, 147
124221984, 1664, 15557, 2052, 4405, 2335, 675, -2625, 448, -186, -424, 100, 95, 147, 129, 320, 367, 655, 147
124228118, 1535, 15561, 2101, 4415, 2211, 928, -2799, 800, -103, -112, 100, 95, 147, 129, 320, 367, 655, 147
124243648, 1535, 15561, 2101, 4415, 2211, 928, -2799, 800, -103, -112, 113, 100, 141, 114, 260, 315, 640, 135
124244442, 1535, 15561, 2101, 4415, 2211, 928, -2799, 800, -103, -112, 113, 100, 141, 114, 260, 315, 640, 135
124250677, 1458, 15561, 2139, 4424, 2095, 1221, -3014, 631, -36, -29, 113, 100, 141, 114, 260, 315, 640, 135
124258666, 1458, 15561, 2139, 4424, 2095, 1221, -3014, 631, -36, -29, 117, 107, 119, 91, 199, 295, 514, 129
124259467, 1458, 15561, 2139, 4424, 2095, 1221, -3014, 631, -36, -29, 117, 107, 119, 91, 199, 295, 514, 129
124265631, 1488, 15554, 2174, 4421, 1949, 1429, -3262, 116, -35, -113, 117, 107, 119, 91, 199, 295, 514, 129
124281151, 1488, 15554, 2174, 4421, 1949, 1429, -3262, 116, -35, -113, 123, 113, 105, 102, 177, 300, 544, 121
124281930, 1488, 15554, 2174, 4421, 1949, 1429, -3262, 116, -35, -113, 123, 113, 105, 102, 177, 300, 544, 121
124288168, 1566, 15540, 2227, 4418, 1996, 1364, -3354, -174, -50, -323, 123, 113, 105, 102, 177, 300, 544, 121
124303732, 1566, 15540, 2227, 4418, 1996, 1364, -3354, -174, -50, -323, 137, 120, 112, 96, 167, 219, 528, 102
124304492, 1566, 15540, 2227, 4418, 1996, 1364, -3354, -174, -50, -323, 137, 120, 112, 96, 167, 219, 528, 102
124310649, 1656, 15524, 2319, 4393, 1891, 1582, -3467, -104, -85, -510, 137, 120, 112, 96, 167, 219, 528, 102
124318664, 1656, 15524, 2319, 4393, 1891, 1582, -3467, -104, -85, -510, 143, 127, 108, 89, 159, 204, 576, 149
124319459, 1656, 15524, 2319, 4393, 1891, 1582, -3467, -104, -85, -510, 143, 127, 108, 89, 159, 204, 576, 149
124325594, 1754, 15505, 2458, 4346, 1777, 1888, -3463, 54, -140, -705, 143, 127, 108, 89, 159, 204, 576, 149
124341233, 1754, 15505, 2458, 4346, 1777, 1888, -3463, 54, -140, -705, 133, 121, 118, 90, 110, 177, 502, 143
124341995, 1754, 15505, 2458, 4346, 1777, 1888, -3463, 54, -140, -705, 133, 121, 118, 90, 110, 177, 502, 143
124348174, 1862, 15484, 2639, 4270, 1654, 2116, -3512, 155, -240, -916, 133, 121, 118, 90, 110, 177, 502, 143
124363714, 1862, 15484, 2639, 4270, 1654, 2116, -3512, 155, -240, -916, 150, 140, 137, 91, 105, 167, 538, 155
124364516, 1862, 15484, 2639, 4270, 1654, 2116, -3512, 155, -240, -916, 150, 140, 137, 91, 105, 167, 538, 155
124370670, 2012, 15455, 2847, 4172, 1617, 1942, -3524, -131, -376, -1220, 150, 140, 137, 91, 105, 167, 538, 155
124378694, 2012, 15455, 2847, 4172, 1617, 1942, -3524, -131, -376, -1220, 167, 152, 159, 72, 95, 147, 508, 159
124379513, 2012, 15455, 2847, 4172, 1617, 1942, -3524, -131, -376, -1220, 167, 152, 159, 72, 95, 147, 508, 159
124385647, 2236, 15404, 3101, 4064, 1574, 2113, -3465, -435, -487, -1597, 167, 152, 159, 72, 95, 147, 508, 159
124401172, 2236, 15404, 3101, 4064, 1574, 2113, -3465, -435, -487, -1597, 191, 180, 189, 75, 82, 141, 496, 161
124401994, 2236, 15404, 3101, 4064, 1574, 2113, -3465, -435, -487, -1597, 191, 180, 189, 75, 82, 141, 496, 161
124408140, 2461, 15345, 3391, 3921, 1457, 2347, -3405, -584, -672, -1964, 191, 180, 189, 75, 82, 141, 496, 161
124423709, 2461, 15345, 3391, 3921, 1457, 2347, -3405, -584, -672, -1964, 184, 174, 220, 77, 82, 139, 396, 128
124424467, 2461, 15345, 3391, 3921, 1457, 2347, -3405, -584, -672, -1964, 184, 174, 220, 77, 82, 139, 396, 128
124430649, 2698, 15264, 3757, 3747, 1395, 2166, -3308, -560, -778, -2451, 184, 174, 220, 77, 82, 139, 396, 128
124438666, 2698, 15264, 3757, 3747, 1395, 2166, -3308, -560, -778, -2451, 223, 232, 252, 72, 86, 161, 443, 156
124439532, 2698, 15264, 3757, 3747, 1395, 2166, -3308, -560, -778, -2451, 223, 232, 252, 72, 86, 161, 443, 156
124445644, 2896, 15165, 4196, 3525, 1257, 1871, -3318, -257, -886, -2870, 223, 232, 252, 72, 86, 161, 443, 156
124461194, 2896, 15165, 4196, 3525, 1257, 1871, -3318, -257, -886, -2870, 223, 304, 259, 72, 80, 165, 393, 163
124461987, 2896, 15165, 4196, 3525, 1257, 1871, -3318, -257, -886, -2870, 223, 304, 259, 72, 80, 165, 393, 163
124468119, 3056, 15051, 4696, 3238, 1205, 1963, -3165, 103, -1117, -3240, 223, 304, 259, 72, 80, 165, 393, 163
124483688, 3056, 15051, 4696, 3238, 1205, 1963, -3165, 103, -1117, -3240, 230, 331, 280, 74, 91, 176, 473, 184
124484490, 3056, 15051, 4696, 3238, 1205, 1963, -3165, 103, -1117, -3240, 230, 331, 280, 74, 91, 176, 473, 184
124490618, 3219, 14904, 5233, 2919, 1120, 2009, -3073, 150, -1227, -3532, 230, 331, 280, 74, 91, 176, 473, 184
124498693, 3219, 14904, 5233, 2919, 1120, 2009, -3073, 150, -1227, -3532, 262, 323, 289, 79, 88, 184, 492, 191
124499490, 3219, 14904, 5233, 2919, 1120, 2009, -3073, 150, -1227, -3532, 262, 323, 289, 79, 88, 184, 492, 191
124505632, 3414, 14718, 5786, 2580, 911, 1974, -3024, -13, -1337, -3743, 262, 323, 289, 79, 88, 184, 492, 191
124521158, 3414, 14718, 5786, 2580, 911, 1974, -3024, -13, -1337, -3743, 269, 336, 285, 88, 88, 178, 510, 189
124522010, 3414, 14718, 5786, 2580, 911, 1974, -3024, -13, -1337, -3743, 269, 336, 285, 88, 88, 178, 510, 189
124528132, 3593, 14509, 6334, 2206, 685, 1854, -2822, 106, -1467, -3789, 269, 336, 285, 88, 88, 178, 510, 189
124543668, 3593, 14509, 6334, 2206, 685, 1854, -2822, 106, -1467, -3789, 281, 389, 296, 98, 93, 166, 518, 185
124544489, 3593, 14509, 6334, 2206, 685, 1854, -2822, 106, -1467, -3789, 281, 389, 296, 98, 93, 166, 518, 185
124550641, 3738, 14279, 6874, 1812, 598, 1300, -2877, 220, -1498, -3814, 281, 389, 296, 98, 93, 166, 518, 185
124566855, 3738, 14279, 6874, 1812, 598, 1300, -2877, 220, -1498, -3814, 308, 354, 298, 97, 95, 213, 542, 213
124567670, 3738, 14279, 6874, 1812, 598, 1300, -2877, 220, -1498, -3814, 308, 354, 298, 97, 95, 213, 542, 213
124568584, 3838, 14046, 7378, 1398, 449, 1117, -2869, 444, -1546, -3639, 308, 354, 298, 97, 95, 213, 542, 213
124580464, 3838, 14046, 7378, 1398, 449, 1117, -2869, 444, -1546, -3639, 333, 363, 311, 106, 86, 224, 471, 208
124588735, 3838, 14046, 7378, 1398, 449, 1117, -2869, 444, -1546, -3639, 333, 363, 311, 106, 86, 224, 471, 208
124589624, 3907, 13808, 7847, 958, 318, 1133, -2872, 643, -1642, -3503, 333, 363, 311, 106, 86, 224, 471, 208
124603677, 3907, 13808, 7847, 958, 318, 1133, -2872, 643, -1642, -3503, 302, 374, 303, 106, 87, 237, 553, 206
124604492, 3907, 13808, 7847, 958, 318, 1133, -2872, 643, -1642, -3503, 302, 374, 303, 106, 87, 237, 553, 206
124610682, 3974, 13563, 8269, 536, 266, 1127, -2769, 593, -1630, -3283, 302, 374, 303, 106, 87, 237, 553, 206
124626845, 3974, 13563, 8269, 536, 266, 1127, -2769, 593, -1630, -3283, 303, 379, 315, 110, 88, 266, 550, 211
124627634, 3974, 13563, 8269, 536, 266, 1127, -2769, 593, -1630, -3283, 303, 379, 315, 110, 88, 266, 550, 211
124628584, 4060, 13314, 8639, 153, 338, 951, -2647, 377, -1598, -3005, 303, 379, 315, 110, 88, 266, 550, 211
124641145, 4060, 13314, 8639, 153, 338, 951, -2647, 377, -1598, -3005, 262, 287, 279, 102, 79, 345, 546, 195
124641967, 4060, 13314, 8639, 153, 338, 951, -2647, 377, -1598, -3005, 262, 287, 279, 102, 79, 345, 546, 195
124648118, 4103, 13059, 8998, -234, 528, 685, -2515, 555, -1537, -2984, 262, 287, 279, 102, 79, 345, 546, 195
124663686, 4103, 13059, 8998, -234, 528, 685, -2515, 555, -1537, -2984, 221, 250, 284, 104, 107, 375, 589, 149
124664462, 4103, 13059, 8998, -234, 528, 685, -2515, 555, -1537, -2984, 221, 250, 284, 104, 107, 375, 589, 149
124670625, 4104, 12842, 9292, -563, 396, 286, -2532, 589, -1241, -2475, 221, 250, 284, 104, 107, 375, 589, 149
124686885, 4104, 12842, 9292, -563, 396, 286, -2532, 589, -1241, -2475, 155, 205, 256, 99, 108, 382, 611, 170
124687669, 4104, 12842, 9292, -563, 396, 286, -2532, 589, -1241, -2475, 155, 205, 256, 99, 108, 382, 611, 170
124688643, 4017, 12722, 9480, -745, 320, 244, -2596, 394, -936, -1592, 155, 205, 256, 99, 108, 382, 611, 170
124701117, 4017, 12722, 9480, -745, 320, 244, -2596, 394, -936, -1592, 163, 213, 251, 110, 157, 382, 582, 174
124701972, 4017, 12722, 9480, -745, 320, 244, -2596, 394, -936, -1592, 163, 213, 251, 110, 157, 382, 582, 174
124708131, 3957, 12671, 9572, -762, 506, 296, -2739, -126, -550, -753, 163, 213, 251, 110, 157, 382, 582, 174
124723693, 3957, 12671, 9572, -762, 506, 296, -2739, -126, -550, -753, 179, 209, 231, 110, 158, 395, 645, 199
124724515, 3957, 12671, 9572, -762, 506, 296, -2739, -126, -550, -753, 179, 209, 231, 110, 158, 395, 645, 199
124730677, 3943, 12647, 9615, -676, 603, 141, -2523, -646, -301, -282, 179, 209, 231, 110, 158, 395, 645, 199
124746840, 3943, 12647, 9615, -676, 603, 141, -2523, -646, -301, -282, 181, 218, 242, 111, 162, 340, 635, 205
124747683, 3943, 12647, 9615, -676, 603, 141, -2523, -646, -301, -282, 181, 218, 242, 111, 162, 340, 635, 205
124748591, 3860, 12652, 9650, -580, 460, -120, -2567, -470, 41, -80, 181, 218, 242, 111, 162, 340, 635, 205
124760508, 3860, 12652, 9650, -580, 460, -120, -2567, -470, 41, -80, 175, 223, 240, 112, 150, 283, 618, 203
124768694, 3860, 12652, 9650, -580, 460, -120, -2567, -470, 41, -80, 175, 223, 240, 112, 150, 283, 618, 203
124769593, 3740, 12702, 9636, -474, 286, 80, -2625, -185, 249, 282, 175, 223, 240, 112, 150, 283, 618, 203
124783669, 3740, 12702, 9636, -474, 286, 80, -2625, -185, 249, 282, 179, 209, 222, 110, 173, 271, 599, 173
124784468, 3740, 12702, 9636, -474, 286, 80, -2625, -185, 249, 282, 179, 209, 222, 110, 173, 271, 599, 173
124790631, 3616, 12775, 9592, -349, 280, 358, -2619, -57, 345, 460, 179, 209, 222, 110, 173, 271, 599, 173
124806872, 3616, 12775, 9592, -349, 280, 358, -2619, -57, 345, 460, 149, 167, 220, 109, 138, 284, 623, 179
124807688, 3616, 12775, 9592, -349, 280, 358, -2619, -57, 345, 460, 149, 167, 220, 109, 138, 284, 623, 179
124808629, 3509, 12840, 9550, -207, 151, 515, -2625, -121, 453, 458, 149, 167, 220, 109, 138, 284, 623, 179
124829343, 3509, 12840, 9550, -207, 151, 515, -2625, -121, 453, 458, 129, 136, 208, 102, 142, 252, 563, 159
124830158, 3509, 12840, 9550, -207, 151, 515, -2625, -121, 453, 458, 129, 136, 208, 102, 142, 252, 563, 159
124831093, 3418, 12895, 9510, -66, 32, 525, -2675, -202, 487, 438, 129, 136, 208, 102, 142, 252, 563, 159
124843658, 3418, 12895, 9510, -66, 32, 525, -2675, -202, 487, 438, 136, 116, 198, 98, 138, 234, 535, 165
124844467, 3418, 12895, 9510, -66, 32, 525, -2675, -202, 487, 438, 136, 116, 198, 98, 138, 234, 535, 165
124850646, 3317, 12941, 9483, 22, -31, 500, -2693, -13, 349, 315, 136, 116, 198, 98, 138, 234, 535, 165
124866795, 3317, 12941, 9483, 22, -31, 500, -2693, -13, 349, 315, 144, 109, 179, 96, 132, 238, 484, 164
124867620, 3317, 12941, 9483, 22, -31, 500, -2693, -13, 349, 315, 144, 109, 179, 96, 132, 238, 484, 164
124868571, 3226, 12978, 9464, 76, -67, 576, -2727, 83, 215, 204, 144, 109, 179, 96, 132, 238, 484, 164
124889341, 3226, 12978, 9464, 76, -67, 576, -2727, 83, 215, 204, 145, 110, 180, 91, 100, 256, 514, 166
124890182, 3226, 12978, 9464, 76, -67, 576, -2727, 83, 215, 204, 145, 110, 180, 91, 100, 256, 514, 166
124891094, 3145, 13002, 9459, 106, -54, 580, -2750, 112, 93, 78, 145, 110, 180, 91, 100, 256, 514, 166
124903678, 3145, 13002, 9459, 106, -54, 580, -2750, 112, 93, 78, 150, 112, 157, 64, 92, 240, 476, 172
124904490, 3145, 13002, 9459, 106, -54, 580, -2750, 112, 93, 78, 150, 112, 157, 64, 92, 240, 476, 172
124910674, 3073, 13018, 9460, 129, -71, 544, -2770, 73, 54, 23, 150, 112, 157, 64, 92, 240, 476, 172
124926969, 3073, 13018, 9460, 129, -71, 544, -2770, 73, 54, 23, 130, 114, 170, 59, 83, 229, 475, 157
124927660, 3073, 13018, 9460, 129, -71, 544, -2770, 73, 54, 23, 130, 114, 170, 59, 83, 229, 475, 157
124928569, 3014, 13028, 9464, 163, -1, 527, -2760, -31, 43, -4, 130, 114, 170, 59, 83, 229, 475, 157
